No	Time	12-AccX	12-AccY	12-AccZ	12-GyroX	12-GyroY	12-GyroZ	13-AccX	13-AccY	13-AccZ	13-GyroX	13-GyroY	13-GyroZ	14-AccX	14-AccY	14-AccZ	14-GyroX	14-GyroY	14-GyroZ	15-AccX	15-AccY	15-AccZ	15-GyroX	15-GyroY	15-GyroZ	16-AccX	16-AccY	16-AccZ	16-GyroX	16-GyroY	16-GyroZ	17-AccX	17-AccY	17-AccZ	17-GyroX	17-GyroY	17-GyroZ
0	0	-0.296158940397351	0.130754966887417	-0.919523178807947	-0.526622516556291	0.135364238410596	-0.904900662251656				0.960953642384106	0.0477880794701987	0.221139072847682	-2.92609271523179	7.30781456953642	-1.70596026490066				-0.218172185430464	-0.145271523178808	-0.88794701986755	0.00741721854304636	0.706490066225167	0.63973509933775				0	0	0	0	0	0				0	0	0	0	0	0				0	0	0	0	0	0			
1	20	-0.280158940397351	0.146754966887417	-0.919523178807947	-0.246622516556291	0.415364238410596	-0.624900662251656				0.976953642384106	0.0317880794701987	0.253139072847682	-2.92609271523179	7.58781456953643	-1.98596026490066				-0.218172185430464	-0.145271523178808	-0.87194701986755	-1.11258278145695	0.146490066225167	0.35973509933775				0.320529801324503	-0.0485298013245033	-0.933721854304636	-1.43708609271523	-0.3764238410596	-0.335629139072848				0.964026490066225	0.131496688741722	0.0859337748344371	-3.4082119205298	-1.62807947019868	-0.897483443708608				0.287788079470199	-0.302834437086093	-0.852238410596026	-1.65960264900662	1.83761589403974	-0.194701986754968			
2	40	-0.280158940397351	0.130754966887417	-0.919523178807947	-0.526622516556291	0.695364238410596	-0.624900662251656				0.976953642384106	0.0477880794701987	0.253139072847682	-3.76609271523179	5.34781456953642	-2.54596026490066				-0.218172185430464	-0.145271523178808	-0.88794701986755	-0.552582781456954	0.146490066225167	0.35973509933775				0.320529801324503	-0.0485298013245033	-0.917721854304636	-1.71708609271523	0.7435761589404	-0.0556291390728476				0.964026490066225	0.131496688741722	0.0859337748344371	-4.2482119205298	-1.62807947019868	-1.45748344370861				0.303788079470199	-0.302834437086093	-0.852238410596026	-1.09960264900662	1.83761589403974	-0.474701986754968			
3	60	-0.280158940397351	0.130754966887417	-0.919523178807947	-0.806622516556291	0.695364238410596	-0.624900662251656				0.976953642384106	0.0477880794701987	0.237139072847682	-2.92609271523179	1.70781456953642	-2.26596026490066				-0.218172185430464	-0.145271523178808	-0.88794701986755	-0.552582781456954	0.706490066225167	0.0797350993377501				0.320529801324503	-0.0645298013245033	-0.917721854304636	-2.27708609271523	0.7435761589404	-0.0556291390728476				0.964026490066225	0.147496688741722	0.0859337748344371	-3.9682119205298	-0.788079470198675	-0.897483443708608				0.303788079470199	-0.302834437086093	-0.852238410596026	-0.259602649006623	1.55761589403974	-0.194701986754968			
4	80	-0.280158940397351	0.146754966887417	-0.919523178807947	-0.806622516556291	0.415364238410596	-0.624900662251656				0.960953642384106	0.0477880794701987	0.221139072847682	-1.80609271523179	1.42781456953642	-1.14596026490066				-0.218172185430464	-0.129271523178808	-0.88794701986755	-0.832582781456954	-0.413509933774833	0.63973509933775				0.304529801324503	-0.0485298013245033	-0.917721854304636	-3.11708609271523	1.5835761589404	1.62437086092715				0.964026490066225	0.147496688741722	0.0859337748344371	-2.5682119205298	-1.62807947019868	-0.337483443708608				0.303788079470199	-0.302834437086093	-0.852238410596026	-1.09960264900662	2.11761589403974	0.925298013245032			
5	100	-0.280158940397351	0.146754966887417	-0.919523178807947	-1.36662251655629	0.415364238410596	-0.624900662251656				0.976953642384106	0.0477880794701987	0.237139072847682	0.153907284768212	3.10781456953642	-0.30596026490066				-0.218172185430464	-0.129271523178808	-0.88794701986755	-0.832582781456954	-0.133509933774833	0.63973509933775				0.304529801324503	-0.0325298013245033	-0.917721854304636	-2.55708609271523	1.5835761589404	1.34437086092715				0.948026490066225	0.131496688741722	0.0859337748344371	-2.2882119205298	-0.228079470198675	-0.617483443708608				0.303788079470199	-0.302834437086093	-0.852238410596026	-1.65960264900662	1.83761589403974	0.645298013245032			
6	120	-0.280158940397351	0.146754966887417	-0.919523178807947	-1.08662251655629	0.415364238410596	-0.344900662251656				0.976953642384106	0.0477880794701987	0.237139072847682	1.55390728476821	3.38781456953642	-0.86596026490066				-0.218172185430464	-0.145271523178808	-0.87194701986755	0.00741721854304636	0.426490066225167	0.35973509933775				0.320529801324503	-0.0485298013245033	-0.901721854304636	-0.0370860927152318	1.5835761589404	2.74437086092715				0.948026490066225	0.131496688741722	0.0859337748344371	-1.4482119205298	-0.788079470198675	-0.0574834437086077				0.303788079470199	-0.302834437086093	-0.836238410596026	-0.819602649006623	1.83761589403974	2.04529801324503			
7	140	-0.280158940397351	0.146754966887417	-0.919523178807947	-1.08662251655629	0.695364238410596	-0.0649006622516557				0.976953642384106	0.0317880794701987	0.253139072847682	-0.406092715231788	1.98781456953642	-0.585960264900661				-0.218172185430464	-0.145271523178808	-0.88794701986755	0.847417218543046	-0.413509933774833	-0.20026490066225				0.320529801324503	-0.0645298013245033	-0.917721854304636	0.242913907284768	1.8635761589404	3.30437086092715				0.948026490066225	0.147496688741722	0.0859337748344371	-2.5682119205298	-0.508079470198675	0.502516556291392				0.303788079470199	-0.302834437086093	-0.852238410596026	-0.819602649006623	0.997615894039735	2.32529801324503			
8	160	-0.280158940397351	0.146754966887417	-0.919523178807947	-0.246622516556291	0.975364238410596	-0.624900662251656				0.976953642384106	0.0477880794701987	0.269139072847682	-1.24609271523179	1.98781456953642	-0.585960264900661				-0.218172185430464	-0.145271523178808	-0.87194701986755	0.287417218543046	0.426490066225167	-0.48026490066225				0.304529801324503	-0.0485298013245033	-0.917721854304636	-1.99708609271523	2.4235761589404	3.86437086092715				0.948026490066225	0.147496688741722	0.117933774834437	0.511788079470198	3.13192052980133	-0.617483443708608				0.303788079470199	-0.302834437086093	-0.836238410596026	-1.37960264900662	2.11761589403974	3.44529801324503			
9	180	-0.280158940397351	0.146754966887417	-0.919523178807947	-1.08662251655629	0.415364238410596	-1.18490066225166				0.976953642384106	0.0477880794701987	0.269139072847682	-1.52609271523179	0.867814569536424	-0.585960264900661				-0.202172185430464	-0.145271523178808	-0.90394701986755	-0.272582781456954	0.706490066225167	0.35973509933775				0.320529801324503	-0.0325298013245033	-0.917721854304636	-1.99708609271523	1.8635761589404	4.42437086092715				0.964026490066225	0.131496688741722	0.0859337748344371	-0.888211920529802	-0.788079470198675	-0.337483443708608				0.303788079470199	-0.302834437086093	-0.836238410596026	-2.49960264900662	2.67761589403974	4.00529801324503			
10	200	-0.280158940397351	0.146754966887417	-0.919523178807947	-0.526622516556291	0.695364238410596	-0.344900662251656				0.960953642384106	0.0477880794701987	0.253139072847682	-0.126092715231788	0.0278145695364242	-0.86596026490066				-0.218172185430464	-0.145271523178808	-0.88794701986755	-0.552582781456954	0.426490066225167	-0.76026490066225				0.320529801324503	-0.0485298013245033	-0.917721854304636	-1.15708609271523	0.4635761589404	4.14437086092715				0.964026490066225	0.131496688741722	0.0859337748344371	-2.0082119205298	3.13192052980133	-2.01748344370861				0.319788079470199	-0.302834437086093	-0.852238410596026	-0.819602649006623	3.79761589403974	3.16529801324503			
11	220	-0.280158940397351	0.146754966887417	-0.919523178807947	-1.08662251655629	0.695364238410596	-0.624900662251656				0.976953642384106	0.0477880794701987	0.237139072847682	1.27390728476821	-1.93218543046358	0.25403973509934				-0.218172185430464	-0.145271523178808	-0.87194701986755	-0.272582781456954	0.426490066225167	-1.04026490066225				0.320529801324503	-0.0485298013245033	-0.933721854304636	4.16291390728477	0.4635761589404	3.58437086092715				0.964026490066225	0.131496688741722	0.101933774834437	-3.9682119205298	2.01192052980133	-1.45748344370861				0.319788079470199	-0.302834437086093	-0.836238410596026	-1.09960264900662	1.83761589403974	1.76529801324503			
12	240	-0.280158940397351	0.146754966887417	-0.919523178807947	-0.526622516556291	0.415364238410596	-0.344900662251656				0.976953642384106	0.0477880794701987	0.253139072847682	1.55390728476821	-3.61218543046358	-0.30596026490066				-0.218172185430464	-0.145271523178808	-0.87194701986755	-0.272582781456954	-0.133509933774833	-1.04026490066225				0.336529801324503	-0.0485298013245033	-0.933721854304636	-2.55708609271523	0.4635761589404	4.14437086092715				0.964026490066225	0.131496688741722	0.0859337748344371	-2.0082119205298	0.611920529801325	-0.897483443708608				0.303788079470199	-0.302834437086093	-0.852238410596026	-1.37960264900662	0.437615894039735	1.20529801324503			
13	260	-0.280158940397351	0.146754966887417	-0.919523178807947	-0.246622516556291	0.695364238410596	-0.904900662251656				0.976953642384106	0.0317880794701987	0.253139072847682	-0.126092715231788	-4.17218543046358	-0.30596026490066				-0.218172185430464	-0.145271523178808	-0.88794701986755	0.00741721854304636	0.426490066225167	0.0797350993377501				0.336529801324503	-0.0325298013245033	-0.917721854304636	-4.79708609271523	-1.2164238410596	2.46437086092715				0.948026490066225	0.131496688741722	0.101933774834437	-0.608211920529802	0.891920529801325	-1.17748344370861				0.319788079470199	-0.302834437086093	-0.852238410596026	-1.93960264900662	-0.402384105960265	1.76529801324503			
14	280	-0.280158940397351	0.146754966887417	-0.919523178807947	-0.806622516556291	0.695364238410596	-0.904900662251656				0.976953642384106	0.0477880794701987	0.253139072847682	-1.52609271523179	-4.45218543046358	-1.14596026490066				-0.218172185430464	-0.145271523178808	-0.88794701986755	-1.67258278145695	0.426490066225167	0.0797350993377501				0.320529801324503	-0.0325298013245033	-0.917721854304636	-4.51708609271523	-2.8964238410596	3.30437086092715				0.964026490066225	0.147496688741722	0.101933774834437	-1.1682119205298	-0.508079470198675	-1.17748344370861				0.319788079470199	-0.318834437086093	-0.852238410596026	-2.21960264900662	-0.682384105960265	3.16529801324503			
15	300	-0.264158940397351	0.146754966887417	-0.919523178807947	-1.08662251655629	0.695364238410596	-0.624900662251656				0.960953642384106	0.0477880794701987	0.269139072847682	-0.406092715231788	-4.17218543046358	-0.86596026490066				-0.218172185430464	-0.145271523178808	-0.88794701986755	-2.51258278145695	0.706490066225167	0.0797350993377501				0.336529801324503	-0.0325298013245033	-0.917721854304636	-3.11708609271523	-2.6164238410596	2.74437086092715				0.964026490066225	0.147496688741722	0.101933774834437	-0.888211920529802	0.611920529801325	-0.897483443708608				0.319788079470199	-0.318834437086093	-0.836238410596026	-1.65960264900662	-0.682384105960265	4.84529801324503			
16	320	-0.264158940397351	0.146754966887417	-0.935523178807947	-0.246622516556291	0.415364238410596	-0.904900662251656				0.960953642384106	0.0317880794701987	0.253139072847682	0.993907284768212	-5.29218543046358	-0.30596026490066				-0.202172185430464	-0.145271523178808	-0.87194701986755	-0.552582781456954	-0.133509933774833	-0.20026490066225				0.320529801324503	-0.0485298013245033	-0.917721854304636	-3.67708609271523	-2.8964238410596	3.02437086092715				0.948026490066225	0.147496688741722	0.0859337748344371	-1.1682119205298	0.331920529801325	-0.617483443708608				0.319788079470199	-0.318834437086093	-0.836238410596026	-2.21960264900662	-0.402384105960265	5.40529801324503			
17	340	-0.264158940397351	0.146754966887417	-0.919523178807947	0.313377483443709	0.695364238410596	0.215099337748344				0.960953642384106	0.0477880794701987	0.237139072847682	2.39390728476821	-5.01218543046358	0.53403973509934				-0.202172185430464	-0.145271523178808	-0.88794701986755	0.567417218543046	0.706490066225167	-0.20026490066225				0.320529801324503	-0.0325298013245033	-0.917721854304636	-5.91708609271523	-4.8564238410596	2.18437086092715				0.932026490066225	0.131496688741722	0.101933774834437	-1.4482119205298	0.891920529801325	-1.45748344370861				0.319788079470199	-0.318834437086093	-0.836238410596026	-0.539602649006623	-1.80238410596026	5.96529801324503			
18	360	-0.264158940397351	0.146754966887417	-0.919523178807947	0.593377483443709	0.695364238410596	0.215099337748344				0.960953642384106	0.0477880794701987	0.253139072847682	4.63390728476821	-4.17218543046358	0.81403973509934				-0.202172185430464	-0.129271523178808	-0.88794701986755	0.567417218543046	-0.693509933774834	-0.48026490066225				0.320529801324503	-0.0325298013245033	-0.917721854304636	-6.19708609271523	-7.0964238410596	1.62437086092715				0.948026490066225	0.131496688741722	0.117933774834437	-2.0082119205298	1.45192052980132	-1.45748344370861				0.319788079470199	-0.302834437086093	-0.836238410596026	-0.819602649006623	-2.64238410596027	6.52529801324503			
19	380	-0.280158940397351	0.146754966887417	-0.919523178807947	-0.526622516556291	0.695364238410596	-0.624900662251656				0.976953642384106	0.0477880794701987	0.237139072847682	2.95390728476821	-3.05218543046358	-0.585960264900661				-0.202172185430464	-0.145271523178808	-0.88794701986755	-0.552582781456954	0.146490066225167	0.35973509933775				0.320529801324503	-0.0325298013245033	-0.901721854304636	-6.47708609271523	-11.0164238410596	1.34437086092715				0.948026490066225	0.131496688741722	0.117933774834437	-2.0082119205298	1.17192052980133	-1.17748344370861				0.319788079470199	-0.318834437086093	-0.836238410596026	-0.259602649006623	-2.64238410596027	6.80529801324503			
20	400	-0.280158940397351	0.146754966887417	-0.903523178807947	0.313377483443709	-0.144635761589404	-0.904900662251656				0.960953642384106	0.0317880794701987	0.237139072847682	-0.406092715231788	-1.09218543046358	-1.70596026490066				-0.218172185430464	-0.145271523178808	-0.88794701986755	-1.39258278145695	-0.133509933774833	0.91973509933775				0.320529801324503	-0.0165298013245033	-0.901721854304636	-8.15708609271523	-11.5764238410596	-0.615629139072848				0.964026490066225	0.131496688741722	0.101933774834437	-2.8482119205298	1.73192052980133	-2.29748344370861				0.319788079470199	-0.302834437086093	-0.836238410596026	-0.259602649006623	-2.08238410596027	7.36529801324503			
21	420	-0.264158940397351	0.130754966887417	-0.919523178807947	-1.08662251655629	-0.424635761589404	-1.18490066225166				0.960953642384106	0.0477880794701987	0.237139072847682	-1.80609271523179	-2.77218543046358	-1.70596026490066				-0.202172185430464	-0.145271523178808	-0.88794701986755	-0.832582781456954	0.426490066225167	-0.48026490066225				0.320529801324503	-0.0165298013245033	-0.885721854304636	-5.91708609271523	-8.4964238410596	-1.17562913907285				0.948026490066225	0.147496688741722	0.117933774834437	-2.5682119205298	-0.508079470198675	-2.01748344370861				0.319788079470199	-0.318834437086093	-0.820238410596026	-1.09960264900662	-2.92238410596027	8.76529801324503			
22	440	-0.280158940397351	0.146754966887417	-0.919523178807947	-1.64662251655629	-0.704635761589404	-0.904900662251656				0.976953642384106	0.0637880794701987	0.237139072847682	-3.20609271523179	-0.812185430463576	-2.82596026490066				-0.202172185430464	-0.145271523178808	-0.87194701986755	0.00741721854304636	-0.973509933774833	-0.20026490066225				0.320529801324503	-0.0165298013245033	-0.901721854304636	-3.67708609271523	-5.6964238410596	0.784370860927152				0.948026490066225	0.147496688741722	0.117933774834437	-3.6882119205298	-1.90807947019868	-2.57748344370861				0.303788079470199	-0.318834437086093	-0.820238410596026	-0.819602649006623	-3.20238410596026	8.76529801324503			
23	460	-0.280158940397351	0.162754966887417	-0.935523178807947	-0.806622516556291	-0.704635761589404	-0.344900662251656				0.976953642384106	0.0637880794701987	0.253139072847682	-2.92609271523179	-0.532185430463576	-1.98596026490066				-0.202172185430464	-0.129271523178808	-0.88794701986755	-0.832582781456954	-0.693509933774834	0.0797350993377501				0.304529801324503	-0.0165298013245033	-0.917721854304636	-1.43708609271523	-4.2964238410596	1.90437086092715				0.964026490066225	0.147496688741722	0.117933774834437	-2.2882119205298	-1.90807947019868	-1.73748344370861				0.319788079470199	-0.318834437086093	-0.820238410596026	-3.33960264900662	-0.962384105960265	9.60529801324503			
24	480	-0.264158940397351	0.146754966887417	-0.919523178807947	0.313377483443709	-0.144635761589404	-0.344900662251656				0.960953642384106	0.0637880794701987	0.253139072847682	-2.08609271523179	1.14781456953642	-1.42596026490066				-0.218172185430464	-0.145271523178808	-0.90394701986755	-0.552582781456954	-0.413509933774833	0.35973509933775				0.304529801324503	-0.0165298013245033	-0.917721854304636	-0.0370860927152318	-5.4164238410596	3.58437086092715				0.948026490066225	0.147496688741722	0.117933774834437	-0.888211920529802	-1.34807947019868	-0.897483443708608				0.303788079470199	-0.318834437086093	-0.820238410596026	-4.73960264900662	1.27761589403974	10.725298013245			
25	500	-0.264158940397351	0.146754966887417	-0.919523178807947	0.593377483443709	-0.144635761589404	-0.624900662251656				0.960953642384106	0.0477880794701987	0.253139072847682	-1.24609271523179	1.98781456953642	-0.30596026490066				-0.186172185430464	-0.145271523178808	-0.88794701986755	-0.272582781456954	0.426490066225167	0.0797350993377501				0.320529801324503	-0.0325298013245033	-0.933721854304636	-0.877086092715232	-5.9764238410596	1.62437086092715				0.948026490066225	0.131496688741722	0.117933774834437	-1.1682119205298	0.331920529801325	-2.01748344370861				0.303788079470199	-0.302834437086093	-0.820238410596026	-5.29960264900662	1.83761589403974	9.88529801324503			
26	520	-0.264158940397351	0.146754966887417	-0.919523178807947	0.0333774834437086	-0.984635761589404	-0.0649006622516557				0.960953642384106	0.0477880794701987	0.253139072847682	-2.64609271523179	-2.21218543046358	-1.70596026490066				-0.202172185430464	-0.145271523178808	-0.87194701986755	-0.272582781456954	-0.133509933774833	-0.76026490066225				0.320529801324503	-0.0325298013245033	-0.917721854304636	-3.11708609271523	-6.8164238410596	1.62437086092715				0.964026490066225	0.131496688741722	0.133933774834437	-2.2882119205298	0.331920529801325	-2.85748344370861				0.319788079470199	-0.286834437086093	-0.836238410596026	-5.01960264900662	2.11761589403974	7.64529801324503			
27	540	-0.280158940397351	0.130754966887417	-0.919523178807947	-0.246622516556291	-1.2646357615894	-1.46490066225166				0.976953642384106	0.0957880794701987	0.237139072847682	-2.64609271523179	-7.81218543046358	-2.26596026490066				-0.218172185430464	-0.145271523178808	-0.87194701986755	-1.39258278145695	-0.973509933774833	-0.48026490066225				0.304529801324503	-0.0165298013245033	-0.917721854304636	-3.11708609271523	-7.3764238410596	2.74437086092715				0.948026490066225	0.131496688741722	0.101933774834437	-3.9682119205298	-1.62807947019868	-2.01748344370861				0.303788079470199	-0.286834437086093	-0.852238410596026	-3.89960264900662	2.95761589403974	5.40529801324503			
28	560	-0.280158940397351	0.146754966887417	-0.919523178807947	-0.806622516556291	-0.144635761589404	-1.18490066225166				1.00895364238411	0.0317880794701987	0.253139072847682	1.27390728476821	-11.7321854304636	-0.585960264900661				-0.234172185430464	-0.129271523178808	-0.88794701986755	-1.39258278145695	-1.25350993377483	-1.04026490066225				0.304529801324503	-0.0325298013245033	-0.933721854304636	-5.91708609271523	-8.2164238410596	2.46437086092715				0.948026490066225	0.147496688741722	0.0859337748344371	-4.8082119205298	-3.02807947019868	-2.01748344370861				0.287788079470199	-0.286834437086093	-0.852238410596026	-5.01960264900662	2.67761589403974	3.44529801324503			
29	580	-0.296158940397351	0.146754966887417	-0.919523178807947	-2.20662251655629	-0.704635761589404	-0.344900662251656				0.992953642384106	0.0477880794701987	0.205139072847682	-1.24609271523179	-33.0121854304636	-1.42596026490066				-0.234172185430464	-0.129271523178808	-0.88794701986755	0.00741721854304636	-0.413509933774833	-1.32026490066225				0.288529801324503	-0.0165298013245033	-0.917721854304636	-6.19708609271523	-8.2164238410596	4.98437086092715				0.980026490066225	0.163496688741722	0.0859337748344371	-3.4082119205298	-2.74807947019868	-1.45748344370861				0.271788079470199	-0.286834437086093	-0.852238410596026	-7.25960264900662	0.997615894039735	2.04529801324503			
30	600	-0.296158940397351	0.146754966887417	-0.919523178807947	-3.04662251655629	0.695364238410596	-0.624900662251656				0.976953642384106	0.0637880794701987	0.157139072847682	-2.08609271523179	-31.6121854304636	-2.26596026490066				-0.234172185430464	-0.145271523178808	-0.88794701986755	0.567417218543046	1.54649006622517	-1.04026490066225				0.272529801324503	-0.0325298013245033	-0.949721854304636	-2.83708609271523	-6.2564238410596	5.82437086092715				0.964026490066225	0.163496688741722	0.0859337748344371	-4.8082119205298	-3.58807947019868	-1.45748344370861				0.287788079470199	-0.270834437086093	-0.868238410596026	-8.65960264900662	2.11761589403974	0.925298013245032			
31	620	-0.296158940397351	0.146754966887417	-0.919523178807947	-3.32662251655629	1.2553642384106	-0.624900662251656				0.976953642384106	0.0797880794701987	0.157139072847682	1.55390728476821	-22.9321854304636	-0.585960264900661				-0.218172185430464	-0.129271523178808	-0.87194701986755	1.68741721854305	0.706490066225167	-0.48026490066225				0.256529801324503	-0.0325298013245033	-0.933721854304636	-2.27708609271523	-1.4964238410596	8.06437086092715				0.964026490066225	0.147496688741722	0.0539337748344371	-3.1282119205298	-4.42807947019868	-0.337483443708608				0.271788079470199	-0.270834437086093	-0.868238410596026	-9.21960264900662	4.35761589403974	-2.15470198675497			
32	640	-0.280158940397351	0.146754966887417	-0.919523178807947	-3.32662251655629	2.0953642384106	0.775099337748344				0.992953642384106	0.0637880794701987	0.157139072847682	5.47390728476821	-21.8121854304636	1.09403973509934				-0.234172185430464	-0.129271523178808	-0.88794701986755	2.24741721854305	-0.693509933774834	0.0797350993377501				0.240529801324503	-0.0325298013245033	-0.933721854304636	-1.99708609271523	0.4635761589404	9.18437086092715				0.964026490066225	0.147496688741722	0.0539337748344371	-1.1682119205298	-3.58807947019868	-0.617483443708608				0.255788079470199	-0.254834437086093	-0.884238410596026	-9.77960264900662	6.31761589403974	-5.23470198675497			
33	660	-0.280158940397351	0.146754966887417	-0.919523178807947	-3.32662251655629	1.5353642384106	1.89509933774834				0.976953642384106	0.0317880794701987	0.141139072847682	1.83390728476821	-18.1721854304636	1.93403973509934				-0.218172185430464	-0.145271523178808	-0.88794701986755	1.96741721854305	0.986490066225167	0.35973509933775				0.224529801324503	-0.0165298013245033	-0.933721854304636	-1.15708609271523	2.4235761589404	8.06437086092715				0.964026490066225	0.115496688741722	0.0539337748344371	-2.0082119205298	-2.18807947019868	-0.897483443708608				0.239788079470199	-0.238834437086093	-0.900238410596026	-6.41960264900662	7.15761589403974	-8.59470198675497			
34	680	-0.296158940397351	0.130754966887417	-0.919523178807947	-5.28662251655629	1.8153642384106	1.33509933774834				0.976953642384106	0.0317880794701987	0.125139072847682	-4.04609271523179	-17.3321854304636	0.53403973509934				-0.218172185430464	-0.145271523178808	-0.88794701986755	1.40741721854305	2.10649006622517	-0.76026490066225				0.224529801324503	-0.0485298013245033	-0.933721854304636	-0.317086092715232	7.4635761589404	6.66437086092715				0.964026490066225	0.115496688741722	0.0539337748344371	-2.8482119205298	-1.90807947019868	-2.01748344370861				0.239788079470199	-0.254834437086093	-0.884238410596026	-2.49960264900662	6.31761589403974	-11.954701986755			
35	700	-0.296158940397351	0.130754966887417	-0.919523178807947	-6.68662251655629	2.9353642384106	1.33509933774834				0.976953642384106	0.0957880794701987	0.109139072847682	-3.48609271523179	-15.9321854304636	-0.30596026490066				-0.218172185430464	-0.145271523178808	-0.87194701986755	-0.832582781456954	2.10649006622517	-1.32026490066225				0.192529801324503	-0.0485298013245033	-0.917721854304636	0.522913907284768	11.9435761589404	4.98437086092715				0.948026490066225	0.115496688741722	0.0379337748344371	-2.8482119205298	-1.34807947019868	-1.45748344370861				0.239788079470199	-0.238834437086093	-0.900238410596026	-3.33960264900662	6.87761589403974	-10.834701986755			
36	720	-0.264158940397351	0.130754966887417	-0.903523178807947	-7.24662251655629	2.3753642384106	3.01509933774834				0.976953642384106	0.0637880794701987	0.109139072847682	2.67390728476821	-14.2521854304636	2.21403973509934				-0.234172185430464	-0.129271523178808	-0.87194701986755	2.80741721854305	0.986490066225167	-0.76026490066225				0.176529801324503	-0.0325298013245033	-0.885721854304636	1.36291390728477	14.7435761589404	3.58437086092715				0.948026490066225	0.147496688741722	-0.0260662251655629	-5.9282119205298	-1.90807947019868	-0.337483443708608				0.223788079470199	-0.238834437086093	-0.884238410596026	-5.01960264900662	6.59761589403974	-11.394701986755			
37	740	-0.264158940397351	0.146754966887417	-0.903523178807947	-9.48662251655629	1.8153642384106	3.57509933774835				0.976953642384106	0.0477880794701987	0.0771390728476822	5.19390728476821	-24.0521854304636	4.17403973509934				-0.218172185430464	-0.145271523178808	-0.87194701986755	2.52741721854305	1.26649006622517	-1.32026490066225				0.160529801324503	-0.0325298013245033	-0.901721854304636	3.60291390728477	16.7035761589404	1.34437086092715				0.948026490066225	0.131496688741722	-0.0420662251655629	-3.4082119205298	0.891920529801325	0.222516556291392				0.191788079470199	-0.222834437086093	-0.900238410596026	-5.01960264900662	8.27761589403974	-12.234701986755			
38	760	-0.280158940397351	0.146754966887417	-0.903523178807947	-9.76662251655629	2.0953642384106	4.13509933774834				0.944953642384106	0.0637880794701987	0.0771390728476822	4.07390728476821	-25.7321854304636	4.17403973509934				-0.234172185430464	-0.145271523178808	-0.87194701986755	5.32741721854305	2.10649006622517	-1.88026490066225				0.176529801324503	-0.0485298013245033	-0.933721854304636	8.36291390728477	19.2235761589404	0.784370860927152				0.916026490066225	0.131496688741722	0.00593377483443711	-1.7282119205298	4.25192052980133	-0.337483443708608				0.191788079470199	-0.206834437086093	-0.900238410596026	-8.37960264900662	11.9176158940397	-11.394701986755			
39	780	-0.280158940397351	0.146754966887417	-0.919523178807947	-10.8866225165563	1.2553642384106	4.97509933774835				0.976953642384106	0.0637880794701987	0.0291390728476822	2.11390728476821	-31.6121854304636	3.89403973509934				-0.218172185430464	-0.113271523178808	-0.87194701986755	3.92741721854305	1.82649006622517	-2.16026490066225				0.176529801324503	-0.0645298013245033	-0.949721854304636	11.4429139072848	21.1835761589404	-1.45562913907285				0.932026490066225	0.115496688741722	-0.0420662251655629	-3.9682119205298	5.09192052980133	-0.897483443708608				0.175788079470199	-0.190834437086093	-0.932238410596026	4.78039735099338	6.31761589403974	-11.674701986755			
40	800	-0.296158940397351	0.162754966887417	-0.903523178807947	-12.2866225165563	1.8153642384106	6.65509933774834				0.976953642384106	0.0637880794701987	0.0291390728476822	6.31390728476821	-26.8521854304636	3.33403973509934				-0.202172185430464	-0.129271523178808	-0.87194701986755	6.72741721854305	-1.53350993377483	-3.84026490066225				0.208529801324503	-0.0645298013245033	-0.965721854304636	9.48291390728477	24.2635761589404	-5.09562913907285				0.964026490066225	0.131496688741722	-0.0420662251655629	0.231788079470198	8.73192052980133	0.222516556291392				0.175788079470199	-0.222834437086093	-0.932238410596026	6.74039735099338	8.83761589403974	-10.274701986755			
41	820	-0.264158940397351	0.194754966887417	-0.919523178807947	-12.8466225165563	0.135364238410596	8.05509933774835				0.944953642384106	0.0477880794701987	-0.00286092715231785	4.07390728476821	-31.3321854304636	3.05403973509934				-0.186172185430464	-0.113271523178808	-0.87194701986755	13.447417218543	-5.17350993377483	-4.40026490066225				0.192529801324503	-0.0805298013245033	-0.949721854304636	6.96291390728477	22.5835761589404	-7.33562913907285				0.964026490066225	0.115496688741722	-0.0740662251655629	0.231788079470198	8.45192052980133	0.502516556291392				0.159788079470199	-0.238834437086093	-0.932238410596026	7.58039735099338	10.2376158940397	-8.59470198675497			
42	840	-0.264158940397351	0.194754966887417	-0.919523178807947	-13.9666225165563	-0.984635761589404	10.0150993377483				0.960953642384106	0.0637880794701987	-0.0188609271523178	1.55390728476821	-26.5721854304636	3.89403973509934				-0.234172185430464	-0.113271523178808	-0.90394701986755	10.647417218543	-3.21350993377483	-4.12026490066225				0.192529801324503	-0.128529801324503	-1.01372185430464	5.28291390728477	19.2235761589404	-8.17562913907285				0.964026490066225	0.115496688741722	-0.0900662251655629	0.791788079470198	9.29192052980133	0.782516556291392				0.143788079470199	-0.222834437086093	-0.932238410596026	1.98039735099338	14.7176158940397	-6.07470198675497			
43	860	-0.280158940397351	0.178754966887417	-0.935523178807947	-12.5666225165563	-0.144635761589404	9.17509933774834				0.976953642384106	0.0797880794701987	-0.0348609271523178	6.87390728476821	-12.2921854304636	4.73403973509934				-0.234172185430464	-0.161271523178808	-0.90394701986755	14.847417218543	-8.53350993377483	-5.24026490066225				0.176529801324503	-0.128529801324503	-1.02972185430464	0.522913907284768	18.3835761589404	-10.9756291390728				0.948026490066225	0.115496688741722	-0.0740662251655629	1.6317880794702	15.1719205298013	0.502516556291392				0.143788079470199	-0.206834437086093	-0.964238410596026	3.66039735099338	20.3176158940397	-4.11470198675497			
44	880	-0.280158940397351	0.194754966887417	-0.935523178807947	-12.2866225165563	0.695364238410596	8.89509933774834				0.928953642384106	0.0157880794701987	-0.0828609271523179	14.7139072847682	-3.33218543046358	6.13403973509934				-0.266172185430464	-0.177271523178808	-0.88794701986755	12.607417218543	-4.61350993377483	-6.08026490066225				0.144529801324503	-0.112529801324503	-1.01372185430464	-5.35708609271523	22.0235761589404	-16.2956291390729				0.948026490066225	0.0994966887417219	-0.106066225165563	3.5917880794702	18.8119205298013	-0.0574834437086077				0.143788079470199	-0.206834437086093	-0.964238410596026	11.5003973509934	22.5576158940397	-1.31470198675497			
45	900	-0.328158940397351	0.210754966887417	-0.919523178807947	-12.0066225165563	0.975364238410596	9.17509933774834				1.00895364238411	0.0317880794701987	0.125139072847682	8.27390728476821	21.0278145695364	6.97403973509934				-0.282172185430464	-0.161271523178808	-0.83994701986755	16.807417218543	-2.37350993377483	-4.40026490066225				0.128529801324503	-0.0965298013245033	-0.965721854304636	-8.71708609271523	26.2235761589404	-19.6556291390729				0	0	0	0	0	0				0.143788079470199	-0.222834437086093	-0.964238410596026	15.9803973509934	25.6376158940397	2.32529801324503			
46	920	-0.312158940397351	0.242754966887417	-0.903523178807947	-14.8066225165563	3.2153642384106	9.17509933774834				0.976953642384106	0.0797880794701987	0.0771390728476822	0.433907284768212	32.7878145695364	4.73403973509934				-0.266172185430464	-0.193271523178808	-0.83994701986755	14.287417218543	-6.57350993377483	-3.28026490066225				0.128529801324503	-0.0965298013245033	-0.949721854304636	-9.83708609271523	29.0235761589404	-23.8556291390729				0.948026490066225	0.115496688741722	-0.0580662251655629	3.5917880794702	31.1319205298013	-2.29748344370861				0.127788079470199	-0.238834437086093	-0.916238410596027	15.7003973509934	30.6776158940397	6.80529801324503			
47	940	-0.280158940397351	0.242754966887417	-0.951523178807947	-17.6066225165563	0.415364238410596	8.05509933774835				0.976953642384106	-0.000211920529801304	0.0771390728476822	-8.80609271523179	39.7878145695364	8.93403973509934				-0.250172185430464	-0.209271523178808	-0.87194701986755	12.327417218543	-8.25350993377483	-3.84026490066225				0.160529801324503	-0.0965298013245033	-0.933721854304636	-10.3970860927152	33.5035761589404	-26.0956291390729				0	0	0	0	0	0				0	0	0	0	0	0			
48	960	0	0	0	0	0	0				0.960953642384106	0.0797880794701987	0.0611390728476822	-12.7260927152318	53.7878145695364	7.25403973509934				-0.218172185430464	-0.225271523178808	-0.87194701986755	9.80741721854305	-2.65350993377483	-2.72026490066225				0	0	0	0	0	0				0.932026490066225	0.0994966887417219	-0.0100662251655629	3.3117880794702	47.6519205298013	-5.09748344370861				0.223788079470199	-0.206834437086093	-0.884238410596026	19.9003973509934	41.8776158940397	15.205298013245			
49	980	-0.248158940397351	0.226754966887417	-0.871523178807947	-33.5666225165563	13.2953642384106	7.77509933774834				0.960953642384106	0.127788079470199	0.0771390728476822	-5.72609271523179	64.7078145695364	5.85403973509934				-0.250172185430464	-0.177271523178808	-0.85594701986755	6.16741721854305	1.26649006622517	-0.76026490066225				0.208529801324503	-0.0805298013245033	-0.917721854304636	-9.55708609271523	45.2635761589404	-31.1356291390729				0.916026490066225	0.131496688741722	0.0219337748344371	3.8717880794702	54.6519205298013	-6.77748344370861				0.255788079470199	-0.238834437086093	-0.868238410596026	24.1003973509934	45.2376158940397	16.045298013245			
50	1000	-0.200158940397351	0.210754966887417	-0.839523178807947	-4.44662251655629	7.9753642384106	6.09509933774834				0.944953642384106	0.0477880794701987	0.125139072847682	-0.966092715231788	67.5078145695364	10.0540397350993				-0.250172185430464	-0.145271523178808	-0.87194701986755	4.20741721854305	2.66649006622517	2.59973509933775				0.240529801324503	-0.0485298013245033	-0.901721854304636	-12.0770860927152	51.1435761589404	-31.4156291390729				0.900026490066225	0.131496688741722	0.0379337748344371	1.0717880794702	59.4119205298013	-7.05748344370861				0.271788079470199	-0.238834437086093	-0.836238410596026	26.0603973509934	49.4376158940397	16.885298013245			
51	1020	-0.264158940397351	0.242754966887417	-0.887523178807947	-13.4066225165563	4.3353642384106	6.09509933774834				0.944953642384106	0.0317880794701987	0.0931390728476822	-4.88609271523179	74.7878145695364	9.21403973509934				-0.218172185430464	-0.193271523178808	-0.88794701986755	7.00741721854305	4.62649006622517	3.15973509933775				0.304529801324503	-0.0325298013245033	-0.837721854304636	-11.5170860927152	53.6635761589404	-31.6956291390729				0.900026490066225	0.147496688741722	0.0859337748344371	0.231788079470198	62.2119205298013	-7.05748344370861				0.303788079470199	-0.254834437086093	-0.804238410596027	29.4203973509934	52.5176158940397	14.925298013245			
52	1040	-0.280158940397351	0.274754966887417	-0.951523178807947	-18.7266225165563	4.6153642384106	7.21509933774835				0.928953642384106	0.0317880794701987	0.157139072847682	-6.28609271523179	86.5478145695364	9.21403973509934				-0.218172185430464	-0.209271523178808	-0.90394701986755	9.52741721854305	6.02649006622517	0.63973509933775				0.320529801324503	-0.000529801324503289	-0.789721854304636	-13.1970860927152	55.9035761589404	-32.5356291390729				0.884026490066225	0.147496688741722	0.117933774834437	-2.2882119205298	61.3719205298013	-4.53748344370861				0.319788079470199	-0.286834437086093	-0.756238410596026	37.2603973509934	55.5976158940397	12.965298013245			
53	1060	-0.312158940397351	0.306754966887417	-0.919523178807947	-20.9666225165563	6.2953642384106	6.65509933774834				0.880953642384106	0.0157880794701987	0.173139072847682	-6.84609271523179	87.3878145695364	11.4540397350993				-0.170172185430464	-0.193271523178808	-0.88794701986755	7.56741721854305	6.86649006622517	0.0797350993377501				0.352529801324503	0.0474701986754967	-0.805721854304636	-9.55708609271523	60.1035761589404	-30.2956291390729				0.916026490066225	0.131496688741722	0.165933774834437	-0.0482119205298018	63.8919205298013	-4.25748344370861				0.335788079470199	-0.302834437086093	-0.756238410596026	35.5803973509934	52.5176158940397	16.045298013245			
54	1080	-0.312158940397351	0.306754966887417	-0.855523178807947	-20.9666225165563	12.1753642384106	4.97509933774835				0.896953642384106	0.0317880794701987	0.173139072847682	-9.36609271523179	96.0678145695364	10.3340397350993				-0.234172185430464	-0.193271523178808	-0.90394701986755	6.72741721854305	4.62649006622517	-0.76026490066225				0.416529801324503	0.0154701986754967	-0.805721854304636	-1.15708609271523	67.1035761589404	-30.0156291390729				0.916026490066225	0.147496688741722	0.197933774834437	-4.2482119205298	58.2919205298013	-3.97748344370861				0.415788079470199	-0.302834437086093	-0.724238410596026	26.6203973509934	55.3176158940397	19.125298013245			
55	1100	-0.280158940397351	0.290754966887417	-0.935523178807947	-25.4466225165563	13.5753642384106	8.61509933774835				0.896953642384106	0.0957880794701987	0.317139072847682	-8.80609271523179	116.787814569536	11.4540397350993				-0.298172185430464	-0.177271523178808	-0.88794701986755	9.80741721854305	1.82649006622517	-0.76026490066225				0.400529801324503	-0.000529801324503289	-0.837721854304636	0.242913907284768	69.0635761589404	-32.5356291390729				0.836026490066225	0.147496688741722	0.229933774834437	-2.8482119205298	58.0119205298013	-3.41748344370861				0.431788079470199	-0.302834437086093	-0.740238410596026	25.2203973509934	57.2776158940397	20.245298013245			
56	1120	-0.280158940397351	0.290754966887417	-1.01552317880795	-22.6466225165563	20.8553642384106	10.0150993377483				0.944953642384106	-0.000211920529801304	0.397139072847682	-19.7260927152318	123.227814569536	9.77403973509934				-0.282172185430464	-0.129271523178808	-0.87194701986755	8.96741721854305	3.78649006622517	1.75973509933775				0.448529801324503	0.0634701986754967	-0.805721854304636	-7.03708609271523	65.7035761589404	-32.5356291390729				0.820026490066225	0.131496688741722	0.309933774834437	-0.608211920529802	72.0119205298013	-5.93748344370861				0.399788079470199	-0.318834437086093	-0.692238410596026	27.7403973509934	58.9576158940397	21.365298013245			
57	1140	0	0	0	0	0	0				0.928953642384106	0.0157880794701987	0.541139072847682	-22.8060927152318	128.547814569536	5.57403973509934				-0.298172185430464	-0.177271523178808	-0.93594701986755	17.647417218543	8.54649006622517	1.75973509933775				0.592529801324503	0.0314701986754967	-0.773721854304636	-5.91708609271523	56.4635761589404	-31.9756291390729				0.868026490066225	0.131496688741722	0.373933774834437	1.6317880794702	76.7719205298013	-7.05748344370861				0.415788079470199	-0.334834437086093	-0.628238410596026	34.4603973509934	62.0376158940397	18.845298013245			
58	1160	-0.200158940397351	0.226754966887417	-0.887523178807947	-18.7266225165563	20.2953642384106	12.5350993377483				0.784953642384106	0.175788079470199	0.157139072847682	-15.2460927152318	130.227814569536	-0.0259602649006601				-0.0901721854304636	-0.305271523178808	-0.69594701986755	20.447417218543	37.6664900662252	-10.0002649006623				0.736529801324503	0.0314701986754967	-0.805721854304636	-7.59708609271523	52.5435761589404	-33.0956291390728				0.916026490066225	0.211496688741722	0.373933774834437	-5.0882119205298	68.9319205298013	-6.21748344370861				0.511788079470199	-0.318834437086093	-0.660238410596027	29.1403973509934	59.7976158940397	12.125298013245			
59	1180	-0.200158940397351	0.226754966887417	-0.855523178807947	-16.7666225165563	18.3353642384106	12.8150993377483				0.672953642384106	-0.112211920529801	0.285139072847682	-10.2060927152318	109.227814569536	7.53403973509934				-0.122172185430464	-0.161271523178808	-0.87194701986755	19.607417218543	9.66649006622517	-4.12026490066225				0.720529801324503	0.0634701986754967	-0.789721854304636	-16.5570860927152	52.2635761589404	-26.0956291390729				0.900026490066225	0.275496688741722	0.373933774834437	-1.7282119205298	59.4119205298013	-4.53748344370861				0.639788079470199	-0.414834437086093	-0.628238410596026	43.7003973509934	54.7576158940397	4.56529801324503			
60	1200	-0.248158940397351	0.322754966887417	-0.919523178807947	-15.6466225165563	17.7753642384106	12.5350993377483				0.912953642384106	-0.0322119205298013	0.717139072847682	0.993907284768212	130.507814569536	14.5340397350993				-0.234172185430464	-0.257271523178808	-0.90394701986755	21.287417218543	3.78649006622517	-8.88026490066225				0.592529801324503	0.0474701986754967	-0.789721854304636	-21.5970860927152	44.7035761589404	-19.3756291390728				0.852026490066225	0.227496688741722	0.389933774834437	5.8317880794702	55.4919205298013	-3.97748344370861				0.607788079470199	-0.526834437086093	-0.580238410596026	42.5803973509934	45.2376158940397	5.96529801324503			
61	1220	-0.312158940397351	0.354754966887417	-0.919523178807947	-15.6466225165563	20.5753642384106	13.6550993377483				0.816953642384106	0.0157880794701987	0.605139072847682	-3.20609271523179	114.827814569536	14.5340397350993				-0.410172185430464	-0.241271523178808	-0.66394701986755	-4.19258278145695	50.5464900662252	-10.0002649006623				0.576529801324503	0.0954701986754967	-0.789721854304636	-24.1170860927152	37.9835761589404	-17.1356291390729				0.836026490066225	0.147496688741722	0.501933774834437	9.1917880794702	61.3719205298013	-5.65748344370861				0.543788079470199	-0.558834437086093	-0.596238410596026	19.6203973509934	52.5176158940397	11.845298013245			
62	1240	-0.248158940397351	0.242754966887417	-0.951523178807947	-19.5666225165563	30.0953642384106	16.1750993377483				0.896953642384106	-0.0482119205298013	0.781139072847682	-9.08609271523179	111.187814569536	16.4940397350993				-0.250172185430464	-0.161271523178808	-0.98394701986755	-32.752582781457	70.4264900662252	-8.32026490066225				0.704529801324503	0.159470198675497	-0.757721854304636	-18.2370860927152	28.1835761589404	-13.4956291390728				0.868026490066225	0.131496688741722	0.613933774834437	11.1517880794702	67.5319205298013	-7.05748344370861				0.591788079470199	-0.542834437086093	-0.612238410596026	-1.65960264900662	53.9176158940397	18.005298013245			
63	1260	-0.232158940397351	0.306754966887417	-0.919523178807947	-22.6466225165563	27.0153642384106	17.5750993377483				0.864953642384106	-0.000211920529801304	0.861139072847682	-11.3260927152318	95.2278145695364	11.1740397350993				-0.234172185430464	-0.209271523178808	-0.93594701986755	4.48741721854305	48.0264900662252	-10.5602649006623				0.800529801324503	0.159470198675497	-0.789721854304636	-8.71708609271523	24.8235761589404	-13.7756291390728				0.900026490066225	0.147496688741722	0.661933774834437	3.3117880794702	61.9319205298013	-6.49748344370861				0.703788079470199	-0.542834437086093	-0.660238410596027	6.46039735099338	51.1176158940397	14.925298013245			
64	1280	-0.280158940397351	0.338754966887417	-0.919523178807947	-17.6066225165563	22.2553642384106	17.0150993377483				0.816953642384106	-0.0482119205298013	0.829139072847682	3.23390728476821	84.8678145695364	11.7340397350993				-0.186172185430464	-0.289271523178808	-0.95194701986755	3.08741721854305	34.3064900662252	-10.2802649006622				0.736529801324503	0.111470198675497	-0.757721854304636	-14.5970860927152	24.8235761589404	-12.9356291390728				0.868026490066225	0.211496688741722	0.629933774834437	-0.0482119205298018	52.6919205298013	-7.61748344370861				0.767788079470199	-0.542834437086093	-0.612238410596026	20.4603973509934	45.2376158940397	7.64529801324503			
65	1300	-0.232158940397351	0.306754966887417	-0.951523178807947	-18.1666225165563	24.7753642384106	17.0150993377483				0.832953642384106	-0.0642119205298013	0.797139072847682	-0.686092715231788	79.8278145695364	13.6940397350993				-0.170172185430464	-0.241271523178808	-0.93594701986755	1.96741721854305	29.5464900662252	-11.9602649006623				0.736529801324503	0.143470198675497	-0.773721854304636	-28.0370860927152	22.8635761589404	-13.7756291390728				0.868026490066225	0.227496688741722	0.613933774834437	-0.608211920529802	51.2919205298013	-9.01748344370861				0.767788079470199	-0.558834437086093	-0.580238410596026	25.5003973509934	34.0376158940397	5.12529801324503			
66	1320	-0.248158940397351	0.386754966887417	-0.871523178807947	-22.3666225165563	26.1753642384106	16.1750993377483				0.800953642384106	-0.0322119205298013	0.861139072847682	-6.00609271523179	74.5078145695364	12.2940397350993				-0.186172185430464	-0.225271523178808	-0.93594701986755	-0.272582781456954	34.5864900662252	-13.9202649006623				0.800529801324503	0.239470198675497	-0.709721854304636	-30.2770860927152	29.5835761589404	-11.2556291390728				0.916026490066225	0.227496688741722	0.677933774834437	-0.328211920529802	54.3719205298013	-11.2574834437086				0.719788079470199	-0.638834437086093	-0.596238410596026	27.1803973509934	26.7576158940397	4.56529801324503			
67	1340	-0.264158940397351	0.370754966887417	-0.951523178807947	-15.3666225165563	28.6953642384106	14.7750993377483				0.800953642384106	-0.0642119205298013	0.813139072847682	-3.48609271523179	64.1478145695364	11.7340397350993				-0.186172185430464	-0.257271523178808	-0.87194701986755	-5.59258278145695	44.6664900662252	-11.9602649006623				0.800529801324503	0.271470198675497	-0.693721854304636	-15.9970860927152	34.0635761589404	-6.49562913907285				0.916026490066225	0.211496688741722	0.741933774834437	2.7517880794702	46.8119205298013	-7.89748344370861				0.703788079470199	-0.622834437086093	-0.596238410596026	15.9803973509934	28.7176158940397	3.44529801324503			
68	1360	-0.232158940397351	0.386754966887417	-0.871523178807947	-15.3666225165563	34.8553642384106	12.8150993377483				0.848953642384106	-0.0322119205298013	0.925139072847682	0.713907284768212	62.4678145695364	8.65403973509934				-0.138172185430464	-0.241271523178808	-0.95194701986755	14.007417218543	35.7064900662252	-10.5602649006623				0.768529801324503	0.255470198675497	-0.725721854304636	-3.39708609271523	34.0635761589404	-4.81562913907285				0.884026490066225	0.243496688741722	0.789933774834437	7.5117880794702	42.3319205298013	-5.37748344370861				0.735788079470199	-0.590834437086093	-0.580238410596026	18.2203973509934	37.6776158940397	3.72529801324503			
69	1380	-0.248158940397351	0.434754966887417	-0.919523178807947	-10.8866225165563	37.3753642384106	13.9350993377483				0.832953642384106	-0.0322119205298013	1.00513907284768	8.27390728476821	49.8678145695364	9.21403973509934				-0.170172185430464	-0.241271523178808	-0.93594701986755	29.1274172185431	31.5064900662252	-11.4002649006623				0.880529801324503	0.223470198675497	-0.693721854304636	-2.55708609271523	38.2635761589404	-8.45562913907285				0.884026490066225	0.243496688741722	0.773933774834437	13.1117880794702	42.0519205298013	-4.81748344370861				0.751788079470199	-0.670834437086093	-0.516238410596026	19.6203973509934	39.0776158940397	1.48529801324503			
70	1400	-0.152158940397351	0.434754966887417	-0.951523178807947	-5.56662251655629	43.2553642384106	12.5350993377483				0.848953642384106	-0.0322119205298013	1.03713907284768	16.9539072847682	38.9478145695364	8.37403973509934				-0.122172185430464	-0.241271523178808	-0.88794701986755	15.127417218543	44.6664900662252	-15.6002649006622				0.960529801324503	0.271470198675497	-0.725721854304636	-3.67708609271523	43.0235761589404	-11.8156291390728				0.916026490066225	0.259496688741722	0.805933774834437	13.1117880794702	46.8119205298013	-8.17748344370861				0.799788079470199	-0.734834437086093	-0.468238410596026	6.18039735099338	36.8376158940397	-1.59470198675497			
71	1420	-0.120158940397351	0.418754966887417	-0.935523178807947	0.0333774834437086	48.5753642384106	11.9750993377483				0.832953642384106	-0.0322119205298013	1.03713907284768	15.5539072847682	20.4678145695364	7.25403973509934				-0.0421721854304636	-0.289271523178808	-0.91994701986755	2.80741721854305	64.5464900662252	-9.72026490066225				1.0245298013245	0.303470198675497	-0.725721854304636	1.64291390728477	51.9835761589404	-9.29562913907285				0.996026490066225	0.275496688741722	0.885933774834437	9.7517880794702	45.9719205298013	-10.9774834437086				0.815788079470199	-0.702834437086093	-0.468238410596026	-18.4596026490066	43.2776158940397	-4.67470198675497			
72	1440	-0.088158940397351	0.386754966887417	-0.967523178807947	3.67337748344371	53.8953642384106	12.5350993377483				0.800953642384106	-0.0322119205298013	1.00513907284768	13.5939072847682	4.22781456953642	7.53403973509934				-0.0101721854304636	-0.273271523178808	-0.98394701986755	-19.312582781457	69.0264900662252	-8.32026490066225				1.0405298013245	0.287470198675497	-0.725721854304636	12.0029139072848	58.7035761589404	-7.05562913907285				0.964026490066225	0.307496688741722	0.853933774834437	5.5517880794702	25.8119205298013	-10.6974834437086				0.863788079470199	-0.590834437086093	-0.532238410596027	-23.7796026490066	52.7976158940397	-9.15470198675497			
73	1460	-0.024158940397351	0.338754966887417	-1.04752317880795	1.43337748344371	59.4953642384106	15.3350993377483				0.784953642384106	-0.0322119205298013	1.03713907284768	11.6339072847682	0.307814569536424	8.09403973509934				0.0218278145695364	-0.209271523178808	-0.98394701986755	-10.352582781457	63.4264900662252	-12.5202649006623				1.0405298013245	0.255470198675497	-0.773721854304636	17.0429139072848	61.2235761589404	-7.89562913907285				0.948026490066225	0.275496688741722	0.837933774834437	8.9117880794702	18.5319205298013	-9.29748344370861				0.895788079470199	-0.558834437086093	-0.548238410596027	7.30039735099338	56.1576158940397	-22.314701986755			
74	1480	0.007841059602649	0.418754966887417	-0.951523178807947	3.39337748344371	63.9753642384106	18.1350993377483				0.800953642384106	-0.000211920529801304	1.00513907284768	23.9539072847682	-8.09218543046358	8.37403973509934				0.133827814569536	-0.177271523178808	-0.98394701986755	-7.83258278145695	70.7064900662252	-13.9202649006623				1.0085298013245	0.207470198675497	-0.741721854304636	12.5629139072848	62.0635761589404	-7.05562913907285				0.948026490066225	0.291496688741722	0.837933774834437	10.8717880794702	14.3319205298013	-8.17748344370861				0.895788079470199	-0.574834437086093	-0.564238410596026	19.9003973509934	55.8776158940397	-37.154701986755			
75	1500	0.007841059602649	0.466754966887417	-0.951523178807947	15.1533774834437	62.2953642384106	19.2550993377483				0.816953642384106	-0.000211920529801304	1.03713907284768	35.1539072847682	-9.49218543046358	7.81403973509934				-0.138172185430464	-0.241271523178808	-0.99994701986755	-3.35258278145695	75.4664900662252	-9.72026490066225				0.944529801324503	0.207470198675497	-0.757721854304636	8.36291390728477	58.4235761589404	-8.45562913907285				0.900026490066225	0.307496688741722	0.773933774834437	13.1117880794702	14.0519205298013	-7.05748344370861				0.879788079470199	-0.622834437086093	-0.548238410596027	10.6603973509934	49.9976158940397	-40.234701986755			
76	1520	0.023841059602649	0.418754966887417	-0.999523178807947	25.5133774834437	68.7353642384106	20.3750993377483				0.800953642384106	-0.000211920529801304	1.02113907284768	37.3939072847682	-12.8521854304636	9.77403973509934				0.229827814569536	-0.225271523178808	-0.99994701986755	21.0074172185431	70.9864900662252	-19.8002649006623				0.944529801324503	0.271470198675497	-0.757721854304636	11.1629139072848	54.7835761589404	-6.77562913907285				0.932026490066225	0.291496688741722	0.805933774834437	14.7917880794702	17.4119205298013	-9.29748344370861				0.895788079470199	-0.638834437086093	-0.532238410596027	-5.57960264900662	49.7176158940397	-35.754701986755			
77	1540	0.071841059602649	0.386754966887417	-1.01552317880795	22.4333774834437	74.6153642384106	20.9350993377483				0.848953642384106	-0.000211920529801304	0.925139072847682	32.0739072847682	-36.6521854304636	11.7340397350993				0.149827814569536	-0.241271523178808	-0.98394701986755	26.0474172185431	57.5464900662252	-18.6802649006623				0.992529801324503	0.239470198675497	-0.773721854304636	18.4429139072848	51.7035761589404	-3.69562913907285				0.980026490066225	0.291496688741722	0.773933774834437	7.5117880794702	4.81192052980133	-8.45748344370861				0.959788079470199	-0.654834437086093	-0.548238410596027	-24.3396026490066	53.3576158940397	-30.714701986755			
78	1560	0.039841059602649	0.402754966887417	-0.983523178807947	22.9933774834437	78.8153642384106	21.4950993377483				0.800953642384106	0.0317880794701987	0.877139072847682	10.7939072847682	-34.4121854304636	5.57403973509934				0.197827814569536	-0.241271523178808	-0.93594701986755	6.72741721854305	53.9064900662252	-15.0402649006623				0.944529801324503	0.175470198675497	-0.757721854304636	16.4829139072848	48.6235761589404	-0.0556291390728476				0.932026490066225	0.323496688741722	0.645933774834437	2.7517880794702	-5.26807947019868	-7.89748344370861				1.0077880794702	-0.558834437086093	-0.548238410596027	-33.8596026490066	55.3176158940397	-24.834701986755			
79	1580	0.055841059602649	0.418754966887417	-0.919523178807947	28.3133774834437	82.4553642384106	23.4550993377483				0.864953642384106	0.0637880794701987	0.829139072847682	20.3139072847682	-9.49218543046358	3.05403973509934				0.165827814569536	-0.193271523178808	-0.90394701986755	12.887417218543	60.6264900662252	-14.7602649006622				0.848529801324503	0.127470198675497	-0.757721854304636	8.92291390728477	42.1835761589404	-2.29562913907285				0.900026490066225	0.339496688741722	0.629933774834437	8.9117880794702	3.13192052980133	-8.45748344370861				0.927788079470199	-0.462834437086093	-0.548238410596027	-37.7796026490066	49.7176158940397	-18.674701986755			
80	1600	0.055841059602649	0.322754966887417	-0.951523178807947	36.1533774834437	85.5353642384106	26.5350993377483				0.864953642384106	-0.000211920529801304	0.781139072847682	30.6739072847682	-17.0521854304636	1.93403973509934				0.581827814569536	-0.225271523178808	-0.98394701986755	0.847417218543046	62.8664900662252	-12.2402649006623				0.832529801324503	0.127470198675497	-0.725721854304636	2.76291390728477	34.9035761589404	-0.615629139072848				0.900026490066225	0.259496688741722	0.629933774834437	13.6717880794702	4.81192052980133	-6.21748344370861				0.895788079470199	-0.430834437086093	-0.548238410596027	-40.0196026490066	51.6776158940397	-19.514701986755			
81	1620	0.023841059602649	0.370754966887417	-0.919523178807947	30.2733774834437	79.6553642384106	25.9750993377483				0.864953642384106	0.0477880794701987	0.701139072847682	24.2339072847682	-26.2921854304636	-3.38596026490066				-0.138172185430464	-0.225271523178808	-1.04794701986755	-0.552582781456954	49.7064900662252	-8.32026490066225				0.864529801324503	0.159470198675497	-0.645721854304636	0.802913907284768	31.2635761589404	2.74437086092715				0.900026490066225	0.211496688741722	0.629933774834437	6.1117880794702	-1.06807947019868	-5.93748344370861				0.911788079470199	-0.414834437086093	-0.548238410596027	-26.2996026490066	51.3976158940397	-22.874701986755			
82	1640	0.039841059602649	0.402754966887417	-0.871523178807947	40.0733774834437	81.3353642384106	25.9750993377483				0.912953642384106	0.0317880794701987	0.813139072847682	12.7539072847682	-20.9721854304636	-3.10596026490066				0.309827814569536	-0.209271523178808	-0.90394701986755	19.607417218543	29.2664900662252	-9.16026490066225				0.752529801324503	0.143470198675497	-0.597721854304636	-0.317086092715232	25.3835761589404	5.26437086092715				0.836026490066225	0.227496688741722	0.613933774834437	1.0717880794702	-8.90807947019868	-6.49748344370861				0.863788079470199	-0.414834437086093	-0.532238410596027	-20.4196026490066	44.9576158940397	-26.514701986755			
83	1660	0.087841059602649	0.306754966887417	-0.903523178807947	47.3533774834437	86.6553642384106	27.0950993377483				0.896953642384106	0.0797880794701987	0.749139072847682	-4.88609271523179	-19.0121854304636	-5.06596026490066				0.613827814569536	-0.177271523178808	-0.77594701986755	10.367417218543	75.7464900662252	-10.2802649006622				0.688529801324503	0.127470198675497	-0.645721854304636	9.20291390728477	24.2635761589404	4.14437086092715				0.836026490066225	0.243496688741722	0.581933774834437	2.1917880794702	-8.06807947019868	-7.89748344370861				0.847788079470199	-0.398834437086093	-0.532238410596027	-30.7796026490066	40.4776158940397	-23.434701986755			
84	1680	0.215841059602649	0.258754966887417	-0.903523178807947	45.9533774834437	90.0153642384106	27.3750993377483				0.848953642384106	0.111788079470199	0.733139072847682	-0.406092715231788	-10.0521854304636	-14.0259602649007				0.245827814569536	-0.225271523178808	-0.90394701986755	-5.87258278145695	77.9864900662252	-4.12026490066225				0.736529801324503	0.127470198675497	-0.645721854304636	21.5229139072848	32.1035761589404	4.42437086092715				0.852026490066225	0.275496688741722	0.581933774834437	-5.6482119205298	-0.788079470198675	-10.1374834437086				0.895788079470199	-0.414834437086093	-0.500238410596026	-41.9796026490066	45.5176158940397	-21.474701986755			
85	1700	0.215841059602649	0.274754966887417	-0.951523178807947	47.0733774834437	91.1353642384106	27.6550993377483				0.832953642384106	0.0957880794701987	0.605139072847682	18.3539072847682	-15.9321854304636	-20.7459602649007				0.245827814569536	-0.0972715231788079	-0.82394701986755	-6.43258278145695	83.3064900662252	-1.60026490066225				0.848529801324503	0.111470198675497	-0.629721854304636	22.6429139072848	36.3035761589404	4.98437086092715				0.836026490066225	0.275496688741722	0.565933774834437	-9.5682119205298	-8.06807947019868	-10.1374834437086				0.911788079470199	-0.382834437086093	-0.500238410596026	-35.8196026490066	39.6376158940397	-24.554701986755			
86	1720	0.247841059602649	0.226754966887417	-0.839523178807947	51.2733774834437	94.4953642384106	27.6550993377483				0.736953642384106	0.0477880794701987	0.701139072847682	13.5939072847682	-6.69218543046358	-19.0659602649007				0.245827814569536	-0.177271523178808	-0.77594701986755	-10.912582781457	87.7864900662252	1.47973509933775				0.896529801324503	0.159470198675497	-0.581721854304636	23.4829139072848	34.6235761589404	1.62437086092715				0.836026490066225	0.323496688741722	0.549933774834437	-12.3682119205298	-13.6680794701987	-9.29748344370861				0.911788079470199	-0.334834437086093	-0.532238410596027	-33.2996026490066	30.3976158940397	-20.354701986755			
87	1740	0.311841059602649	0.178754966887417	-0.743523178807947	61.6333774834437	95.8953642384106	26.5350993377483				0.864953642384106	-0.0322119205298013	0.861139072847682	-2.92609271523179	10.1078145695364	-3.94596026490066				0.341827814569536	-0.225271523178808	-0.77594701986755	-11.192582781457	90.0264900662252	5.39973509933775				0.848529801324503	0.175470198675497	-0.533721854304636	23.4829139072848	36.3035761589404	-0.335629139072848				0.804026490066225	0.307496688741722	0.597933774834437	-6.7682119205298	-13.6680794701987	-7.33748344370861				0.895788079470199	-0.382834437086093	-0.580238410596026	-26.2996026490066	20.8776158940397	-5.79470198675497			
88	1760	0.375841059602649	0.130754966887417	-0.759523178807947	57.9933774834437	102.335364238411	25.6950993377483				0.864953642384106	0.0157880794701987	0.861139072847682	-13.0060927152318	-9.21218543046358	-5.06596026490066				0.469827814569536	-0.273271523178808	-0.74394701986755	-16.512582781457	96.1864900662252	2.03973509933775				0.816529801324503	0.159470198675497	-0.501721854304636	21.8029139072848	33.2235761589404	-2.01562913907285				0.836026490066225	0.211496688741722	0.693933774834437	-5.6482119205298	-12.8280794701987	-3.97748344370861				0.959788079470199	-0.446834437086093	-0.532238410596027	-25.7396026490066	11.6376158940397	6.80529801324503			
89	1780	0.487841059602649	0.0347549668874172	-0.839523178807947	51.8333774834437	109.055364238411	24.5750993377483				0.832953642384106	-0.000211920529801304	0.781139072847682	-8.52609271523179	-14.2521854304636	-3.94596026490066				0.485827814569536	-0.225271523178808	-0.74394701986755	-17.072582781457	102.626490066225	-6.92026490066225				0.832529801324503	0.191470198675497	-0.485721854304636	27.4029139072848	33.2235761589404	-0.615629139072848				0.820026490066225	0.259496688741722	0.709933774834437	-24.9682119205298	-12.8280794701987	-3.41748344370861				1.0237880794702	-0.446834437086093	-0.516238410596026	-31.8996026490066	2.11761589403974	12.965298013245			
90	1800	0.631841059602649	-0.0132450331125828	-0.855523178807947	45.9533774834437	112.135364238411	24.5750993377483				0.784953642384106	0.0477880794701987	0.749139072847682	-3.48609271523179	-9.77218543046358	-9.82596026490066				0.485827814569536	-0.177271523178808	-0.71194701986755	-9.23258278145695	106.826490066225	-3.28026490066225				0.848529801324503	0.175470198675497	-0.501721854304636	27.4029139072848	25.9435761589404	4.42437086092715				0.820026490066225	0.339496688741722	0.629933774834437	-28.3282119205298	-17.3080794701987	2.18251655629139				1.1357880794702	-0.478834437086093	-0.484238410596026	-16.4996026490066	6.31761589403974	15.205298013245			
91	1820	0.711841059602649	0.0187549668874172	-0.759523178807947	35.3133774834437	114.095364238411	24.5750993377483				0.800953642384106	0.0157880794701987	0.813139072847682	0.433907284768212	-8.65218543046358	-8.14596026490066				0.533827814569536	-0.209271523178808	-0.67994701986755	-7.27258278145696	112.706490066225	-4.68026490066225				0.976529801324503	0.143470198675497	-0.533721854304636	30.7629139072848	22.0235761589404	8.62437086092715				0.852026490066225	0.291496688741722	0.725933774834437	-27.2082119205298	-9.46807947019868	9.74251655629139				1.0877880794702	-0.446834437086093	-0.388238410596026	-2.21960264900662	-20.2823841059603	18.565298013245			
92	1840	0.647841059602649	0.0827549668874172	-0.711523178807947	26.3533774834437	114.375364238411	22.8950993377483				0.896953642384106	-0.0802119205298013	0.957139072847682	-3.48609271523179	7.86781456953642	-12.6259602649007				0.581827814569536	-0.225271523178808	-0.66394701986755	-8.39258278145695	114.946490066225	-5.24026490066225				1.0565298013245	0.143470198675497	-0.533721854304636	26.2829139072848	20.0635761589404	10.5843708609272				0.884026490066225	0.211496688741722	0.821933774834437	-28.0482119205298	-8.62807947019868	10.3025165562914				0.975788079470199	-0.558834437086093	-0.308238410596026	-13.4196026490066	-29.5223841059603	28.365298013245			
93	1860	0.663841059602649	0.0347549668874172	-0.679523178807947	28.5933774834437	113.535364238411	19.5350993377483				0.976953642384106	-0.0482119205298013	0.941139072847682	11.6339072847682	2.54781456953642	-19.9059602649007				0.581827814569536	-0.193271523178808	-0.61594701986755	-6.71258278145695	122.786490066225	-8.88026490066225				1.1365298013245	0.239470198675497	-0.469721854304636	18.1629139072848	16.4235761589404	9.74437086092715				0.852026490066225	0.339496688741722	0.773933774834437	-42.0482119205298	-21.7880794701987	11.1425165562914				0.831788079470199	-0.478834437086093	-0.340238410596026	-44.4996026490066	-7.12238410596027	33.125298013245			
94	1880	0.743841059602649	0.0187549668874172	-0.663523178807947	16.8333774834437	112.135364238411	15.6150993377483				0.800953642384106	0.111788079470199	0.749139072847682	10.7939072847682	-5.57218543046358	-15.9859602649007				0.709827814569536	-0.145271523178808	-0.55194701986755	-10.072582781457	132.026490066225	-9.44026490066225				1.1525298013245	0.223470198675497	-0.341721854304636	10.8829139072848	8.0235761589404	12.2643708609272				0.724026490066225	0.371496688741722	0.661933774834437	-28.0482119205298	-25.7080794701987	15.3425165562914				0.799788079470199	-0.270834437086093	-0.388238410596026	-41.4196026490066	4.91761589403974	29.205298013245			
95	1900	0.807841059602649	0.00275496688741723	-0.647523178807947	15.4333774834437	112.695364238411	10.5750993377483				0.704953642384106	0.0797880794701987	0.701139072847682	-3.48609271523179	-7.53218543046358	-5.06596026490066				0.725827814569536	-0.145271523178808	-0.53594701986755	-5.59258278145695	129.786490066225	-11.9602649006623				1.1525298013245	0.239470198675497	-0.325721854304636	13.9629139072848	-2.0564238410596	19.5443708609272				0.756026490066225	0.387496688741722	0.709933774834437	-22.4482119205298	-15.0680794701987	13.9425165562914				0.767788079470199	-0.238834437086093	-0.468238410596026	-21.5396026490066	13.0376158940397	20.805298013245			
96	1920	0.903841059602649	0.0187549668874172	-0.519523178807947	13.4733774834437	118.855364238411	3.29509933774834				0.640953642384106	0.143788079470199	0.829139072847682	-11.0460927152318	-6.41218543046358	-2.54596026490066				0.789827814569536	-0.161271523178808	-0.55194701986755	8.40741721854305	130.906490066225	-8.60026490066225				1.0565298013245	0.207470198675497	-0.309721854304636	23.4829139072848	-9.0564238410596	21.7843708609272				0.740026490066225	0.275496688741722	0.645933774834437	-6.4882119205298	-32.7080794701987	18.9825165562914				0.799788079470199	-0.334834437086093	-0.356238410596026	-3.61960264900662	23.9576158940397	13.805298013245			
97	1940	0.871841059602649	0.0827549668874172	-0.519523178807947	10.9533774834437	121.095364238411	-2.58490066225166				0.656953642384106	0.0637880794701987	0.733139072847682	9.11390728476821	-3.33218543046358	3.61403973509934				0.805827814569536	-0.209271523178808	-0.50394701986755	29.1274172185431	142.946490066225	-10.5602649006623				0.864529801324503	0.175470198675497	-0.277721854304636	16.7629139072848	-4.8564238410596	12.8243708609272				0	0	0	0	0	0				0	0	0	0	0	0			
98	1960	0.807841059602649	0.0827549668874172	-0.423523178807947	13.7533774834437	123.335364238411	-7.90490066225166				0.672953642384106	-0.0322119205298013	0.717139072847682	11.0739072847682	-8.09218543046358	10.0540397350993				1.09382781456954	-0.209271523178808	-0.53594701986755	43.1274172185431	142.946490066225	-13.0802649006623				0	0	0	0	0	0				0	0	0	0	0	0				0.719788079470199	-0.462834437086093	-0.308238410596026	12.3403973509934	-1.80238410596026	10.445298013245			
99	1980	0.791841059602649	0.0667549668874172	-0.375523178807947	22.1533774834437	125.855364238411	-16.8649006622517				0.576953642384106	0.0477880794701987	0.685139072847682	9.11390728476821	-20.9721854304636	9.77403973509934				0.821827814569536	-0.241271523178808	-0.45594701986755	43.4074172185431	136.506490066225	-17.5602649006623				0.672529801324503	0.191470198675497	-0.133721854304636	37.7629139072848	24.8235761589404	4.98437086092715				0.612026490066225	0.163496688741722	0.629933774834437	-10.1282119205298	-20.6680794701987	13.9425165562914				0.735788079470199	-0.494834437086093	-0.228238410596026	-3.61960264900662	-13.0023841059603	17.165298013245			
100	2000	0.775841059602649	0.0827549668874172	-0.359523178807947	22.9933774834437	125.575364238411	-20.7849006622517				0.496953642384106	0.0797880794701987	0.733139072847682	13.5939072847682	-21.2521854304636	10.0540397350993				0.837827814569536	-0.257271523178808	-0.31194701986755	29.407417218543	140.986490066225	-16.4402649006623				0.768529801324503	0.143470198675497	-0.149721854304636	43.3629139072848	26.7835761589404	14.7843708609272				0.564026490066225	0.163496688741722	0.565933774834437	1.3517880794702	-27.9480794701987	19.2625165562914				0.751788079470199	-0.430834437086093	-0.244238410596026	-20.4196026490066	-18.0423841059603	19.125298013245			
101	2020	0.791841059602649	0.0507549668874172	-0.279523178807947	31.1133774834437	133.135364238411	-23.8649006622517				0.480953642384106	0.0797880794701987	0.717139072847682	28.4339072847682	-22.3721854304636	7.81403973509934				0.837827814569536	-0.241271523178808	-0.23194701986755	23.807417218543	147.146490066225	-19.8002649006623				0.688529801324503	0.191470198675497	-0.245721854304636	51.7629139072848	14.1835761589404	11.9843708609272				0.500026490066225	0.179496688741722	0.597933774834437	-1.4482119205298	-26.2680794701987	21.5025165562914				0.719788079470199	-0.334834437086093	-0.260238410596026	-5.29960264900662	-19.4423841059603	20.245298013245			
102	2040	0.871841059602649	-0.0452450331125828	-0.311523178807947	42.5933774834437	137.615364238411	-25.2649006622517				0.528953642384106	-0.0802119205298013	0.573139072847682	26.7539072847682	-40.0121854304636	12.8540397350993				0.821827814569536	-0.241271523178808	-0.16794701986755	6.16741721854305	135.386490066225	-15.6002649006622				0.640529801324503	0.143470198675497	-0.277721854304636	46.4429139072848	14.1835761589404	8.90437086092715				0.548026490066225	0.0994966887417219	0.629933774834437	-7.8882119205298	-27.6680794701987	22.0625165562914				0.655788079470199	-0.398834437086093	-0.196238410596026	7.30039735099338	-25.3223841059603	22.485298013245			
103	2060	0.839841059602649	-0.157245033112583	-0.311523178807947	29.9933774834437	142.095364238411	-22.1849006622517				0.512953642384106	-0.0482119205298013	0.605139072847682	12.4739072847682	-42.5321854304636	4.45403973509934				0.949827814569536	-0.177271523178808	-0.18394701986755	2.24741721854305	126.146490066225	-15.0402649006623				0.688529801324503	0.0954701986754967	-0.181721854304636	30.2029139072848	15.0235761589404	6.66437086092715				0.564026490066225	0.0514966887417219	0.581933774834437	-2.5682119205298	-35.7880794701987	22.6225165562914				0.655788079470199	-0.494834437086093	-0.132238410596026	1.98039735099338	-38.2023841059603	23.045298013245			
104	2080	0.727841059602649	-0.173245033112583	-0.247523178807947	24.1133774834437	141.255364238411	-10.1449006622517				0.480953642384106	0.0317880794701987	0.685139072847682	6.87390728476821	-34.6921854304636	-1.98596026490066				0.965827814569536	-0.145271523178808	-0.15194701986755	-5.03258278145695	119.986490066225	-13.3602649006623				0.688529801324503	0.0314701986754967	-0.197721854304636	43.6429139072848	10.8235761589404	11.9843708609272				0.484026490066225	0.115496688741722	0.517933774834437	-2.0082119205298	-47.5480794701987	24.8625165562914				0.687788079470199	-0.446834437086093	-0.116238410596026	-14.5396026490066	-41.5623841059603	21.645298013245			
105	2100	0.759841059602649	-0.221245033112583	-0.327523178807947	17.9533774834437	146.855364238411	-3.14490066225166				0.384953642384106	0.0317880794701987	0.717139072847682	11.3539072847682	-39.4521854304636	6.97403973509934				0.837827814569536	-0.193271523178808	-0.13594701986755	-14.832582781457	108.226490066225	-14.4802649006623				0.656529801324503	-0.0325298013245033	-0.277721854304636	38.6029139072848	2.1435761589404	20.3843708609272				0.468026490066225	0.179496688741722	0.485933774834437	-12.0882119205298	-38.5880794701987	20.9425165562914				0.559788079470199	-0.382834437086093	-0.196238410596026	-22.0996026490066	-34.0023841059603	27.525298013245			
106	2120	0.791841059602649	-0.157245033112583	-0.215523178807947	8.15337748344371	146.015364238411	3.01509933774834				0.416953642384106	-0.0962119205298013	0.621139072847682	6.87390728476821	-54.2921854304636	16.2140397350993				0.805827814569536	-0.241271523178808	-0.0879470198675496	-26.312582781457	103.746490066225	-17.5602649006623				0.608529801324503	0.0154701986754967	-0.245721854304636	16.2029139072848	-7.9364238410596	25.4243708609272				0.516026490066225	0.0674966887417219	0.501933774834437	-5.3682119205298	-35.2280794701987	25.7025165562914				0.559788079470199	-0.398834437086093	-0.228238410596026	-5.01960264900662	-33.4423841059603	32.565298013245			
107	2140	0.759841059602649	0.00275496688741723	-0.135523178807947	14.3133774834437	140.415364238411	0.775099337748344				0.432953642384106	0.0157880794701987	0.541139072847682	0.153907284768212	-59.8921854304636	13.9740397350993				1.09382781456954	-0.209271523178808	-0.0879470198675496	-26.872582781457	96.1864900662252	-16.4402649006623				0.592529801324503	0.0314701986754967	-0.213721854304636	8.08291390728477	-16.8964238410596	29.3443708609272				0.532026490066225	-0.0605033112582781	0.501933774834437	-12.0882119205298	-41.9480794701987	25.1425165562914				0.591788079470199	-0.430834437086093	-0.244238410596026	-17.8996026490066	-48.2823841059603	42.085298013245			
108	2160	0.759841059602649	0.146754966887417	-0.055523178807947	4.51337748344371	136.215364238411	-3.14490066225166				0.512953642384106	-0.128211920529801	0.509139072847682	-4.32609271523179	-66.0521854304636	16.2140397350993				0.869827814569536	-0.177271523178808	-0.0399470198675496	-24.072582781457	88.0664900662252	-18.1202649006623				0.608529801324503	-0.0165298013245033	-0.229721854304636	11.7229139072848	-23.3364238410596	31.0243708609272				0.516026490066225	-0.0125033112582781	0.469933774834437	-31.4082119205298	-52.3080794701987	22.3425165562914				0.607788079470199	-0.430834437086093	-0.196238410596026	-10.0596026490066	-53.6023841059603	35.925298013245			
109	2180	0.791841059602649	0.162754966887417	-0.00752317880794696	3.39337748344371	115.495364238411	-7.62490066225166				0.512953642384106	-0.112211920529801	0.509139072847682	-23.3660927152318	-66.0521854304636	10.6140397350993				0.869827814569536	-0.177271523178808	-0.0399470198675496	-15.392582781457	73.2264900662252	-18.4002649006623				0.608529801324503	-0.0485298013245033	-0.309721854304636	12.2829139072848	-33.9764238410596	31.5843708609272				0.564026490066225	0.0354966887417219	0.373933774834437	-33.3682119205298	-49.7880794701987	20.9425165562914				0.559788079470199	-0.398834437086093	-0.164238410596026	-25.7396026490066	-51.9223841059603	28.085298013245			
110	2200	0.807841059602649	0.0987549668874172	-0.00752317880794696	8.99337748344371	105.695364238411	-8.74490066225166				0.496953642384106	-0.0162119205298013	0.541139072847682	-41.0060927152318	-54.5721854304636	6.13403973509934				0.773827814569536	-0.225271523178808	-0.0239470198675496	-4.47258278145695	57.2664900662252	-16.4402649006623				0.640529801324503	-0.0805298013245033	-0.341721854304636	5.28291390728477	-38.1764238410596	38.0243708609272				0.564026490066225	0.0834966887417219	0.389933774834437	-31.9682119205298	-43.0680794701987	18.9825165562914				0.495788079470199	-0.382834437086093	-0.228238410596026	-36.6596026490066	-49.6823841059603	32.565298013245			
111	2220	0.887841059602649	0.0507549668874172	0.024476821192053	6.47337748344371	95.3353642384106	-4.82490066225166				0.432953642384106	-0.000211920529801304	0.621139072847682	-38.2060927152318	-34.9721854304636	8.93403973509934				0.693827814569536	-0.305271523178808	-0.0559470198675496	-8.11258278145695	44.3864900662252	-8.32026490066225				0.656529801324503	-0.160529801324503	-0.293721854304636	-3.95708609271523	-37.8964238410596	48.1043708609272				0.516026490066225	0.0354966887417219	0.421933774834437	-29.1682119205298	-46.4280794701987	18.7025165562914				0.463788079470199	-0.318834437086093	-0.276238410596026	-45.0596026490066	-50.2423841059603	39.285298013245			
112	2240	0.951841059602649	0.0827549668874172	0.024476821192053	8.15337748344371	88.6153642384106	-4.26490066225166				0.480953642384106	0.0957880794701987	0.541139072847682	-24.4860927152318	-36.3721854304636	6.69403973509934				0.773827814569536	-0.305271523178808	-0.0399470198675496	-27.152582781457	28.7064900662252	3.71973509933775				0.624529801324503	-0.112529801324503	-0.293721854304636	-19.6370860927152	-38.7364238410596	47.8243708609272				0.596026490066225	0.0354966887417219	0.341933774834437	-33.6482119205298	-42.7880794701987	15.9025165562914				0.383788079470199	-0.206834437086093	-0.292238410596026	-38.3396026490066	-48.5623841059603	35.925298013245			
113	2260	0.935841059602649	0.114754966887417	-0.071523178807947	3.39337748344371	56.9753642384106	-1.46490066225166				0.608953642384106	0.0157880794701987	0.477139072847682	-20.2860927152318	-38.6121854304636	10.8940397350993				0.965827814569536	-0.193271523178808	-0.0239470198675496	-44.512582781457	9.94649006622517	11.8397350993378				0.640529801324503	-0.0165298013245033	-0.309721854304636	-24.9570860927152	-35.6564238410596	41.9443708609272				0.644026490066225	0.0514966887417219	0.357933774834437	-34.7682119205298	-31.5880794701987	13.1025165562914				0.399788079470199	-0.238834437086093	-0.324238410596026	-20.9796026490066	-26.1623841059603	16.325298013245			
114	2280	1.11184105960265	0.0347549668874172	-0.071523178807947	-12.0066225165563	39.6153642384106	4.13509933774834				0.672953642384106	-0.0482119205298013	0.589139072847682	-28.9660927152318	-15.6521854304636	7.25403973509934				0.997827814569536	-0.0812715231788079	-0.0239470198675496	-41.432582781457	-3.77350993377483	11.5597350993378				0.656529801324503	-0.000529801324503289	-0.293721854304636	-26.3570860927152	-22.7764238410596	35.5043708609272				0.676026490066225	0.0674966887417219	0.373933774834437	-29.4482119205298	-23.1880794701987	10.8625165562914				0.431788079470199	-0.270834437086093	-0.356238410596026	-11.1796026490066	-2.08238410596027	0.645298013245032			
115	2300	1.23984105960265	0.0347549668874172	-0.183523178807947	-20.9666225165563	19.7353642384106	1.61509933774834				0.704953642384106	0.111788079470199	0.669139072847682	-33.4460927152318	-9.77218543046358	-3.10596026490066				0.965827814569536	-0.0172715231788079	-0.0559470198675496	-31.072582781457	-15.5335099337748	5.11973509933775				0.752529801324503	-0.000529801324503289	-0.309721854304636	-19.0770860927152	-9.3364238410596	29.6243708609272				0.740026490066225	0.0514966887417219	0.405933774834437	-23.8482119205298	-17.5880794701987	9.74251655629139				0.415788079470199	-0.366834437086093	-0.516238410596026	-24.8996026490066	1.55761589403974	2.32529801324503			
116	2320	1.07984105960265	0.0347549668874172	-0.215523178807947	-20.9666225165563	1.2553642384106	1.61509933774834				0.800953642384106	0.0637880794701987	0.685139072847682	-27.5660927152318	-7.53218543046358	-1.14596026490066				0.997827814569536	0.0467284768211921	-0.0399470198675496	-9.23258278145695	-23.9335099337748	-3.84026490066225				0.800529801324503	-0.0325298013245033	-0.437721854304636	6.12291390728477	1.5835761589404	19.8243708609272				0.804026490066225	0.0674966887417219	0.405933774834437	-23.2882119205298	-11.1480794701987	8.62251655629139				0.479788079470199	-0.366834437086093	-0.580238410596026	2.82039735099338	14.7176158940397	0.365298013245032			
117	2340	0.951841059602649	0.00275496688741723	-0.135523178807947	-14.8066225165563	-7.1446357615894	-0.624900662251656				0.944953642384106	-0.0642119205298013	0.621139072847682	-10.2060927152318	-15.0921854304636	6.97403973509934				1.09382781456954	0.0627284768211921	-0.0399470198675496	13.167417218543	-21.1335099337748	-4.96026490066225				0.880529801324503	-0.0485298013245033	-0.437721854304636	13.6829139072848	10.8235761589404	4.70437086092715				0.884026490066225	0.00349668874172187	0.373933774834437	-16.0082119205298	1.45192052980132	5.54251655629139				0.559788079470199	-0.366834437086093	-0.564238410596026	14.8603973509934	28.7176158940397	-3.27470198675497			
118	2360	0.951841059602649	-0.0292450331125828	0.104476821192053	-12.0066225165563	-7.1446357615894	1.05509933774834				0.896953642384106	-0.000211920529801304	0.573139072847682	-4.88609271523179	-16.7721854304636	1.93403973509934				1.01382781456954	-0.0652715231788079	-0.0399470198675496	12.887417218543	-18.3335099337748	-3.56026490066225				0.960529801324503	-0.112529801324503	-0.437721854304636	-4.79708609271523	14.1835761589404	-2.01562913907285				0.900026490066225	0.0194966887417219	0.405933774834437	-7.3282119205298	8.45192052980133	5.26251655629139				0.607788079470199	-0.382834437086093	-0.676238410596026	7.02039735099338	31.5176158940397	-0.194701986754968			
119	2380	0.999841059602649	0.00275496688741723	0.248476821192053	-5.56662251655629	-1.2646357615894	5.25509933774834				0.816953642384106	0.0477880794701987	0.509139072847682	-4.88609271523179	-17.0521854304636	-1.14596026490066				0.869827814569536	-0.113271523178808	-0.0719470198675496	13.727417218543	-12.7335099337748	-2.72026490066225				0.944529801324503	-0.112529801324503	-0.501721854304636	-5.63708609271523	15.3035761589404	-2.85562913907285				0.900026490066225	0.0514966887417219	0.373933774834437	-11.8082119205298	-2.46807947019868	4.98251655629139				0.671788079470199	-0.478834437086093	-0.708238410596026	26.6203973509934	16.9576158940397	2.04529801324503			
120	2400	0.983841059602649	0.00275496688741723	0.136476821192053	0.873377483443709	-1.5446357615894	4.13509933774834				0.896953642384106	0.0157880794701987	0.525139072847682	-0.966092715231788	-13.6921854304636	4.45403973509934				0.853827814569536	-0.193271523178808	-0.0879470198675496	19.0474172185431	-4.89350993377483	0.0797350993377501				0.864529801324503	-0.0645298013245033	-0.565721854304636	5.84291390728477	13.3435761589404	-7.33562913907285				0.980026490066225	0.0674966887417219	0.357933774834437	-9.5682119205298	-5.26807947019868	4.14251655629139				0.735788079470199	-0.478834437086093	-0.644238410596026	33.9003973509934	-4.32238410596027	0.365298013245032			
121	2420	0.951841059602649	-0.0132450331125828	0.072476821192053	-3.88662251655629	-4.3446357615894	3.57509933774835				0.992953642384106	-0.0162119205298013	0.445139072847682	-2.36609271523179	-21.5321854304636	9.49403973509934				0.933827814569536	-0.241271523178808	-0.0559470198675496	15.687417218543	1.54649006622517	1.19973509933775				0.864529801324503	-0.0645298013245033	-0.549721854304636	14.8029139072848	11.3835761589404	-7.33562913907285				0.980026490066225	0.0194966887417219	0.309933774834437	-6.4882119205298	-11.1480794701987	6.94251655629139				0.735788079470199	-0.446834437086093	-0.692238410596026	10.9403973509934	-7.68238410596027	4.56529801324503			
122	2440	0.951841059602649	0.00275496688741723	0.088476821192053	-9.76662251655629	-7.7046357615894	1.61509933774834				0.864953642384106	-0.0322119205298013	0.397139072847682	-0.966092715231788	-23.4921854304636	10.8940397350993				0.933827814569536	-0.289271523178808	-0.0559470198675496	2.52741721854305	0.986490066225167	-0.76026490066225				0.864529801324503	-0.144529801324503	-0.501721854304636	12.5629139072848	4.9435761589404	-3.13562913907285				0.916026490066225	0.00349668874172187	0.309933774834437	1.6317880794702	-7.78807947019868	9.74251655629139				0.639788079470199	-0.430834437086093	-0.756238410596026	-3.33960264900662	-8.80238410596027	10.725298013245			
123	2460	0.983841059602649	0.0347549668874172	0.072476821192053	-2.76662251655629	-6.3046357615894	-1.18490066225166				0.864953642384106	-0.0322119205298013	0.413139072847682	6.87390728476821	-12.8521854304636	10.6140397350993				0.933827814569536	-0.241271523178808	-0.0719470198675496	-5.87258278145695	0.986490066225167	-3.00026490066225				0.832529801324503	-0.192529801324503	-0.469721854304636	9.48291390728477	-5.4164238410596	0.224370860927152				0.884026490066225	0.00349668874172187	0.357933774834437	4.4317880794702	-5.26807947019868	11.4225165562914				0.607788079470199	-0.366834437086093	-0.708238410596026	4.22039735099338	-24.7623841059603	12.685298013245			
124	2480	0.983841059602649	0.0187549668874172	0.00847682119205304	10.6733774834437	-2.1046357615894	-4.26490066225166				0.944953642384106	-0.0482119205298013	0.461139072847682	5.75390728476821	-6.41218543046358	11.7340397350993				0.965827814569536	-0.161271523178808	-0.10394701986755	-7.55258278145695	2.94649006622517	-3.00026490066225				0.816529801324503	-0.176529801324503	-0.469721854304636	11.4429139072848	-5.9764238410596	4.14437086092715				0.916026490066225	-0.0125033112582781	0.325933774834437	4.9917880794702	-3.02807947019868	12.2625165562914				0.559788079470199	-0.366834437086093	-0.628238410596026	5.90039735099338	-24.7623841059603	7.64529801324503			
125	2500	1.03184105960265	0.0187549668874172	-0.023523178807947	12.9133774834437	-5.4646357615894	-2.02490066225166				0.944953642384106	-0.0482119205298013	0.493139072847682	2.39390728476821	-9.49218543046358	12.2940397350993				0.981827814569536	-0.0972715231788079	-0.11994701986755	-4.47258278145695	6.86649006622517	-3.00026490066225				0.832529801324503	-0.160529801324503	-0.469721854304636	13.9629139072848	-2.6164238410596	6.38437086092715				0.932026490066225	-0.0285033112582781	0.325933774834437	8.3517880794702	-0.788079470198675	12.8225165562914				0.543788079470199	-0.382834437086093	-0.596238410596026	5.90039735099338	-20.8423841059603	0.925298013245032			
126	2520	0.999841059602649	0.0187549668874172	-0.119523178807947	1.71337748344371	-10.5046357615894	1.61509933774834				0.880953642384106	-0.0322119205298013	0.429139072847682	0.713907284768212	-13.1321854304636	10.8940397350993				0.933827814569536	-0.0972715231788079	-0.15194701986755	-1.39258278145695	5.18649006622517	-2.44026490066225				0.848529801324503	-0.192529801324503	-0.485721854304636	16.2029139072848	-0.3764238410596	6.66437086092715				0.900026490066225	-0.0445033112582781	0.341933774834437	11.1517880794702	-1.62807947019868	11.4225165562914				0.543788079470199	-0.414834437086093	-0.564238410596026	5.90039735099338	-17.4823841059603	-4.67470198675497			
127	2540	0.935841059602649	0.0347549668874172	-0.087523178807947	-10.3266225165563	-9.94463576158941	3.01509933774834				0.848953642384106	-0.000211920529801304	0.413139072847682	0.433907284768212	-0.812185430463576	8.93403973509934				0.933827814569536	-0.0972715231788079	-0.13594701986755	-0.832582781456954	4.34649006622517	-1.88026490066225				0.848529801324503	-0.208529801324503	-0.485721854304636	16.4829139072848	1.3035761589404	5.54437086092715				0.868026490066225	-0.0445033112582781	0.357933774834437	11.1517880794702	-2.74807947019868	9.46251655629139				0.543788079470199	-0.430834437086093	-0.564238410596026	12.9003973509934	-12.7223841059603	-11.674701986755			
128	2560	0.919841059602649	0.0347549668874172	-0.00752317880794696	-6.68662251655629	-2.6646357615894	0.495099337748344				0.896953642384106	-0.0162119205298013	0.445139072847682	1.83390728476821	1.98781456953642	6.13403973509934				0.965827814569536	-0.0972715231788079	-0.13594701986755	1.96741721854305	4.06649006622517	-2.16026490066225				0.848529801324503	-0.160529801324503	-0.469721854304636	13.4029139072848	-1.2164238410596	1.62437086092715				0.884026490066225	-0.0445033112582781	0.389933774834437	11.1517880794702	-1.34807947019868	7.78251655629139				0.575788079470199	-0.478834437086093	-0.548238410596027	20.4603973509934	-8.24238410596027	-18.394701986755			
129	2580	0.999841059602649	0.0347549668874172	-0.023523178807947	5.63337748344371	2.9353642384106	-1.18490066225166				0.944953642384106	-0.0162119205298013	0.477139072847682	4.07390728476821	-1.93218543046358	5.29403973509934				0.981827814569536	-0.0972715231788079	-0.16794701986755	0.567417218543046	4.62649006622517	-1.88026490066225				0.864529801324503	-0.144529801324503	-0.485721854304636	11.4429139072848	-3.7364238410596	-0.0556291390728476				0.932026490066225	-0.0125033112582781	0.389933774834437	9.4717880794702	-1.34807947019868	5.82251655629139				0.607788079470199	-0.542834437086093	-0.580238410596026	17.1003973509934	-9.64238410596027	-17.274701986755			
130	2600	1.01584105960265	0.0667549668874172	-0.039523178807947	4.79337748344371	0.135364238410596	-2.02490066225166				0.928953642384106	-0.000211920529801304	0.477139072847682	5.19390728476821	-6.97218543046358	5.29403973509934				0.949827814569536	-0.113271523178808	-0.15194701986755	-2.23258278145695	6.30649006622517	-1.88026490066225				0.912529801324503	-0.160529801324503	-0.533721854304636	12.0029139072848	-3.4564238410596	-1.45562913907285				0.964026490066225	-0.0125033112582781	0.357933774834437	9.1917880794702	-2.18807947019868	4.14251655629139				0.639788079470199	-0.558834437086093	-0.596238410596026	8.14039735099338	-10.4823841059603	-10.274701986755			
131	2620	0.983841059602649	0.0507549668874172	0.00847682119205304	1.71337748344371	-3.7846357615894	-0.0649006622516557				0.928953642384106	-0.000211920529801304	0.461139072847682	4.63390728476821	-7.81218543046358	5.01403973509934				0.981827814569536	-0.113271523178808	-0.13594701986755	-5.59258278145695	4.62649006622517	-1.60026490066225				0.880529801324503	-0.176529801324503	-0.549721854304636	9.48291390728477	-4.0164238410596	-3.97562913907285				0.932026490066225	-0.0125033112582781	0.357933774834437	10.0317880794702	-3.02807947019868	3.86251655629139				0.623788079470199	-0.494834437086093	-0.612238410596026	-0.259602649006623	-9.36238410596027	-4.67470198675497			
132	2640	0.951841059602649	0.0507549668874172	0.072476821192053	0.593377483443709	-1.8246357615894	-0.0649006622516557				0.912953642384106	-0.0162119205298013	0.413139072847682	4.07390728476821	-8.65218543046358	3.33403973509934				1.01382781456954	-0.113271523178808	-0.11994701986755	-2.23258278145695	1.82649006622517	-1.04026490066225				0.832529801324503	-0.160529801324503	-0.517721854304636	4.72291390728477	-8.4964238410596	-5.93562913907285				0.916026490066225	-0.0285033112582781	0.341933774834437	11.4317880794702	-3.86807947019868	3.30251655629139				0.607788079470199	-0.430834437086093	-0.580238410596026	5.62039735099338	-7.68238410596027	-5.23470198675497			
133	2660	0.983841059602649	0.0667549668874172	0.088476821192053	3.67337748344371	4.0553642384106	-0.904900662251656				0.880953642384106	0.0157880794701987	0.429139072847682	6.59390728476821	-6.41218543046358	2.21403973509934				0.981827814569536	-0.0972715231788079	-0.11994701986755	3.08741721854305	-1.53350993377483	-1.32026490066225				0.800529801324503	-0.144529801324503	-0.485721854304636	-1.71708609271523	-10.7364238410596	-6.49562913907285				0.900026490066225	0.00349668874172187	0.373933774834437	9.7517880794702	-5.54807947019868	2.74251655629139				0.591788079470199	-0.414834437086093	-0.580238410596026	8.98039735099338	-6.28238410596027	-9.99470198675497			
134	2680	0.999841059602649	0.0507549668874172	0.024476821192053	7.03337748344371	4.0553642384106	-2.58490066225166				0.880953642384106	0.0317880794701987	0.477139072847682	12.7539072847682	-5.01218543046358	3.33403973509934				0.965827814569536	-0.0972715231788079	-0.13594701986755	5.32741721854305	-3.21350993377483	-1.88026490066225				0.784529801324503	-0.144529801324503	-0.485721854304636	0.522913907284768	-8.7764238410596	-6.21562913907285				0.900026490066225	0.0194966887417219	0.325933774834437	10.3117880794702	-6.10807947019868	2.46251655629139				0.591788079470199	-0.446834437086093	-0.596238410596026	12.6203973509934	-7.40238410596027	-12.234701986755			
135	2700	0.999841059602649	0.0507549668874172	-0.039523178807947	6.75337748344371	-2.9446357615894	-1.18490066225166				0.864953642384106	0.0157880794701987	0.477139072847682	15.8339072847682	-2.21218543046358	3.89403973509934				0.965827814569536	-0.0972715231788079	-0.13594701986755	8.68741721854305	-3.77350993377483	-1.32026490066225				0.784529801324503	-0.160529801324503	-0.501721854304636	6.40291390728477	-4.0164238410596	-5.09562913907285				0.884026490066225	0.0194966887417219	0.325933774834437	10.5917880794702	-4.42807947019868	2.18251655629139				0.575788079470199	-0.462834437086093	-0.596238410596026	8.14039735099338	-6.84238410596027	-9.43470198675497			
136	2720	0.983841059602649	0.0187549668874172	-0.039523178807947	5.91337748344371	-9.66463576158941	0.775099337748344				0.896953642384106	-0.0162119205298013	0.493139072847682	13.3139072847682	0.0278145695364242	4.45403973509934				0.981827814569536	-0.113271523178808	-0.11994701986755	14.007417218543	-4.05350993377483	-1.04026490066225				0.768529801324503	-0.160529801324503	-0.517721854304636	6.68291390728477	0.4635761589404	-3.13562913907285				0.868026490066225	0.00349668874172187	0.325933774834437	11.1517880794702	-2.74807947019868	0.782516556291392				0.591788079470199	-0.446834437086093	-0.596238410596026	2.54039735099338	-6.28238410596027	-4.39470198675497			
137	2740	0.935841059602649	0.00275496688741723	0.00847682119205304	6.75337748344371	-8.54463576158941	1.61509933774834				0.880953642384106	-0.0482119205298013	0.461139072847682	9.11390728476821	-0.812185430463576	3.61403973509934				0.965827814569536	-0.129271523178808	-0.0879470198675496	14.007417218543	-4.33350993377483	-0.76026490066225				0.768529801324503	-0.144529801324503	-0.501721854304636	5.28291390728477	-1.2164238410596	-2.57562913907285				0.884026490066225	-0.0125033112582781	0.357933774834437	9.7517880794702	0.0519205298013249	0.222516556291392				0.591788079470199	-0.430834437086093	-0.564238410596026	-0.259602649006623	-6.28238410596027	-2.43470198675497			
138	2760	0.935841059602649	0.00275496688741723	0.088476821192053	9.55337748344371	0.415364238410596	0.215099337748344				0.896953642384106	-0.0642119205298013	0.445139072847682	5.19390728476821	-0.252185430463576	2.49403973509934				0.965827814569536	-0.161271523178808	-0.0879470198675496	11.207417218543	-6.57350993377483	-1.04026490066225				0.816529801324503	-0.144529801324503	-0.517721854304636	3.88291390728477	-2.6164238410596	-4.53562913907285				0.916026490066225	-0.0285033112582781	0.373933774834437	7.7917880794702	1.73192052980133	-0.617483443708608				0.623788079470199	-0.446834437086093	-0.564238410596026	1.98039735099338	-4.88238410596027	-4.67470198675497			
139	2780	0.983841059602649	0.00275496688741723	0.088476821192053	9.27337748344371	6.5753642384106	-0.0649006622516557				0.928953642384106	-0.0482119205298013	0.445139072847682	5.19390728476821	0.307814569536424	3.05403973509934				0.997827814569536	-0.177271523178808	-0.0879470198675496	8.96741721854305	-6.85350993377483	-0.76026490066225				0.848529801324503	-0.144529801324503	-0.517721854304636	5.56291390728477	-2.8964238410596	-4.25562913907285				0.932026490066225	-0.0125033112582781	0.341933774834437	5.8317880794702	0.0519205298013249	-0.617483443708608				0.655788079470199	-0.478834437086093	-0.580238410596026	5.90039735099338	-2.64238410596027	-8.31470198675497			
140	2800	0.983841059602649	0.0187549668874172	0.00847682119205304	3.95337748344371	2.3753642384106	-0.904900662251656				0.912953642384106	-0.0322119205298013	0.461139072847682	7.15390728476821	0.0278145695364242	3.61403973509934				0.981827814569536	-0.161271523178808	-0.0879470198675496	8.68741721854305	-6.01350993377483	0.35973509933775				0.832529801324503	-0.160529801324503	-0.501721854304636	0.522913907284768	-5.6964238410596	-3.97562913907285				0.916026490066225	-0.0125033112582781	0.341933774834437	5.8317880794702	-1.34807947019868	0.502516556291392				0.655788079470199	-0.478834437086093	-0.596238410596026	5.62039735099338	-1.80238410596026	-7.47470198675497			
141	2820	0.999841059602649	0.0187549668874172	-0.071523178807947	-1.64662251655629	-5.7446357615894	-0.344900662251656				0.896953642384106	-0.0322119205298013	0.477139072847682	6.59390728476821	-1.37218543046358	3.05403973509934				0.965827814569536	-0.145271523178808	-0.0719470198675496	8.12741721854305	-6.29350993377483	-0.76026490066225				0.784529801324503	-0.112529801324503	-0.485721854304636	-8.15708609271523	-8.2164238410596	-3.97562913907285				0.900026490066225	0.00349668874172187	0.357933774834437	5.2717880794702	-0.788079470198675	1.62251655629139				0.607788079470199	-0.462834437086093	-0.596238410596026	2.82039735099338	-1.52238410596026	-5.23470198675497			
142	2840	0.983841059602649	0.0187549668874172	-0.103523178807947	-3.04662251655629	-11.3446357615894	0.775099337748344				0.896953642384106	-0.000211920529801304	0.445139072847682	4.63390728476821	1.42781456953642	1.65403973509934				0.933827814569536	-0.145271523178808	-0.0719470198675496	8.96741721854305	-5.17350993377483	0.35973509933775				0.784529801324503	-0.0805298013245033	-0.453721854304636	-7.03708609271523	-5.6964238410596	-3.13562913907285				0.900026490066225	0.0354966887417219	0.341933774834437	5.8317880794702	-0.508079470198675	2.18251655629139				0.591788079470199	-0.430834437086093	-0.596238410596026	1.98039735099338	-0.962384105960265	-3.55470198675497			
143	2860	0.935841059602649	0.00275496688741723	-0.039523178807947	4.23337748344371	-8.26463576158941	1.05509933774834				0.928953642384106	-0.0322119205298013	0.445139072847682	4.07390728476821	1.70781456953642	2.49403973509934				0.949827814569536	-0.145271523178808	-0.0879470198675496	9.24741721854305	-3.77350993377483	0.91973509933775				0.784529801324503	-0.0965298013245033	-0.469721854304636	3.32291390728477	-0.0964238410596001	-1.73562913907285				0.916026490066225	0.00349668874172187	0.373933774834437	7.5117880794702	2.29192052980133	1.62251655629139				0.623788079470199	-0.430834437086093	-0.596238410596026	6.18039735099338	-0.962384105960265	-4.11470198675497			
144	2880	0.951841059602649	0.00275496688741723	0.024476821192053	7.59337748344371	2.0953642384106	0.215099337748344				0.944953642384106	-0.0642119205298013	0.429139072847682	2.39390728476821	-0.252185430463576	4.17403973509934				0.965827814569536	-0.161271523178808	-0.10394701986755	8.12741721854305	-1.81350993377483	1.47973509933775				0.816529801324503	-0.128529801324503	-0.501721854304636	10.0429139072848	5.2235761589404	-2.85562913907285				0.948026490066225	-0.0285033112582781	0.357933774834437	6.1117880794702	1.45192052980132	2.74251655629139				0.655788079470199	-0.478834437086093	-0.612238410596026	5.90039735099338	-2.36238410596027	-5.51470198675497			
145	2900	0.983841059602649	0.00275496688741723	0.056476821192053	3.39337748344371	5.1753642384106	-0.904900662251656				0.928953642384106	-0.0642119205298013	0.461139072847682	0.713907284768212	-2.21218543046358	4.45403973509934				0.949827814569536	-0.177271523178808	-0.11994701986755	4.20741721854305	-0.133509933774833	1.75973509933775				0.816529801324503	-0.128529801324503	-0.501721854304636	8.36291390728477	7.7435761589404	-3.13562913907285				0.948026490066225	-0.0125033112582781	0.373933774834437	3.3117880794702	2.01192052980133	2.74251655629139				0.671788079470199	-0.478834437086093	-0.628238410596026	4.50039735099338	-3.76238410596027	-6.63470198675497			
146	2920	1.01584105960265	0.0187549668874172	-0.00752317880794696	-3.32662251655629	-0.144635761589404	-0.624900662251656				0.912953642384106	-0.0322119205298013	0.461139072847682	0.713907284768212	-3.61218543046358	3.89403973509934				0.933827814569536	-0.161271523178808	-0.10394701986755	1.40741721854305	2.10649006622517	1.19973509933775				0	0	0	0	0	0				0.932026490066225	0.00349668874172187	0.341933774834437	3.3117880794702	-1.62807947019868	4.42251655629139				0.623788079470199	-0.462834437086093	-0.628238410596026	3.38039735099338	-6.00238410596027	-5.23470198675497			
147	2940	0.983841059602649	0.0347549668874172	-0.055523178807947	-0.526622516556291	-5.7446357615894	-1.46490066225166				0	0	0	0	0	0				0	0	0	0	0	0				0.832529801324503	-0.144529801324503	-0.517721854304636	10.3229139072848	2.9835761589404	-2.29562913907285				0.884026490066225	0.00349668874172187	0.357933774834437	3.8717880794702	-0.228079470198675	4.98251655629139				0.607788079470199	-0.446834437086093	-0.644238410596026	7.02039735099338	-6.84238410596027	-4.95470198675497			
148	2960	0	0	0	0	0	0				0.912953642384106	-0.0482119205298013	0.445139072847682	0.713907284768212	-0.252185430463576	3.89403973509934				0.949827814569536	-0.145271523178808	-0.10394701986755	3.64741721854305	4.34649006622517	1.75973509933775				0.816529801324503	-0.160529801324503	-0.517721854304636	7.80291390728477	-0.6564238410596	-0.0556291390728476				0.916026490066225	-0.0285033112582781	0.357933774834437	4.4317880794702	-0.228079470198675	5.54251655629139				0.591788079470199	-0.462834437086093	-0.628238410596026	10.1003973509934	-9.92238410596027	-4.11470198675497			
149	2980	0.919841059602649	-0.0132450331125828	0.00847682119205304	8.99337748344371	-0.144635761589404	-0.0649006622516557				0.912953642384106	-0.0642119205298013	0.461139072847682	0.433907284768212	-0.812185430463576	3.89403973509934				0.965827814569536	-0.161271523178808	-0.10394701986755	4.48741721854305	2.94649006622517	2.03973509933775				0.816529801324503	-0.176529801324503	-0.485721854304636	2.48291390728477	-1.7764238410596	1.06437086092715				0.916026490066225	-0.0445033112582781	0.357933774834437	4.9917880794702	-0.228079470198675	6.66251655629139				0.591788079470199	-0.478834437086093	-0.612238410596026	9.54039735099338	-11.8823841059603	-3.83470198675497			
150	3000	0.983841059602649	-0.0132450331125828	0.088476821192053	3.95337748344371	6.8553642384106	-0.344900662251656				0.912953642384106	-0.0482119205298013	0.445139072847682	0.153907284768212	-1.93218543046358	3.61403973509934				0.949827814569536	-0.161271523178808	-0.13594701986755	2.52741721854305	2.10649006622517	2.59973509933775				0.816529801324503	-0.160529801324503	-0.469721854304636	1.92291390728477	0.4635761589404	0.784370860927152				0.916026490066225	-0.0445033112582781	0.373933774834437	5.5517880794702	1.73192052980133	6.10251655629139				0.591788079470199	-0.494834437086093	-0.580238410596026	6.18039735099338	-11.8823841059603	-2.43470198675497			
151	3020	0.999841059602649	0.00275496688741723	0.040476821192053	4.79337748344371	4.6153642384106	-1.46490066225166				0.896953642384106	-0.0482119205298013	0.461139072847682	0.713907284768212	-2.21218543046358	3.05403973509934				0.965827814569536	-0.145271523178808	-0.13594701986755	1.96741721854305	0.986490066225167	1.47973509933775				0.816529801324503	-0.144529801324503	-0.485721854304636	6.40291390728477	4.3835761589404	1.90437086092715				0.900026490066225	-0.0285033112582781	0.357933774834437	4.9917880794702	0.611920529801325	5.54251655629139				0.575788079470199	-0.494834437086093	-0.580238410596026	2.82039735099338	-9.64238410596027	-0.194701986754968			
152	3040	0.999841059602649	0.00275496688741723	-0.039523178807947	5.35337748344371	-2.1046357615894	-1.74490066225166				0.912953642384106	-0.0482119205298013	0.461139072847682	3.23390728476821	-2.49218543046358	4.45403973509934				0.965827814569536	-0.145271523178808	-0.11994701986755	4.20741721854305	1.82649006622517	0.0797350993377501				0.816529801324503	-0.160529801324503	-0.469721854304636	8.08291390728477	5.5035761589404	2.46437086092715				0.900026490066225	-0.0445033112582781	0.373933774834437	5.2717880794702	0.331920529801325	4.42251655629139				0.591788079470199	-0.494834437086093	-0.580238410596026	1.70039735099338	-7.12238410596027	-0.474701986754968			
153	3060	0.967841059602649	0.00275496688741723	-0.071523178807947	1.15337748344371	-4.6246357615894	-2.02490066225166				0.896953642384106	-0.0322119205298013	0.461139072847682	3.23390728476821	-0.532185430463576	4.17403973509934				0.965827814569536	-0.145271523178808	-0.10394701986755	4.76741721854305	1.82649006622517	-0.76026490066225				0.832529801324503	-0.160529801324503	-0.485721854304636	7.80291390728477	3.2635761589404	2.74437086092715				0.884026490066225	-0.0445033112582781	0.373933774834437	3.3117880794702	-0.228079470198675	4.42251655629139				0.591788079470199	-0.494834437086093	-0.580238410596026	3.94039735099338	-7.40238410596027	-0.754701986754968			
154	3080	0.935841059602649	-0.0132450331125828	-0.039523178807947	1.99337748344371	-3.5046357615894	-1.46490066225166				0.896953642384106	-0.0642119205298013	0.461139072847682	1.27390728476821	0.307814569536424	2.77403973509934				0.949827814569536	-0.145271523178808	-0.10394701986755	5.32741721854305	0.986490066225167	-1.04026490066225				0.848529801324503	-0.160529801324503	-0.485721854304636	5.28291390728477	1.0235761589404	2.46437086092715				0.884026490066225	-0.0285033112582781	0.373933774834437	3.0317880794702	0.611920529801325	4.42251655629139				0.575788079470199	-0.478834437086093	-0.580238410596026	6.46039735099338	-6.56238410596027	0.365298013245032			
155	3100	0.951841059602649	-0.0132450331125828	0.00847682119205304	3.67337748344371	1.8153642384106	-0.904900662251656				0.912953642384106	-0.0802119205298013	0.461139072847682	0.713907284768212	0.307814569536424	2.77403973509934				0.949827814569536	-0.161271523178808	-0.10394701986755	4.48741721854305	-0.413509933774833	-2.16026490066225				0.864529801324503	-0.176529801324503	-0.485721854304636	1.92291390728477	-2.0564238410596	2.46437086092715				0.900026490066225	-0.0445033112582781	0.373933774834437	3.8717880794702	1.73192052980133	3.86251655629139				0.559788079470199	-0.478834437086093	-0.564238410596026	7.02039735099338	-4.04238410596027	0.925298013245032			
156	3120	0.967841059602649	0.00275496688741723	0.040476821192053	3.11337748344371	3.2153642384106	-0.624900662251656				0.912953642384106	-0.0642119205298013	0.461139072847682	0.993907284768212	-0.532185430463576	2.77403973509934				0.949827814569536	-0.161271523178808	-0.10394701986755	4.48741721854305	-0.973509933774833	-3.00026490066225				0.848529801324503	-0.160529801324503	-0.469721854304636	-1.71708609271523	-2.6164238410596	1.34437086092715				0.900026490066225	-0.0445033112582781	0.373933774834437	3.8717880794702	1.17192052980133	3.86251655629139				0.575788079470199	-0.494834437086093	-0.564238410596026	4.78039735099338	-2.08238410596027	-0.754701986754968			
157	3140	0.983841059602649	0.0187549668874172	0.00847682119205304	0.593377483443709	-0.704635761589404	-0.904900662251656				0.896953642384106	-0.0482119205298013	0.445139072847682	2.67390728476821	-2.49218543046358	1.65403973509934				0.949827814569536	-0.145271523178808	-0.10394701986755	2.24741721854305	-0.973509933774833	-2.44026490066225				0.832529801324503	-0.128529801324503	-0.453721854304636	-2.27708609271523	-2.0564238410596	0.224370860927152				0.900026490066225	-0.0285033112582781	0.389933774834437	3.8717880794702	0.611920529801325	3.02251655629139				0.575788079470199	-0.478834437086093	-0.548238410596027	3.38039735099338	-0.682384105960265	-1.87470198675497			
158	3160	0.983841059602649	0.0347549668874172	-0.023523178807947	-0.246622516556291	-2.1046357615894	-0.624900662251656				0.896953642384106	-0.0322119205298013	0.445139072847682	2.67390728476821	-0.812185430463576	1.37403973509934				0.949827814569536	-0.145271523178808	-0.10394701986755	0.847417218543046	-0.973509933774833	-3.28026490066225				0.848529801324503	-0.128529801324503	-0.453721854304636	1.64291390728477	-1.7764238410596	-0.895629139072848				0.900026490066225	-0.0285033112582781	0.373933774834437	4.4317880794702	-1.34807947019868	2.46251655629139				0.575788079470199	-0.478834437086093	-0.564238410596026	4.78039735099338	0.717615894039735	-4.67470198675497			
159	3180	0.967841059602649	0.0347549668874172	-0.023523178807947	-1.08662251655629	-2.3846357615894	-1.74490066225166				0.896953642384106	-0.0322119205298013	0.477139072847682	2.11390728476821	0.0278145695364242	1.65403973509934				0.965827814569536	-0.145271523178808	-0.0879470198675496	1.96741721854305	-1.81350993377483	-3.56026490066225				0.864529801324503	-0.144529801324503	-0.469721854304636	5.56291390728477	-1.4964238410596	0.504370860927152				0.884026490066225	-0.0125033112582781	0.389933774834437	4.9917880794702	0.0519205298013249	1.90251655629139				0.591788079470199	-0.478834437086093	-0.596238410596026	5.90039735099338	1.55761589403974	-6.07470198675497			
160	3200	0.967841059602649	0.0187549668874172	-0.023523178807947	1.99337748344371	-2.1046357615894	-2.02490066225166				0.896953642384106	-0.0482119205298013	0.445139072847682	1.55390728476821	0.307814569536424	1.09403973509934				0.965827814569536	-0.145271523178808	-0.10394701986755	4.48741721854305	-2.09350993377483	-4.12026490066225				0.848529801324503	-0.144529801324503	-0.501721854304636	6.40291390728477	-2.3364238410596	1.06437086092715				0.900026490066225	-0.0285033112582781	0.373933774834437	6.1117880794702	-0.788079470198675	1.34251655629139				0.607788079470199	-0.494834437086093	-0.612238410596026	7.58039735099338	-0.122384105960265	-4.95470198675497			
161	3220	0.983841059602649	0.0187549668874172	-0.00752317880794696	3.11337748344371	-2.9446357615894	-1.46490066225166				0.896953642384106	-0.0322119205298013	0.445139072847682	2.39390728476821	-0.252185430463576	0.53403973509934				0.949827814569536	-0.129271523178808	-0.0879470198675496	4.20741721854305	-2.09350993377483	-3.84026490066225				0.848529801324503	-0.144529801324503	-0.485721854304636	1.36291390728477	-4.2964238410596	-1.17562913907285				0.916026490066225	-0.0285033112582781	0.389933774834437	6.1117880794702	0.331920529801325	0.222516556291392				0.607788079470199	-0.494834437086093	-0.580238410596026	5.34039735099338	-2.64238410596027	-3.55470198675497			
162	3240	0.967841059602649	0.00275496688741723	0.024476821192053	1.15337748344371	-1.8246357615894	0.495099337748344				0.928953642384106	-0.0482119205298013	0.445139072847682	2.11390728476821	-0.812185430463576	1.09403973509934				0.949827814569536	-0.145271523178808	-0.10394701986755	2.52741721854305	-1.81350993377483	-3.56026490066225				0.848529801324503	-0.144529801324503	-0.485721854304636	-0.877086092715232	-5.9764238410596	-2.85562913907285				0.916026490066225	-0.0285033112582781	0.373933774834437	4.1517880794702	-0.788079470198675	-0.0574834437086077				0.591788079470199	-0.494834437086093	-0.596238410596026	0.860397350993377	-4.32238410596027	-1.31470198675497			
163	3260	0.967841059602649	0.0187549668874172	0.040476821192053	-0.806622516556291	1.8153642384106	-0.0649006622516557				0.912953642384106	-0.0482119205298013	0.429139072847682	-1.24609271523179	-2.21218543046358	-0.30596026490066				0.965827814569536	-0.145271523178808	-0.10394701986755	0.00741721854304636	-0.693509933774834	-2.44026490066225				0.848529801324503	-0.128529801324503	-0.485721854304636	-0.0370860927152318	-4.8564238410596	-3.97562913907285				0.916026490066225	-0.0285033112582781	0.357933774834437	3.8717880794702	-1.06807947019868	-0.0574834437086077				0.591788079470199	-0.478834437086093	-0.580238410596026	1.42039735099338	-3.76238410596027	-2.43470198675497			
164	3280	0.983841059602649	0.0187549668874172	0.024476821192053	0.593377483443709	2.3753642384106	-1.46490066225166				0.896953642384106	-0.0162119205298013	0.429139072847682	-4.60609271523179	-2.77218543046358	-0.30596026490066				0.981827814569536	-0.145271523178808	-0.0879470198675496	-0.552582781456954	0.426490066225167	-2.44026490066225				0.832529801324503	-0.144529801324503	-0.485721854304636	-0.0370860927152318	-4.2964238410596	-5.09562913907285				0.900026490066225	-0.0125033112582781	0.373933774834437	4.7117880794702	-1.90807947019868	-1.73748344370861				0.591788079470199	-0.446834437086093	-0.580238410596026	2.54039735099338	-2.92238410596027	-5.23470198675497			
165	3300	0.983841059602649	0.0347549668874172	-0.039523178807947	-0.246622516556291	-0.424635761589404	-1.74490066225166				0.896953642384106	-0.000211920529801304	0.429139072847682	-3.48609271523179	-1.65218543046358	-0.30596026490066				0.965827814569536	-0.145271523178808	-0.0879470198675496	0.287417218543046	0.426490066225167	-1.60026490066225				0.816529801324503	-0.144529801324503	-0.501721854304636	2.20291390728477	-4.8564238410596	-5.37562913907285				0.900026490066225	0.00349668874172187	0.357933774834437	3.8717880794702	-3.30807947019868	-2.01748344370861				0.591788079470199	-0.446834437086093	-0.596238410596026	8.70039735099338	-1.80238410596026	-8.31470198675497			
166	3320	0.967841059602649	0.0347549668874172	-0.055523178807947	-1.36662251655629	-2.9446357615894	-1.46490066225166				0.880953642384106	-0.0162119205298013	0.461139072847682	-0.126092715231788	-1.65218543046358	0.53403973509934				0.965827814569536	-0.129271523178808	-0.10394701986755	1.12741721854305	-0.693509933774834	-1.32026490066225				0.800529801324503	-0.128529801324503	-0.501721854304636	4.44291390728477	-2.8964238410596	-4.81562913907285				0.884026490066225	0.0194966887417219	0.357933774834437	4.7117880794702	-2.46807947019868	-1.73748344370861				0.591788079470199	-0.478834437086093	-0.580238410596026	7.58039735099338	-1.24238410596026	-7.75470198675497			
167	3340	0.967841059602649	0.0187549668874172	-0.039523178807947	-0.806622516556291	-4.3446357615894	0.215099337748344				0.912953642384106	-0.0322119205298013	0.461139072847682	1.83390728476821	-3.33218543046358	1.09403973509934				0.949827814569536	-0.129271523178808	-0.10394701986755	2.52741721854305	-0.693509933774834	-0.76026490066225				0.800529801324503	-0.128529801324503	-0.501721854304636	3.04291390728477	-0.9364238410596	-5.09562913907285				0.900026490066225	0.00349668874172187	0.357933774834437	4.9917880794702	0.0519205298013249	-2.57748344370861				0.607788079470199	-0.478834437086093	-0.596238410596026	5.06039735099338	-3.76238410596027	-6.07470198675497			
168	3360	0.951841059602649	0.0187549668874172	0.00847682119205304	3.11337748344371	-1.2646357615894	-0.344900662251656				0.912953642384106	-0.0482119205298013	0.461139072847682	-0.406092715231788	-5.29218543046358	0.81403973509934				0.965827814569536	-0.129271523178808	-0.11994701986755	2.80741721854305	-0.693509933774834	0.0797350993377501				0.800529801324503	-0.144529801324503	-0.501721854304636	1.08291390728477	-0.6564238410596	-4.81562913907285				0.916026490066225	-0.0125033112582781	0.373933774834437	3.5917880794702	-0.788079470198675	-2.57748344370861				0.607788079470199	-0.494834437086093	-0.596238410596026	-0.259602649006623	-4.04238410596027	-2.71470198675497			
169	3380	0.967841059602649	0.0187549668874172	0.040476821192053	3.39337748344371	3.2153642384106	-0.904900662251656				0.928953642384106	-0.0642119205298013	0.461139072847682	-2.64609271523179	-7.53218543046358	0.25403973509934				0.965827814569536	-0.145271523178808	-0.10394701986755	2.24741721854305	0.986490066225167	-0.48026490066225				0.800529801324503	-0.144529801324503	-0.517721854304636	0.802913907284768	-0.6564238410596	-2.29562913907285				0.916026490066225	-0.0125033112582781	0.357933774834437	0.791788079470198	-1.34807947019868	-2.01748344370861				0.639788079470199	-0.478834437086093	-0.596238410596026	-3.61960264900662	-2.92238410596027	-1.31470198675497			
170	3400	0.983841059602649	0.0187549668874172	0.024476821192053	-0.526622516556291	3.2153642384106	-0.624900662251656				0.912953642384106	-0.0642119205298013	0.461139072847682	-3.48609271523179	-5.85218543046358	0.81403973509934				0.965827814569536	-0.145271523178808	-0.10394701986755	-1.39258278145695	1.26649006622517	-1.60026490066225				0.800529801324503	-0.144529801324503	-0.501721854304636	0.522913907284768	-0.6564238410596	-0.895629139072848				0.916026490066225	-0.0125033112582781	0.341933774834437	-0.0482119205298018	-1.90807947019868	-0.617483443708608				0.623788079470199	-0.462834437086093	-0.596238410596026	-1.37960264900662	-0.122384105960265	-2.15470198675497			
171	3420	0.999841059602649	0.0187549668874172	-0.023523178807947	-2.76662251655629	-0.704635761589404	-0.624900662251656				0.896953642384106	-0.0482119205298013	0.461139072847682	-1.52609271523179	-1.65218543046358	0.53403973509934				0.965827814569536	-0.129271523178808	-0.0719470198675496	-1.67258278145695	0.986490066225167	-1.04026490066225				0.800529801324503	-0.128529801324503	-0.469721854304636	2.20291390728477	-1.2164238410596	0.224370860927152				0.900026490066225	-0.0125033112582781	0.341933774834437	0.231788079470198	-1.90807947019868	0.502516556291392				0.607788079470199	-0.462834437086093	-0.580238410596026	2.26039735099338	0.717615894039735	-2.99470198675497			
172	3440	0.983841059602649	0.0347549668874172	-0.055523178807947	-3.04662251655629	-3.7846357615894	-0.904900662251656				0.896953642384106	-0.0482119205298013	0.445139072847682	0.153907284768212	1.70781456953642	-0.86596026490066				0.981827814569536	-0.129271523178808	-0.0879470198675496	-0.832582781456954	0.986490066225167	-1.32026490066225				0.816529801324503	-0.144529801324503	-0.517721854304636	1.64291390728477	-1.2164238410596	1.06437086092715				0.900026490066225	0.00349668874172187	0.389933774834437	2.1917880794702	1.73192052980133	0.502516556291392				0.607788079470199	-0.478834437086093	-0.580238410596026	2.82039735099338	1.55761589403974	-3.27470198675497			
173	3460	0.951841059602649	0.0187549668874172	-0.039523178807947	-0.806622516556291	-1.8246357615894	-1.46490066225166				0.912953642384106	-0.0322119205298013	0.429139072847682	-3.20609271523179	2.82781456953642	-1.98596026490066				0.949827814569536	-0.129271523178808	-0.0879470198675496	0.567417218543046	-0.133509933774833	-1.60026490066225				0.816529801324503	-0.128529801324503	-0.517721854304636	-1.15708609271523	-2.0564238410596	2.46437086092715				0.916026490066225	0.00349668874172187	0.341933774834437	-0.0482119205298018	-3.86807947019868	0.222516556291392				0.607788079470199	-0.478834437086093	-0.596238410596026	1.70039735099338	0.717615894039735	-3.55470198675497			
174	3480	0.967841059602649	0.0187549668874172	-0.00752317880794696	0.593377483443709	2.0953642384106	-0.624900662251656				0.912953642384106	-0.0322119205298013	0.445139072847682	-4.88609271523179	3.66781456953642	-0.30596026490066				0.965827814569536	-0.129271523178808	-0.11994701986755	1.96741721854305	-0.133509933774833	-1.04026490066225				0.800529801324503	-0.144529801324503	-0.501721854304636	-2.27708609271523	-2.3364238410596	2.18437086092715				0.900026490066225	0.00349668874172187	0.389933774834437	-3.1282119205298	-0.508079470198675	-1.17748344370861				0.623788079470199	-0.494834437086093	-0.596238410596026	-0.539602649006623	-1.24238410596026	-2.43470198675497			
175	3500	0.983841059602649	0.0347549668874172	0.00847682119205304	-1.64662251655629	2.3753642384106	-0.624900662251656				0.928953642384106	-0.0322119205298013	0.461139072847682	-6.28609271523179	2.54781456953642	0.25403973509934				0.965827814569536	-0.145271523178808	-0.10394701986755	-0.552582781456954	0.986490066225167	-0.48026490066225				0.816529801324503	-0.144529801324503	-0.517721854304636	-1.99708609271523	-0.0964238410596001	2.18437086092715				0.900026490066225	0.00349668874172187	0.373933774834437	-5.0882119205298	0.0519205298013249	-0.617483443708608				0.623788079470199	-0.478834437086093	-0.596238410596026	-4.73960264900662	-0.402384105960265	-0.754701986754968			
176	3520	0.983841059602649	0.0347549668874172	-0.00752317880794696	-1.92662251655629	-0.984635761589404	-0.344900662251656				0.896953642384106	-0.0322119205298013	0.477139072847682	-4.60609271523179	2.26781456953642	-0.0259602649006601				0.965827814569536	-0.129271523178808	-0.10394701986755	-2.51258278145695	1.54649006622517	-0.20026490066225				0.832529801324503	-0.144529801324503	-0.501721854304636	-3.11708609271523	0.7435761589404	2.18437086092715				0.916026490066225	-0.0125033112582781	0.357933774834437	-2.8482119205298	1.17192052980133	-0.617483443708608				0.607788079470199	-0.478834437086093	-0.580238410596026	-4.45960264900662	0.717615894039735	1.48529801324503			
177	3540	0.983841059602649	0.0347549668874172	-0.039523178807947	-0.246622516556291	-3.2246357615894	-0.624900662251656				0.912953642384106	-0.0322119205298013	0.477139072847682	-2.64609271523179	-1.09218543046358	-0.585960264900661				0.965827814569536	-0.129271523178808	-0.10394701986755	-1.67258278145695	0.426490066225167	-0.20026490066225				0.816529801324503	-0.128529801324503	-0.485721854304636	-3.11708609271523	1.3035761589404	3.02437086092715				0.900026490066225	0.00349668874172187	0.357933774834437	-0.608211920529802	1.45192052980132	-0.337483443708608				0.607788079470199	-0.462834437086093	-0.580238410596026	-3.33960264900662	2.11761589403974	1.20529801324503			
178	3560	0.967841059602649	0.0187549668874172	-0.055523178807947	0.313377483443709	-3.7846357615894	-0.344900662251656				0.912953642384106	-0.0482119205298013	0.445139072847682	-2.64609271523179	-3.33218543046358	-1.42596026490066				0.965827814569536	-0.129271523178808	-0.10394701986755	0.567417218543046	-0.693509933774834	-0.20026490066225				0.800529801324503	-0.112529801324503	-0.485721854304636	-3.11708609271523	0.4635761589404	2.74437086092715				0.900026490066225	0.00349668874172187	0.357933774834437	-3.1282119205298	0.0519205298013249	-0.0574834437086077				0.607788079470199	-0.478834437086093	-0.564238410596026	-0.819602649006623	2.95761589403974	0.925298013245032			
