No	Time	12-AccX	12-AccY	12-AccZ	12-GyroX	12-GyroY	12-GyroZ	13-AccX	13-AccY	13-AccZ	13-GyroX	13-GyroY	13-GyroZ	14-AccX	14-AccY	14-AccZ	14-GyroX	14-GyroY	14-GyroZ	15-AccX	15-AccY	15-AccZ	15-GyroX	15-GyroY	15-GyroZ	16-AccX	16-AccY	16-AccZ	16-GyroX	16-GyroY	16-GyroZ	17-AccX	17-AccY	17-AccZ	17-GyroX	17-GyroY	17-GyroZ
0	20	-0.248158940397351	0.146754966887417	-0.919523178807947	0.313377483443709	-0.144635761589404	-0.624900662251656				0.976953642384106	0.0317880794701987	0.237139072847682	-0.126092715231788	-0.812185430463576	0.81403973509934				-0.250172185430464	-0.209271523178808	-0.87194701986755	2.52741721854305	1.26649006622517	-0.76026490066225				0.560529801324503	-0.256529801324503	-0.757721854304636	1.36291390728477	1.3035761589404	1.06437086092715				0.948026490066225	0.0354966887417219	0.149933774834437	0.791788079470198	0.331920529801325	1.34251655629139				0.383788079470199	-0.158834437086093	-0.852238410596026	0.300397350993377	-1.24238410596026	-0.474701986754968			
1	40	-0.248158940397351	0.146754966887417	-0.935523178807947	-0.526622516556291	-0.984635761589404	-0.904900662251656				0.976953642384106	0.0317880794701987	0.221139072847682	0.713907284768212	-1.93218543046358	0.81403973509934				-0.266172185430464	-0.209271523178808	-0.85594701986755	1.40741721854305	0.706490066225167	-0.48026490066225				0.560529801324503	-0.240529801324503	-0.757721854304636	1.36291390728477	1.8635761589404	1.06437086092715				0.964026490066225	0.0354966887417219	0.149933774834437	-0.608211920529802	-0.228079470198675	1.34251655629139				0.399788079470199	-0.158834437086093	-0.852238410596026	2.54039735099338	-0.682384105960265	-0.474701986754968			
2	60	-0.248158940397351	0.130754966887417	-0.951523178807947	0.0333774834437086	0.135364238410596	-1.18490066225166				0.976953642384106	0.0477880794701987	0.221139072847682	1.83390728476821	-1.37218543046358	1.65403973509934				-0.250172185430464	-0.209271523178808	-0.85594701986755	0.847417218543046	-0.973509933774833	-0.20026490066225				0.560529801324503	-0.240529801324503	-0.741721854304636	1.36291390728477	2.1435761589404	0.784370860927152				0.964026490066225	0.0514966887417219	0.149933774834437	-0.0482119205298018	-0.508079470198675	1.06251655629139				0.399788079470199	-0.174834437086093	-0.852238410596026	1.14039735099338	-0.682384105960265	0.0852980132450323			
3	80	-0.248158940397351	0.146754966887417	-0.919523178807947	0.0333774834437086	0.695364238410596	-0.624900662251656				0.976953642384106	0.0317880794701987	0.221139072847682	1.55390728476821	0.0278145695364242	0.81403973509934				-0.266172185430464	-0.209271523178808	-0.85594701986755	0.287417218543046	0.706490066225167	-0.20026490066225				0.576529801324503	-0.240529801324503	-0.757721854304636	1.08291390728477	-0.0964238410596001	1.06437086092715				0.964026490066225	0.0354966887417219	0.149933774834437	0.231788079470198	-1.06807947019868	0.782516556291392				0.399788079470199	-0.158834437086093	-0.852238410596026	0.0203973509933773	0.157615894039735	0.365298013245032			
4	100	-0.248158940397351	0.146754966887417	-0.919523178807947	0.873377483443709	0.135364238410596	-0.624900662251656				0.976953642384106	0.0317880794701987	0.237139072847682	1.27390728476821	-0.812185430463576	0.81403973509934				-0.250172185430464	-0.209271523178808	-0.85594701986755	0.847417218543046	0.986490066225167	0.0797350993377501				0.560529801324503	-0.240529801324503	-0.757721854304636	0.522913907284768	-0.6564238410596	1.06437086092715				0.964026490066225	0.0354966887417219	0.149933774834437	0.231788079470198	-1.90807947019868	0.222516556291392				0.383788079470199	-0.158834437086093	-0.852238410596026	-0.259602649006623	-0.402384105960265	-1.03470198675497			
5	120	-0.232158940397351	0.130754966887417	-0.935523178807947	-0.526622516556291	0.415364238410596	-0.624900662251656				0.960953642384106	0.0157880794701987	0.221139072847682	1.55390728476821	-2.21218543046358	0.53403973509934				-0.250172185430464	-0.209271523178808	-0.87194701986755	1.68741721854305	0.146490066225167	-0.76026490066225				0.560529801324503	-0.240529801324503	-0.757721854304636	1.36291390728477	-0.0964238410596001	0.504370860927152				0.964026490066225	0.0354966887417219	0.133933774834437	1.9117880794702	-3.30807947019868	0.222516556291392				0.399788079470199	-0.142834437086093	-0.836238410596026	-0.259602649006623	0.437615894039735	-1.31470198675497			
6	140	-0.248158940397351	0.130754966887417	-0.903523178807947	-0.246622516556291	-0.144635761589404	-1.18490066225166				0.960953642384106	0.0317880794701987	0.205139072847682	-0.406092715231788	0.867814569536424	-0.585960264900661				-0.250172185430464	-0.209271523178808	-0.85594701986755	1.40741721854305	0.706490066225167	-0.76026490066225				0.560529801324503	-0.224529801324503	-0.757721854304636	1.36291390728477	0.7435761589404	0.224370860927152				0.948026490066225	0.0514966887417219	0.149933774834437	2.1917880794702	-2.46807947019868	0.222516556291392				0.399788079470199	-0.158834437086093	-0.852238410596026	-1.65960264900662	0.997615894039735	-1.31470198675497			
7	160	-0.248158940397351	0.130754966887417	-0.919523178807947	0.313377483443709	-0.144635761589404	-0.624900662251656				0.976953642384106	0.0477880794701987	0.221139072847682	-0.126092715231788	1.70781456953642	-0.30596026490066				-0.266172185430464	-0.193271523178808	-0.85594701986755	-0.552582781456954	-1.25350993377483	-0.76026490066225				0.544529801324503	-0.240529801324503	-0.757721854304636	-0.0370860927152318	0.4635761589404	1.34437086092715				0.948026490066225	0.0354966887417219	0.149933774834437	1.9117880794702	-1.06807947019868	0.782516556291392				0.399788079470199	-0.158834437086093	-0.852238410596026	-0.819602649006623	2.11761589403974	-0.474701986754968			
8	180	-0.248158940397351	0.130754966887417	-0.935523178807947	-1.08662251655629	0.415364238410596	-0.344900662251656				0.960953642384106	0.0317880794701987	0.221139072847682	0.993907284768212	1.42781456953642	1.09403973509934				-0.250172185430464	-0.209271523178808	-0.85594701986755	0.287417218543046	0.986490066225167	-0.48026490066225				0.528529801324503	-0.240529801324503	-0.757721854304636	1.08291390728477	-0.3764238410596	1.34437086092715				0.964026490066225	0.0354966887417219	0.133933774834437	1.0717880794702	-0.228079470198675	-0.337483443708608				0.383788079470199	-0.158834437086093	-0.852238410596026	-1.37960264900662	2.11761589403974	-0.754701986754968			
9	200	-0.248158940397351	0.130754966887417	-0.919523178807947	-1.08662251655629	0.415364238410596	-0.0649006622516557				0.976953642384106	0.0477880794701987	0.221139072847682	1.27390728476821	0.587814569536424	0.25403973509934				-0.266172185430464	-0.209271523178808	-0.87194701986755	1.12741721854305	-0.133509933774833	0.0797350993377501				0.560529801324503	-0.240529801324503	-0.757721854304636	0.802913907284768	0.1835761589404	0.224370860927152				0.964026490066225	0.0354966887417219	0.133933774834437	-0.608211920529802	-0.508079470198675	-0.0574834437086077				0.399788079470199	-0.158834437086093	-0.852238410596026	-1.09960264900662	-0.122384105960265	-0.194701986754968			
10	220	-0.248158940397351	0.130754966887417	-0.935523178807947	-0.806622516556291	0.135364238410596	-0.624900662251656				0.976953642384106	0.0317880794701987	0.221139072847682	2.11390728476821	-0.812185430463576	0.53403973509934				-0.250172185430464	-0.209271523178808	-0.85594701986755	2.80741721854305	2.10649006622517	0.0797350993377501				0.560529801324503	-0.240529801324503	-0.741721854304636	-0.597086092715232	-0.6564238410596	0.224370860927152				0.964026490066225	0.0354966887417219	0.149933774834437	-0.0482119205298018	-0.788079470198675	1.06251655629139				0.415788079470199	-0.158834437086093	-0.852238410596026	-0.259602649006623	-0.962384105960265	0.365298013245032			
11	240	-0.248158940397351	0.146754966887417	-0.935523178807947	-0.526622516556291	0.415364238410596	-0.904900662251656				0.976953642384106	0.0317880794701987	0.237139072847682	0.993907284768212	-0.812185430463576	-0.0259602649006601				-0.250172185430464	-0.209271523178808	-0.85594701986755	-0.552582781456954	0.986490066225167	0.35973509933775				0.560529801324503	-0.224529801324503	-0.757721854304636	0.242913907284768	-0.9364238410596	0.504370860927152				0.948026490066225	0.0514966887417219	0.165933774834437	1.3517880794702	3.41192052980132	0.502516556291392				0.383788079470199	-0.158834437086093	-0.852238410596026	-1.09960264900662	0.157615894039735	0.0852980132450323			
12	260	-0.248158940397351	0.130754966887417	-0.935523178807947	-0.246622516556291	0.135364238410596	-0.624900662251656				0.960953642384106	0.0317880794701987	0.269139072847682	1.27390728476821	0.867814569536424	0.53403973509934				-0.250172185430464	-0.225271523178808	-0.85594701986755	-0.832582781456954	-0.973509933774833	-0.48026490066225				0.560529801324503	-0.224529801324503	-0.741721854304636	1.08291390728477	-0.3764238410596	-0.0556291390728476				0.948026490066225	0.0354966887417219	0.133933774834437	0.511788079470198	-2.74807947019868	0.222516556291392				0.399788079470199	-0.142834437086093	-0.852238410596026	0.0203973509933773	1.27761589403974	0.365298013245032			
13	280	-0.248158940397351	0.146754966887417	-0.935523178807947	0.0333774834437086	0.695364238410596	-0.624900662251656				0.960953642384106	0.0317880794701987	0.221139072847682	1.27390728476821	-1.93218543046358	0.25403973509934				-0.250172185430464	-0.193271523178808	-0.85594701986755	0.847417218543046	-0.133509933774833	-0.48026490066225				0.560529801324503	-0.224529801324503	-0.757721854304636	2.20291390728477	-0.0964238410596001	-0.335629139072848				0.948026490066225	0.0514966887417219	0.149933774834437	-2.5682119205298	-1.90807947019868	-0.0574834437086077				0.399788079470199	-0.158834437086093	-0.852238410596026	0.300397350993377	0.717615894039735	0.0852980132450323			
14	300	-0.248158940397351	0.130754966887417	-0.919523178807947	0.313377483443709	-0.144635761589404	-1.18490066225166				0.976953642384106	0.0317880794701987	0.237139072847682	0.993907284768212	-3.33218543046358	0.81403973509934				-0.266172185430464	-0.209271523178808	-0.85594701986755	0.847417218543046	0.706490066225167	-0.48026490066225				0.544529801324503	-0.240529801324503	-0.757721854304636	2.76291390728477	1.0235761589404	0.224370860927152				0.948026490066225	0.0514966887417219	0.133933774834437	-2.5682119205298	-1.06807947019868	-0.617483443708608				0.399788079470199	-0.158834437086093	-0.852238410596026	-0.539602649006623	-0.122384105960265	-0.194701986754968			
15	320	-0.248158940397351	0.146754966887417	-0.919523178807947	-0.806622516556291	0.415364238410596	-1.18490066225166				0.976953642384106	0.0317880794701987	0.237139072847682	1.27390728476821	-3.89218543046358	0.53403973509934				-0.266172185430464	-0.209271523178808	-0.85594701986755	0.567417218543046	-0.693509933774834	-0.20026490066225				0.544529801324503	-0.240529801324503	-0.757721854304636	-0.317086092715232	0.1835761589404	-0.615629139072848				0.964026490066225	0.0354966887417219	0.149933774834437	-0.608211920529802	-0.228079470198675	0.222516556291392				0.399788079470199	-0.158834437086093	-0.852238410596026	-1.65960264900662	0.157615894039735	0.0852980132450323			
16	340	-0.248158940397351	0.130754966887417	-0.935523178807947	-0.246622516556291	0.135364238410596	-1.18490066225166				0.976953642384106	0.0317880794701987	0.221139072847682	2.67390728476821	-3.61218543046358	0.25403973509934				-0.266172185430464	-0.209271523178808	-0.87194701986755	1.12741721854305	0.426490066225167	-0.20026490066225				0.560529801324503	-0.240529801324503	-0.741721854304636	-0.877086092715232	0.7435761589404	-0.0556291390728476				0.964026490066225	0.0354966887417219	0.149933774834437	0.231788079470198	-0.508079470198675	0.782516556291392				0.399788079470199	-0.142834437086093	-0.868238410596026	-1.93960264900662	1.55761589403974	0.365298013245032			
17	360	-0.248158940397351	0.146754966887417	-0.935523178807947	-0.526622516556291	0.695364238410596	-0.904900662251656				0.976953642384106	0.0477880794701987	0.221139072847682	4.35390728476821	-5.29218543046358	1.09403973509934				-0.266172185430464	-0.193271523178808	-0.87194701986755	0.287417218543046	1.26649006622517	0.0797350993377501				0.560529801324503	-0.240529801324503	-0.757721854304636	1.08291390728477	1.0235761589404	1.62437086092715				0.964026490066225	0.0514966887417219	0.133933774834437	-1.4482119205298	-0.788079470198675	-0.337483443708608				0.399788079470199	-0.158834437086093	-0.852238410596026	-0.819602649006623	2.39761589403974	-0.474701986754968			
18	380	-0.248158940397351	0.130754966887417	-0.935523178807947	-0.806622516556291	0.975364238410596	-1.18490066225166				0.960953642384106	0.0477880794701987	0.205139072847682	4.07390728476821	-6.97218543046358	1.09403973509934				-0.266172185430464	-0.193271523178808	-0.87194701986755	-0.272582781456954	0.706490066225167	-0.20026490066225				0.560529801324503	-0.240529801324503	-0.757721854304636	2.20291390728477	1.3035761589404	1.90437086092715				0.964026490066225	0.0514966887417219	0.149933774834437	-1.4482119205298	-2.18807947019868	-0.617483443708608				0.399788079470199	-0.158834437086093	-0.852238410596026	-1.09960264900662	1.55761589403974	0.925298013245032			
19	400	-0.248158940397351	0.146754966887417	-0.919523178807947	-0.806622516556291	0.975364238410596	-0.344900662251656				0.960953642384106	0.0317880794701987	0.221139072847682	2.11390728476821	-4.45218543046358	0.81403973509934				-0.266172185430464	-0.193271523178808	-0.85594701986755	0.847417218543046	0.426490066225167	0.0797350993377501				0.560529801324503	-0.240529801324503	-0.757721854304636	0.522913907284768	1.0235761589404	0.784370860927152				0.964026490066225	0.0514966887417219	0.133933774834437	-1.4482119205298	-1.90807947019868	-0.0574834437086077				0.399788079470199	-0.174834437086093	-0.852238410596026	-2.77960264900662	0.997615894039735	2.60529801324503			
20	420	-0.248158940397351	0.146754966887417	-0.935523178807947	-1.08662251655629	0.695364238410596	-0.0649006622516557				0.976953642384106	0.0477880794701987	0.205139072847682	3.51390728476821	-5.85218543046358	0.81403973509934				-0.250172185430464	-0.193271523178808	-0.85594701986755	1.96741721854305	-0.413509933774833	-1.04026490066225				0.560529801324503	-0.240529801324503	-0.757721854304636	-0.0370860927152318	0.4635761589404	-0.335629139072848				0.964026490066225	0.0354966887417219	0.133933774834437	-1.4482119205298	-2.18807947019868	-1.45748344370861				0.399788079470199	-0.158834437086093	-0.852238410596026	-2.77960264900662	-0.402384105960265	4.00529801324503			
21	440	-0.248158940397351	0.130754966887417	-0.935523178807947	-0.806622516556291	0.135364238410596	-0.624900662251656				0.976953642384106	0.0477880794701987	0.205139072847682	6.03390728476821	-7.53218543046358	0.53403973509934				-0.266172185430464	-0.193271523178808	-0.85594701986755	1.96741721854305	0.706490066225167	-1.04026490066225				0.560529801324503	-0.240529801324503	-0.757721854304636	-1.71708609271523	-1.2164238410596	-0.615629139072848				0.948026490066225	0.0514966887417219	0.133933774834437	-1.1682119205298	-2.74807947019868	-1.17748344370861				0.399788079470199	-0.142834437086093	-0.852238410596026	-3.61960264900662	0.717615894039735	4.00529801324503			
22	460	-0.248158940397351	0.146754966887417	-0.935523178807947	-1.08662251655629	0.415364238410596	-0.0649006622516557				0.960953642384106	0.0317880794701987	0.205139072847682	5.47390728476821	-7.25218543046358	1.09403973509934				-0.266172185430464	-0.193271523178808	-0.85594701986755	1.40741721854305	1.54649006622517	-0.48026490066225				0.544529801324503	-0.240529801324503	-0.757721854304636	0.802913907284768	-3.1764238410596	-0.0556291390728476				0.948026490066225	0.0514966887417219	0.133933774834437	-1.7282119205298	-3.58807947019868	-0.0574834437086077				0.399788079470199	-0.142834437086093	-0.852238410596026	-3.61960264900662	1.83761589403974	4.56529801324503			
23	480	-0.248158940397351	0.130754966887417	-0.935523178807947	-1.64662251655629	0.415364238410596	-0.344900662251656				0.976953642384106	0.0317880794701987	0.205139072847682	4.63390728476821	-7.25218543046358	0.53403973509934				-0.266172185430464	-0.193271523178808	-0.85594701986755	1.96741721854305	2.66649006622517	-1.60026490066225				0.560529801324503	-0.224529801324503	-0.757721854304636	-0.0370860927152318	-3.4564238410596	-0.615629139072848				0.948026490066225	0.0514966887417219	0.133933774834437	-0.0482119205298018	-2.46807947019868	-0.0574834437086077				0.399788079470199	-0.158834437086093	-0.868238410596026	-4.17960264900662	0.997615894039735	4.84529801324503			
24	500	-0.248158940397351	0.146754966887417	-0.919523178807947	-1.92662251655629	0.695364238410596	-0.624900662251656				0.992953642384106	0.0477880794701987	0.205139072847682	3.79390728476821	-7.53218543046358	-0.585960264900661				-0.266172185430464	-0.209271523178808	-0.85594701986755	3.92741721854305	0.706490066225167	-2.16026490066225				0.560529801324503	-0.224529801324503	-0.773721854304636	0.522913907284768	-5.4164238410596	-1.17562913907285				0.964026490066225	0.0514966887417219	0.117933774834437	-0.328211920529802	-4.98807947019868	-0.0574834437086077				0.383788079470199	-0.158834437086093	-0.868238410596026	-3.61960264900662	0.157615894039735	3.72529801324503			
25	520	-0.248158940397351	0.130754966887417	-0.935523178807947	-2.20662251655629	0.135364238410596	-0.344900662251656				0.976953642384106	0.0637880794701987	0.173139072847682	4.91390728476821	-8.37218543046358	-0.30596026490066				-0.250172185430464	-0.209271523178808	-0.87194701986755	3.92741721854305	0.986490066225167	-2.72026490066225				0.544529801324503	-0.240529801324503	-0.757721854304636	-0.0370860927152318	-6.5364238410596	-3.13562913907285				0.948026490066225	0.0514966887417219	0.133933774834437	-0.328211920529802	-1.34807947019868	-0.337483443708608				0.399788079470199	-0.174834437086093	-0.868238410596026	-7.25960264900662	-0.682384105960265	6.24529801324503			
26	540	-0.232158940397351	0.146754966887417	-0.935523178807947	-2.20662251655629	-0.144635761589404	-0.0649006622516557				0.976953642384106	0.0477880794701987	0.189139072847682	7.99390728476821	-8.37218543046358	0.53403973509934				-0.250172185430464	-0.209271523178808	-0.85594701986755	3.64741721854305	-1.25350993377483	-2.44026490066225				0.528529801324503	-0.224529801324503	-0.773721854304636	1.36291390728477	-10.1764238410596	-5.09562913907285				0.964026490066225	0.0674966887417219	0.117933774834437	-1.1682119205298	0.331920529801325	-1.17748344370861				0.383788079470199	-0.158834437086093	-0.868238410596026	-8.09960264900662	-4.32238410596027	9.88529801324503			
27	560	-0.216158940397351	0.162754966887417	-0.951523178807947	-1.64662251655629	0.135364238410596	0.215099337748344				1.16895364238411	0.0317880794701987	0.285139072847682	13.0339072847682	-43.9321854304636	0.25403973509934				-0.250172185430464	-0.209271523178808	-0.87194701986755	4.48741721854305	-0.693509933774834	-2.72026490066225				0.528529801324503	-0.224529801324503	-0.773721854304636	0.242913907284768	-9.6164238410596	-6.77562913907285				0.948026490066225	0.0674966887417219	0.117933774834437	-0.328211920529802	-1.34807947019868	-0.337483443708608				0.399788079470199	-0.158834437086093	-0.900238410596026	-8.65960264900662	-2.92238410596027	14.645298013245			
28	580	-0.232158940397351	0.162754966887417	-0.951523178807947	-1.36662251655629	0.695364238410596	1.33509933774834				1.12095364238411	0.0317880794701987	0.221139072847682	20.8739072847682	-128.772185430464	-9.54596026490066				-0.250172185430464	-0.225271523178808	-0.85594701986755	8.12741721854305	2.10649006622517	-4.68026490066225				0.496529801324503	-0.240529801324503	-0.789721854304636	10.3229139072848	-16.3364238410596	-11.2556291390728				0.932026490066225	0.0674966887417219	0.0859337748344371	-0.608211920529802	2.29192052980133	0.222516556291392				0.351788079470199	-0.142834437086093	-0.900238410596026	-16.7796026490066	3.23761589403974	20.805298013245			
29	600	-0.216158940397351	0.146754966887417	-0.935523178807947	-3.32662251655629	0.695364238410596	2.45509933774835				0.752953642384106	0.0477880794701987	-0.0828609271523179	29.2739072847682	-120.652185430464	-10.3859602649007				-0.218172185430464	-0.225271523178808	-0.83994701986755	9.24741721854305	3.22649006622517	-6.36026490066225				0.496529801324503	-0.208529801324503	-0.853721854304636	3.60291390728477	-18.5764238410596	-12.3756291390728				0.900026490066225	0.0514966887417219	0.101933774834437	-0.328211920529802	8.17192052980133	-0.337483443708608				0.319788079470199	-0.110834437086093	-0.900238410596026	-7.25960264900662	0.997615894039735	22.205298013245			
30	620	-0.232158940397351	0.146754966887417	-0.903523178807947	-9.20662251655629	0.695364238410596	4.41509933774834				0.768953642384106	0.0317880794701987	0.0451390728476822	14.1539072847682	-44.2121854304636	-2.82596026490066				-0.250172185430464	-0.161271523178808	-0.79194701986755	9.52741721854305	-1.53350993377483	-5.52026490066225				0.528529801324503	-0.208529801324503	-0.885721854304636	0.802913907284768	-28.3764238410596	-16.0156291390729				0.900026490066225	0.0514966887417219	0.101933774834437	3.5917880794702	15.4519205298013	0.782516556291392				0.287788079470199	-0.190834437086093	-0.932238410596026	1.42039735099338	-1.80238410596026	22.485298013245			
31	640	-0.248158940397351	0.130754966887417	-0.903523178807947	-11.4466225165563	-1.2646357615894	3.29509933774834				0.944953642384106	0.0637880794701987	0.0451390728476822	11.6339072847682	-12.0121854304636	1.65403973509934				-0.250172185430464	-0.193271523178808	-0.83994701986755	3.36741721854305	-3.49350993377483	-2.16026490066225				0.528529801324503	-0.256529801324503	-0.853721854304636	-1.43708609271523	-35.3764238410596	-26.0956291390729				0.964026490066225	0.0674966887417219	0.0219337748344371	2.7517880794702	14.0519205298013	0.502516556291392				0.287788079470199	-0.254834437086093	-0.884238410596026	5.90039735099338	-12.1623841059603	32.005298013245			
32	660	-0.264158940397351	0.162754966887417	-0.951523178807947	-15.9266225165563	-0.424635761589404	4.69509933774834				0.992953642384106	0.0957880794701987	0.0291390728476822	8.27390728476821	-19.0121854304636	1.65403973509934				-0.234172185430464	-0.321271523178808	-0.88794701986755	4.76741721854305	1.26649006622517	0.35973509933775				0.512529801324503	-0.288529801324503	-0.901721854304636	-10.3970860927152	-42.0964238410596	-33.0956291390728				0.948026490066225	0.0674966887417219	0.0219337748344371	3.0317880794702	13.4919205298013	-1.73748344370861				0.255788079470199	-0.174834437086093	-0.868238410596026	-15.0996026490066	-8.24238410596027	47.405298013245			
33	680	-0.248158940397351	0.194754966887417	-0.919523178807947	-18.1666225165563	-1.8246357615894	6.37509933774834				0.896953642384106	0.0477880794701987	-0.0348609271523178	3.23390728476821	-14.8121854304636	5.57403973509934				-0.234172185430464	-0.385271523178808	-0.80794701986755	5.04741721854305	2.38649006622517	3.43973509933775				0.432529801324503	-0.320529801324503	-0.885721854304636	-34.7570860927152	-53.2964238410596	-30.8556291390729				0.884026490066225	0.0674966887417219	0.0539337748344371	3.3117880794702	14.3319205298013	-2.85748344370861				0.239788079470199	-0.110834437086093	-0.932238410596026	-1.09960264900662	-10.2023841059603	58.045298013245			
34	700	-0.216158940397351	0.178754966887417	-0.951523178807947	-13.1266225165563	-1.2646357615894	8.05509933774835				0.928953642384106	-0.0322119205298013	0.0131390728476822	-9.92609271523179	11.7878145695364	7.53403973509934				-0.202172185430464	-0.337271523178808	-0.77594701986755	-2.23258278145695	2.94649006622517	9.31973509933775				0.384529801324503	-0.288529801324503	-0.901721854304636	-61.3570860927152	-65.8964238410596	-28.8956291390729				0.884026490066225	0.0354966887417219	0.0379337748344371	4.4317880794702	18.8119205298013	-3.69748344370861				0.287788079470199	-0.126834437086093	-0.932238410596026	18.2203973509934	-16.6423841059603	61.405298013245			
35	720	-0.232158940397351	0.162754966887417	-0.887523178807947	-15.3666225165563	-7.1446357615894	6.37509933774834				1.00895364238411	0.0157880794701987	0.0451390728476822	-11.3260927152318	20.4678145695364	3.89403973509934				-0.282172185430464	-0.305271523178808	-0.87194701986755	-15.952582781457	1.26649006622517	15.7597350993378				0.352529801324503	-0.192529801324503	-0.901721854304636	-57.7170860927152	-63.0964238410596	-31.9756291390729				0.980026490066225	0.0194966887417219	0.0219337748344371	6.9517880794702	26.0919205298013	-2.57748344370861				0.303788079470199	-0.126834437086093	-0.916238410596027	19.3403973509934	-14.6823841059603	64.485298013245			
36	740	-0.248158940397351	0.114754966887417	-0.935523178807947	-10.6066225165563	-8.26463576158941	3.57509933774835				0.992953642384106	0.0317880794701987	0.0131390728476822	-12.1660927152318	20.4678145695364	6.13403973509934				-0.234172185430464	-0.257271523178808	-0.83994701986755	-13.712582781457	0.986490066225167	15.4797350993378				0.320529801324503	-0.208529801324503	-0.933721854304636	-34.1970860927152	-53.0164238410596	-41.2156291390729				1.01202649006623	0.0194966887417219	0.0539337748344371	6.6717880794702	30.2919205298013	-1.73748344370861				0.255788079470199	-0.158834437086093	-0.948238410596026	28.3003973509934	-8.24238410596027	65.325298013245			
37	760	-0.264158940397351	0.146754966887417	-0.999523178807947	-4.16662251655629	-4.6246357615894	3.29509933774834				0.992953642384106	-0.000211920529801304	-0.0188609271523178	-15.8060927152318	27.7478145695364	9.21403973509934				-0.266172185430464	-0.145271523178808	-0.91994701986755	-15.112582781457	-0.973509933774833	14.0797350993378				0.256529801324503	-0.240529801324503	-0.917721854304636	-31.1170860927152	-42.6564238410596	-38.9756291390729				0.980026490066225	0.0354966887417219	0.0859337748344371	3.3117880794702	30.0119205298013	-3.41748344370861				0.239788079470199	-0.222834437086093	-0.980238410596026	26.9003973509934	-2.36238410596027	68.685298013245			
38	780	-0.264158940397351	0.162754966887417	-0.967523178807947	-17.3266225165563	-0.984635761589404	6.09509933774834				0.960953642384106	-0.000211920529801304	0.0291390728476822	-15.8060927152318	36.7078145695364	9.49403973509934				-0.234172185430464	-0.193271523178808	-0.87194701986755	-7.27258278145696	3.78649006622517	12.1197350993378				0.256529801324503	-0.256529801324503	-0.933721854304636	-23.8370860927152	-44.3364238410596	-32.5356291390729				0.948026490066225	0.0354966887417219	0.101933774834437	3.3117880794702	33.0919205298013	-2.01748344370861				0.271788079470199	-0.254834437086093	-1.02823841059603	33.9003973509934	1.55761589403974	77.925298013245			
39	800	-0.216158940397351	0.146754966887417	-0.887523178807947	-25.1666225165563	-2.3846357615894	8.05509933774835				0.912953642384106	-0.000211920529801304	0.0931390728476822	-18.0460927152318	39.5078145695364	7.81403973509934				-0.218172185430464	-0.177271523178808	-0.83994701986755	-5.59258278145695	1.26649006622517	8.75973509933775				0.384529801324503	-0.224529801324503	-0.965721854304636	-30.2770860927152	-47.9764238410596	-30.8556291390729				0.980026490066225	0.0354966887417219	0.0699337748344371	-6.7682119205298	29.7319205298013	-1.73748344370861				0.319788079470199	-0.286834437086093	-1.04423841059603	26.6203973509934	-4.04238410596027	86.605298013245			
40	820	-0.232158940397351	0.162754966887417	-0.951523178807947	-14.8066225165563	-4.6246357615894	9.17509933774834				0.928953642384106	0.0477880794701987	0.0611390728476822	-17.7660927152318	47.9078145695364	6.97403973509934				-0.250172185430464	-0.0972715231788079	-0.82394701986755	-10.912582781457	-0.973509933774833	8.47973509933775				0.448529801324503	-0.208529801324503	-0.949721854304636	-56.8770860927152	-58.3364238410596	-29.4556291390729				0.964026490066225	0.0354966887417219	0.0539337748344371	-8.4482119205298	35.6119205298013	1.34251655629139				0.319788079470199	-0.286834437086093	-0.964238410596026	19.3403973509934	-25.3223841059603	97.525298013245			
41	840	-0.248158940397351	0.178754966887417	-0.839523178807947	-13.6866225165563	-4.0646357615894	9.17509933774834				1.00895364238411	0.0317880794701987	-0.00286092715231785	-11.0460927152318	41.1878145695364	7.53403973509934				-0.266172185430464	-0.0492715231788079	-0.87194701986755	-9.51258278145695	-2.09350993377483	8.19973509933775				0.304529801324503	-0.160529801324503	-0.917721854304636	-78.4370860927152	-74.0164238410596	-26.0956291390729				0.964026490066225	0.0194966887417219	0.117933774834437	-9.8482119205298	39.2519205298013	3.58251655629139				0.159788079470199	-0.254834437086093	-0.948238410596026	7.30039735099338	-23.3623841059603	112.365298013245			
42	860	-0.328158940397351	0.226754966887417	-0.871523178807947	-9.48662251655629	-13.3046357615894	8.05509933774835				0.976953642384106	-0.000211920529801304	-0.0668609271523178	-12.1660927152318	47.9078145695364	5.85403973509934				-0.346172185430464	-0.129271523178808	-0.96794701986755	-6.15258278145695	-7.13350993377484	7.35973509933775				0.304529801324503	-0.0325298013245033	-0.949721854304636	-64.9970860927152	-80.7364238410596	-21.8956291390728				1.04402649006623	0.0514966887417219	0.133933774834437	-5.9282119205298	38.6919205298013	4.98251655629139				0.127788079470199	-0.222834437086093	-1.01223841059603	3.94039735099338	-19.4423841059603	118.525298013245			
43	880	-0.360158940397351	0.242754966887417	-0.919523178807947	-11.7266225165563	-0.984635761589404	6.65509933774834				1.02495364238411	0.0317880794701987	0.0131390728476822	-23.3660927152318	69.1878145695364	4.45403973509934				-0.378172185430464	-0.225271523178808	-0.91994701986755	-1.67258278145695	-4.89350993377483	6.51973509933775				0.416529801324503	-0.000529801324503289	-1.04572185430464	-35.0370860927152	-79.3364238410596	-14.6156291390728				1.06002649006623	0.0994966887417219	0.213933774834437	5.8317880794702	29.4519205298013	9.18251655629139				0.319788079470199	-0.158834437086093	-1.01223841059603	33.6203973509934	-18.0423841059603	105.365298013245			
44	900	-0.360158940397351	0.242754966887417	-0.871523178807947	-3.04662251655629	4.6153642384106	5.25509933774834				1.13695364238411	0.0317880794701987	0.205139072847682	-19.4460927152318	70.8678145695364	9.21403973509934				-0.362172185430464	-0.257271523178808	-0.87194701986755	7.00741721854305	-1.81350993377483	7.91973509933775				0.336529801324503	-0.0325298013245033	-1.04572185430464	-31.6770860927152	-76.8164238410596	-9.01562913907285				1.06002649006623	0.0834966887417219	0.213933774834437	6.3917880794702	27.7719205298013	9.46251655629139				0.367788079470199	-0.222834437086093	-1.01223841059603	58.2603973509934	-35.4023841059603	89.405298013245			
45	920	-0.424158940397351	0.258754966887417	-1.07952317880795	0.593377483443709	-5.7446357615894	4.69509933774834				1.12095364238411	0.0317880794701987	0.157139072847682	-14.1260927152318	63.5878145695364	10.8940397350993				-0.426172185430464	-0.257271523178808	-0.85594701986755	0.287417218543046	-0.973509933774833	11.2797350993378				0.256529801324503	0.0314701986754967	-1.04572185430464	-26.9170860927152	-92.7764238410596	1.06437086092715				1.10802649006623	0.0674966887417219	0.229933774834437	4.7117880794702	31.1319205298013	7.50251655629139				0	0	0	0	0	0			
46	940	-0.392158940397351	0.210754966887417	-1.09552317880795	-25.1666225165563	24.2153642384106	8.05509933774835				0	0	0	0	0	0				0	0	0	0	0	0				0	0	0	0	0	0				1.22002649006623	0.0514966887417219	0.277933774834437	7.5117880794702	23.5719205298013	7.22251655629139				0.143788079470199	-0.494834437086093	-0.932238410596026	33.3403973509934	-44.3623841059603	90.525298013245			
47	960	0	0	0	0	0	0				0	0	0	0	0	0				-0.490172185430464	-0.0812715231788079	-1.07994701986755	8.68741721854305	18.3464900662252	4.83973509933775				0.320529801324503	-0.0485298013245033	-1.17372185430464	-10.6770860927152	-86.8964238410596	8.06437086092715				1.22002649006623	0.0354966887417219	0.325933774834437	9.7517880794702	3.41192052980132	7.50251655629139				0.143788079470199	-0.542834437086093	-1.06023841059603	12.6203973509934	-34.2823841059603	87.725298013245			
48	980	-0.472158940397351	0.290754966887417	-0.999523178807947	-37.2066225165563	38.2153642384106	13.6550993377483				1.29695364238411	0.175788079470199	0.365139072847682	-13.0060927152318	82.6278145695364	27.4140397350993				-0.490172185430464	-0.0332715231788079	-1.06394701986755	12.047417218543	23.6664900662252	3.99973509933775				0.320529801324503	0.0314701986754967	-1.18972185430464	-32.2370860927152	-82.1364238410596	18.1443708609272				1.18802649006623	0.115496688741722	0.405933774834437	-0.0482119205298018	-4.14807947019868	7.22251655629139				0.335788079470199	-0.542834437086093	-1.14023841059603	2.26039735099338	-41.5623841059603	85.765298013245			
49	1000	-0.536158940397351	0.450754966887417	-0.919523178807947	-16.2066225165563	49.6953642384106	18.9750993377483				1.40895364238411	-0.0642119205298013	0.653139072847682	-14.1260927152318	68.3478145695364	33.0140397350993				-0.538172185430464	-0.161271523178808	-1.06394701986755	22.967417218543	41.0264900662252	1.47973509933775				0.320529801324503	0.191470198675497	-1.14172185430464	-53.5170860927152	-83.5364238410596	21.2243708609272				1.15602649006623	0.211496688741722	0.501933774834437	4.1517880794702	7.05192052980133	6.94251655629139				0.287788079470199	-0.606834437086093	-1.07623841059603	-0.539602649006623	-56.6823841059603	97.8052980132451			
50	1020	-0.520158940397351	0.338754966887417	-0.999523178807947	-7.80662251655629	59.7753642384106	26.2550993377483				1.47295364238411	-0.208211920529801	0.653139072847682	-9.92609271523179	42.0278145695364	20.6940397350993				-0.410172185430464	-0.273271523178808	-1.04794701986755	19.327417218543	55.3064900662252	-8.32026490066225				0.256529801324503	0.175470198675497	-1.18972185430464	-30.5570860927152	-77.6564238410596	23.1843708609272				1.26802649006623	0.115496688741722	0.613933774834437	20.1117880794702	15.1719205298013	12.2625165562914				0.127788079470199	-0.702834437086093	-0.980238410596026	-14.2596026490066	-34.2823841059603	103.405298013245			
51	1040	-0.328158940397351	0.226754966887417	-1.09552317880795	5.91337748344371	64.5353642384106	28.7750993377483				1.47295364238411	-0.208211920529801	0.717139072847682	2.67390728476821	42.3078145695364	7.25403973509934				-0.346172185430464	-0.337271523178808	-1.04794701986755	3.36741721854305	62.3064900662252	-13.9202649006623				0.224529801324503	0.127470198675497	-1.25372185430464	-8.71708609271523	-57.7764238410596	23.1843708609272				1.30002649006623	-0.124503311258278	0.709933774834437	21.5117880794702	20.4919205298013	16.4625165562914				0.143788079470199	-0.670834437086093	-0.980238410596026	-17.6196026490066	-24.4823841059603	94.165298013245			
52	1060	-0.344158940397351	0.306754966887417	-1.11152317880795	9.55337748344371	73.4953642384106	33.2550993377483				1.44095364238411	-0.176211920529801	0.749139072847682	-3.48609271523179	19.0678145695364	3.61403973509934				-0.250172185430464	-0.257271523178808	-0.99994701986755	-1.39258278145695	76.8664900662252	-10.0002649006623				0.256529801324503	0.111470198675497	-1.18972185430464	-23.2770860927152	-28.0964238410596	25.7043708609272				1.36402649006623	-0.220503311258278	0.821933774834437	8.9117880794702	26.0919205298013	11.1425165562914				0.271788079470199	-0.846834437086093	-0.884238410596026	4.50039735099338	-24.2023841059603	64.485298013245			
53	1080	-0.168158940397351	0.338754966887417	-1.09552317880795	21.5933774834437	87.7753642384106	37.1750993377484				1.32895364238411	-0.0322119205298013	0.797139072847682	-18.6060927152318	4.50781456953642	-3.94596026490066				-0.250172185430464	-0.305271523178808	-1.07994701986755	11.207417218543	87.5064900662252	-4.96026490066225				0.192529801324503	0.271470198675497	-1.23772185430464	-11.5170860927152	17.8235761589404	37.1843708609272				1.34802649006623	-0.124503311258278	0.821933774834437	-18.2482119205298	9.85192052980133	-0.897483443708608				0.351788079470199	-0.734834437086093	-0.964238410596026	-17.8996026490066	5.47761589403974	37.325298013245			
54	1100	-0.072158940397351	0.258754966887417	-1.09552317880795	39.5133774834437	99.8153642384106	37.7350993377484				1.34495364238411	-0.0482119205298013	0.685139072847682	-19.1660927152318	-3.89218543046358	-12.0659602649007				-0.170172185430464	-0.401271523178808	-1.01594701986755	14.567417218543	100.386490066225	-2.44026490066225				0.208529801324503	0.303470198675497	-1.07772185430464	34.4029139072848	43.5835761589404	44.4643708609272				1.15602649006623	0.0674966887417219	0.757933774834437	-22.4482119205298	-12.5480794701987	-2.29748344370861				0.255788079470199	-0.814834437086093	-0.900238410596026	7.86039735099338	25.0776158940397	12.405298013245			
55	1120	0.167841059602649	0.258754966887417	-1.14352317880795	53.7933774834437	105.695364238411	36.0550993377484				1.31295364238411	-0.224211920529801	0.589139072847682	-16.9260927152318	-9.77218543046358	-15.7059602649007				0.0218278145695364	-0.305271523178808	-1.04794701986755	-2.23258278145695	110.746490066225	-1.32026490066225				0.272529801324503	0.223470198675497	-1.18972185430464	66.0429139072848	46.1035761589404	38.5843708609272				1.15602649006623	0.0994966887417219	0.693933774834437	-24.6882119205298	3.13192052980133	1.06251655629139				0.175788079470199	-0.718834437086093	-0.916238410596027	-1.93960264900662	61.7576158940397	3.72529801324503			
56	1140	0.519841059602649	0.450754966887417	-1.14352317880795	43.1533774834437	110.455364238411	22.6150993377483				1.23295364238411	-0.0802119205298013	0.749139072847682	-30.3660927152318	-0.812185430463576	-15.9859602649007				0.117827814569536	-0.337271523178808	-1.09594701986755	-8.39258278145695	121.946490066225	-7.20026490066225				0.480529801324503	0.0954701986754967	-1.41372185430464	84.2429139072848	51.7035761589404	41.1043708609272				1.30002649006623	0.0194966887417219	0.709933774834437	-23.2882119205298	1.17192052980133	0.782516556291392				0.191788079470199	-0.622834437086093	-0.948238410596026	-15.3796026490066	98.1576158940398	2.32529801324503			
57	1160	0.679841059602649	0.530754966887417	-1.12752317880795	47.0733774834437	118.575364238411	2.45509933774835				1.20095364238411	-0.000211920529801304	0.813139072847682	-19.1660927152318	-4.17218543046358	-5.90596026490066				0.325827814569536	-0.209271523178808	-1.01594701986755	-12.312582781457	131.186490066225	-20.3602649006623				0.624529801324503	-0.128529801324503	-1.46172185430464	49.5229139072848	60.9435761589404	39.4243708609272				1.25202649006623	0.0514966887417219	0.661933774834437	-20.4882119205298	-13.9480794701987	-0.337483443708608				0.239788079470199	-0.638834437086093	-0.980238410596026	1.14039735099338	90.5976158940397	-21.194701986755			
58	1180	0.407841059602649	0.274754966887417	-1.03152317880795	41.1933774834437	134.255364238411	-9.02490066225166				1.23295364238411	0.0797880794701987	0.749139072847682	2.67390728476821	-24.3321854304636	4.45403973509934				0.405827814569536	-0.0172715231788079	-1.04794701986755	8.12741721854305	133.426490066225	-33.5202649006623				0.512529801324503	-0.112529801324503	-1.34972185430464	-17.6770860927152	68.7835761589404	36.0643708609272				1.10802649006623	0.147496688741722	0.597933774834437	-19.3682119205298	-1.90807947019868	-4.81748344370861				0.207788079470199	-0.558834437086093	-1.15623841059603	15.9803973509934	86.1176158940397	-28.754701986755			
59	1200	0.295841059602649	0.0827549668874172	-1.11152317880795	16.8333774834437	152.175364238411	-11.2649006622517				1.26495364238411	-0.0642119205298013	0.685139072847682	14.7139072847682	-31.0521854304636	15.0940397350993				0.357827814569536	-0.0812715231788079	-0.95194701986755	29.1274172185431	134.826490066225	-39.4002649006623				0.448529801324503	0.0634701986754967	-1.18972185430464	-40.0770860927152	81.9435761589404	32.9843708609272				1.09202649006623	0.195496688741722	0.533933774834437	-7.6082119205298	22.1719205298013	-7.89748344370861				0.223788079470199	-0.622834437086093	-1.09223841059603	28.8603973509934	76.8776158940397	-22.314701986755			
60	1220	0.295841059602649	0.00275496688741723	-0.967523178807947	8.99337748344371	165.335364238411	-8.74490066225166				1.26495364238411	-0.176211920529801	0.557139072847682	8.83390728476821	-39.1721854304636	13.6940397350993				0.357827814569536	-0.273271523178808	-0.75994701986755	33.8874172185431	137.626490066225	-34.0802649006623				0.464529801324503	0.191470198675497	-0.997721854304636	-26.6370860927152	99.5835761589404	27.3843708609272				1.12402649006623	0.0514966887417219	0.517933774834437	1.9117880794702	44.0119205298013	-7.61748344370861				0.223788079470199	-0.558834437086093	-1.02823841059603	19.3403973509934	95.9176158940397	-18.394701986755			
61	1240	0.551841059602649	0.0667549668874172	-0.919523178807947	8.43337748344371	170.095364238411	1.05509933774834				1.20095364238411	-0.144211920529801	0.429139072847682	2.11390728476821	-53.7321854304636	5.29403973509934				0.357827814569536	-0.369271523178808	-0.69594701986755	12.607417218543	140.706490066225	-26.2402649006623				0.464529801324503	0.207470198675497	-0.869721854304636	-0.317086092715232	104.06357615894	21.2243708609272				1.14002649006623	-0.0285033112582781	0.485933774834437	-1.4482119205298	47.6519205298013	-4.81748344370861				0.303788079470199	-0.478834437086093	-0.932238410596026	19.6203973509934	114.95761589404	-15.874701986755			
62	1260	0.439841059602649	0.0347549668874172	-0.807523178807947	8.99337748344371	168.135364238411	6.65509933774834				1.05695364238411	0.0157880794701987	0.269139072847682	25.9139072847682	-76.6921854304636	-9.26596026490066				0.453827814569536	-0.289271523178808	-0.67994701986755	-4.19258278145695	147.146490066225	-18.4002649006623				0.400529801324503	0.0954701986754967	-0.853721854304636	23.2029139072848	110.22357615894	21.7843708609272				1.09202649006623	-0.0445033112582781	0.437933774834437	1.9117880794702	30.8519205298013	0.782516556291392				0.351788079470199	-0.462834437086093	-0.900238410596026	28.0203973509934	91.9976158940397	-31.834701986755			
63	1280	0.423841059602649	0.0187549668874172	-0.695523178807947	6.75337748344371	161.695364238411	10.2950993377483				0.848953642384106	-0.144211920529801	0.0931390728476822	45.2339072847682	-86.4921854304636	0.25403973509934				0.421827814569536	-0.177271523178808	-0.59994701986755	-7.55258278145695	158.066490066225	-17.0002649006623				0.368529801324503	-0.000529801324503289	-0.805721854304636	38.6029139072848	112.18357615894	22.3443708609272				1.01202649006623	-0.0605033112582781	0.373933774834437	-1.7282119205298	16.0119205298013	4.98251655629139				0.351788079470199	-0.494834437086093	-0.788238410596027	28.5803973509934	75.7576158940397	-46.114701986755			
64	1300	0.359841059602649	0.0187549668874172	-0.679523178807947	6.47337748344371	155.255364238411	11.1350993377483				0.784953642384106	-0.224211920529801	0.0611390728476822	25.9139072847682	-73.6121854304636	3.61403973509934				0.485827814569536	-0.113271523178808	-0.59994701986755	-15.952582781457	171.506490066225	-19.2402649006623				0.368529801324503	-0.0805298013245033	-0.773721854304636	44.2029139072848	113.86357615894	17.8643708609272				0.884026490066225	-0.0285033112582781	0.277933774834437	-13.4882119205298	0.0519205298013249	6.38251655629139				0.303788079470199	-0.494834437086093	-0.724238410596026	19.3403973509934	76.8776158940397	-50.874701986755			
65	1320	0.359841059602649	-0.0772450331125828	-0.695523178807947	8.15337748344371	151.055364238411	10.0150993377483				0.736953642384106	-0.0162119205298013	0.0611390728476822	13.8739072847682	-57.9321854304636	-5.62596026490066				0.581827814569536	-0.129271523178808	-0.71194701986755	-24.072582781457	168.986490066225	-22.6002649006623				0.368529801324503	-0.112529801324503	-0.677721854304636	49.8029139072848	114.98357615894	11.7043708609272				0.788026490066225	-0.0285033112582781	0.149933774834437	-6.7682119205298	-16.7480794701987	8.90251655629139				0.351788079470199	-0.414834437086093	-0.644238410596026	8.42039735099338	97.0376158940397	-38.834701986755			
66	1340	0.391841059602649	-0.0772450331125828	-0.679523178807947	-5.56662251655629	144.895364238411	7.77509933774834				0.672953642384106	0.0477880794701987	-0.0508609271523178	26.7539072847682	-48.4121854304636	1.65403973509934				0.485827814569536	-0.0492715231788079	-0.56794701986755	7.00741721854305	174.586490066225	-35.7602649006623				0.368529801324503	-0.0645298013245033	-0.581721854304636	47.2829139072848	110.78357615894	7.50437086092715				0.676026490066225	-0.0285033112582781	0.165933774834437	-2.0082119205298	-21.2280794701987	12.2625165562914				0.319788079470199	-0.318834437086093	-0.548238410596027	6.74039735099338	91.9976158940397	-29.314701986755			
67	1360	0.375841059602649	0.130754966887417	-0.551523178807947	-8.36662251655629	137.895364238411	6.65509933774834				0.688953642384106	-0.0482119205298013	-0.0348609271523178	6.87390728476821	-56.2521854304636	4.73403973509934				0.325827814569536	0.0147284768211921	-0.43994701986755	-1.95258278145695	186.906490066225	-42.2002649006623				0.320529801324503	-0.0485298013245033	-0.597721854304636	51.4829139072848	102.38357615894	8.34437086092715				0.612026490066225	-0.0125033112582781	0.325933774834437	-6.4882119205298	-13.6680794701987	8.62251655629139				0.239788079470199	-0.206834437086093	-0.564238410596026	13.7403973509934	72.1176158940397	-38.554701986755			
68	1380	0.407841059602649	0.178754966887417	-0.599523178807947	-2.48662251655629	139.855364238411	7.21509933774835				0.640953642384106	0.0317880794701987	-0.0668609271523178	-13.2860927152318	-57.0921854304636	-2.26596026490066				0.405827814569536	-0.0172715231788079	-0.48794701986755	-21.272582781457	188.866490066225	-32.6802649006623				0.272529801324503	-0.0805298013245033	-0.613721854304636	65.4829139072848	99.5835761589404	14.2243708609272				0.644026490066225	-0.0125033112582781	0.293933774834437	-9.8482119205298	-29.9080794701987	9.46251655629139				0.191788079470199	-0.206834437086093	-0.564238410596026	8.98039735099338	51.3976158940397	-62.914701986755			
69	1400	0.439841059602649	0.0827549668874172	-0.631523178807947	-13.6866225165563	157.495364238411	14.7750993377483				0.640953642384106	0.111788079470199	-0.0668609271523178	1.55390728476821	-49.2521854304636	-12.0659602649007				0.405827814569536	-0.0652715231788079	-0.66394701986755	-41.152582781457	190.546490066225	-28.7602649006623				0.336529801324503	-0.128529801324503	-0.565721854304636	62.9629139072848	93.1435761589404	15.9043708609272				0.628026490066225	0.00349668874172187	0.117933774834437	-20.4882119205298	-51.7480794701987	10.0225165562914				0.351788079470199	-0.302834437086093	-0.500238410596026	4.78039735099338	58.3976158940397	-64.034701986755			
70	1420	0.519841059602649	0.00275496688741723	-0.455523178807947	-19.5666225165563	159.735364238411	26.8150993377483				0.560953642384106	-0.0642119205298013	-0.0828609271523179	14.4339072847682	-70.2521854304636	-5.34596026490066				0.405827814569536	-0.193271523178808	-0.71194701986755	-58.792582781457	216.866490066225	-42.4802649006623				0.336529801324503	-0.160529801324503	-0.501721854304636	58.7629139072848	74.1035761589404	12.5443708609272				0.564026490066225	0.0194966887417219	-0.0580662251655629	1.0717880794702	-53.1480794701987	13.1025165562914				0.335788079470199	-0.382834437086093	-0.356238410596026	-9.49960264900662	63.1576158940397	-43.314701986755			
71	1440	0.503841059602649	0.0827549668874172	-0.407523178807947	-6.40662251655629	162.255364238411	33.8150993377484				0.384953642384106	-0.0162119205298013	-0.178860927152318	5.19390728476821	-75.5721854304636	-10.3859602649007				0.597827814569536	-0.337271523178808	-0.39194701986755	-26.872582781457	169.546490066225	-54.5202649006623				0.288529801324503	-0.208529801324503	-0.469721854304636	47.5629139072848	58.4235761589404	5.54437086092715				0.548026490066225	-0.0765033112582781	0.101933774834437	-9.2882119205298	-39.1480794701987	11.4225165562914				0.239788079470199	-0.302834437086093	-0.420238410596026	-13.4196026490066	57.8376158940397	-41.074701986755			
72	1460	0.487841059602649	0.0507549668874172	-0.391523178807947	-35.2466225165563	171.215364238411	39.4150993377484				0.320953642384106	0.0477880794701987	-0.130860927152318	-3.76609271523179	-27.4121854304636	-10.3859602649007				0.757827814569536	-0.0172715231788079	-0.43994701986755	-43.392582781457	114.946490066225	-33.5202649006623				0.240529801324503	-0.176529801324503	-0.389721854304636	36.0829139072848	53.1035761589404	-2.57562913907285				0.548026490066225	-0.108503311258278	0.0859337748344371	-15.7282119205298	-57.9080794701987	12.8225165562914				0.207788079470199	-0.174834437086093	-0.420238410596026	-32.4596026490066	53.0776158940397	-46.394701986755			
73	1480	0.487841059602649	0.146754966887417	-0.311523178807947	-41.6866225165563	168.415364238411	27.9350993377483				0.464953642384106	-0.000211920529801304	0.0611390728476822	-16.0860927152318	9.54781456953642	-8.42596026490066				0.677827814569536	0.0787284768211921	-0.64794701986755	-53.472582781457	86.9464900662252	-20.6402649006623				0.224529801324503	-0.144529801324503	-0.325721854304636	29.0829139072848	47.7835761589404	-4.53562913907285				0.436026490066225	-0.0605033112582781	0.0379337748344371	-21.0482119205298	-83.9480794701987	13.1025165562914				0.191788079470199	0.00116556291390731	-0.468238410596026	-19.5796026490066	49.4376158940397	-51.714701986755			
74	1500	0.647841059602649	0.290754966887417	-0.439523178807947	-39.4466225165563	161.135364238411	17.5750993377483				0.480953642384106	-0.192211920529801	0.109139072847682	-12.1660927152318	-28.5321854304636	-17.6659602649007				0.549827814569536	0.142728476821192	-0.90394701986755	-43.392582781457	49.1464900662252	-29.6002649006623				0.208529801324503	-0.0805298013245033	-0.405721854304636	43.3629139072848	42.4635761589404	-5.09562913907285				0.388026490066225	-0.0605033112582781	-0.0100662251655629	-20.7682119205298	-75.5480794701987	8.62251655629139				0.143788079470199	0.00116556291390731	-0.468238410596026	-1.09960264900662	40.1976158940397	-49.194701986755			
75	1520	0.663841059602649	0.354754966887417	-0.535523178807947	-33.5666225165563	137.895364238411	17.0150993377483				0.432953642384106	0.111788079470199	-0.226860927152318	-14.4060927152318	-32.1721854304636	-26.3459602649007				0.549827814569536	0.0467284768211921	-0.63194701986755	27.447417218543	77.7064900662252	-27.0802649006623				0.208529801324503	-0.0965298013245033	-0.501721854304636	73.0429139072848	41.3435761589404	-4.53562913907285				0.420026490066225	-0.0445033112582781	0.0379337748344371	-10.4082119205298	-58.4680794701987	7.78251655629139				0.159788079470199	-0.142834437086093	-0.452238410596026	17.3803973509934	29.5576158940397	-41.914701986755			
76	1540	0.663841059602649	0.546754966887417	-0.615523178807947	-15.6466225165563	112.975364238411	11.1350993377483				0.560953642384106	0.111788079470199	0.0931390728476822	-6.28609271523179	22.4278145695364	-19.3459602649007				0.501827814569536	0.0467284768211921	-0.45594701986755	47.0474172185431	71.2664900662252	-17.2802649006623				0.288529801324503	-0.208529801324503	-0.485721854304636	73.0429139072848	38.5435761589404	-7.05562913907285				0.436026490066225	-0.0125033112582781	0.0539337748344371	-8.4482119205298	-56.5080794701987	6.10251655629139				0.255788079470199	-0.270834437086093	-0.420238410596026	7.30039735099338	18.0776158940397	-31.834701986755			
77	1560	0.791841059602649	0.530754966887417	-0.679523178807947	-0.806622516556291	74.6153642384106	2.73509933774834				0.576953642384106	0.207788079470199	0.285139072847682	-3.20609271523179	-5.29218543046358	-15.7059602649007				0.533827814569536	-0.0652715231788079	-0.19994701986755	11.767417218543	68.7464900662252	4.27973509933775				0.368529801324503	-0.272529801324503	-0.485721854304636	62.1229139072848	24.5435761589404	-8.73562913907285				0.452026490066225	0.0354966887417219	0.0379337748344371	-14.8882119205298	-46.4280794701987	0.782516556291392				0.319788079470199	-0.254834437086093	-0.484238410596026	-36.0996026490066	12.1976158940397	-24.274701986755			
78	1580	0.855841059602649	0.322754966887417	-0.743523178807947	40.3533774834437	29.5353642384106	3.85509933774834				0.528953642384106	0.111788079470199	-0.0348609271523178	16.3939072847682	-27.9721854304636	-9.26596026490066				0.661827814569536	-0.209271523178808	-0.29594701986755	20.1674172185431	31.5064900662252	12.3997350993378				0.480529801324503	-0.272529801324503	-0.517721854304636	41.9629139072848	12.7835761589404	-7.33562913907285				0.564026490066225	0.131496688741722	-0.0100662251655629	-19.9282119205298	-29.6280794701987	-1.45748344370861				0.351788079470199	-0.142834437086093	-0.500238410596026	-50.6596026490066	11.6376158940397	-18.954701986755			
79	1600	0.839841059602649	-0.0772450331125828	-0.487523178807947	59.3933774834437	13.2953642384106	7.77509933774834				0.704953642384106	0.0637880794701987	-0.0828609271523179	8.83390728476821	0.307814569536424	-6.46596026490066				0.757827814569536	-0.225271523178808	-0.39194701986755	30.247417218543	-0.973509933774833	6.51973509933775				0.592529801324503	-0.208529801324503	-0.517721854304636	12.8429139072848	4.1035761589404	1.90437086092715				0.612026490066225	0.0674966887417219	0.101933774834437	-2.5682119205298	-18.7080794701987	-2.57748344370861				0.351788079470199	-0.110834437086093	-0.516238410596026	-42.2596026490066	7.43761589403974	-13.914701986755			
80	1620	0.967841059602649	-0.413245033112583	-0.263523178807947	49.8733774834437	22.5353642384106	10.8550993377483				0.992953642384106	-0.112211920529801	0.269139072847682	-5.16609271523179	15.9878145695364	-5.34596026490066				0.901827814569536	-0.225271523178808	-0.29594701986755	12.327417218543	9.66649006622517	4.83973509933775				0.672529801324503	-0.192529801324503	-0.533721854304636	5.00291390728477	-1.7764238410596	13.1043708609272				0.708026490066225	0.0194966887417219	0.165933774834437	6.1117880794702	-20.3880794701987	-2.29748344370861				0.463788079470199	-0.126834437086093	-0.644238410596026	-19.2996026490066	4.35761589403974	-12.234701986755			
81	1640	1.04784105960265	-0.493245033112583	-0.199523178807947	0.873377483443709	26.4553642384106	11.4150993377483				1.04095364238411	-0.000211920529801304	0.157139072847682	8.55390728476821	-31.8921854304636	-7.02596026490066				0.965827814569536	-0.129271523178808	-0.23194701986755	-5.03258278145695	14.4264900662252	5.39973509933775				0.704529801324503	-0.192529801324503	-0.581721854304636	14.5229139072848	-6.8164238410596	13.3843708609272				0.916026490066225	-0.0765033112582781	0.181933774834437	14.2317880794702	-12.8280794701987	-0.337483443708608				0.559788079470199	-0.206834437086093	-0.804238410596027	-7.25960264900662	2.11761589403974	-16.714701986755			
82	1660	0.967841059602649	-0.189245033112583	-0.039523178807947	-37.2066225165563	18.8953642384106	4.41509933774834				1.08895364238411	-0.0962119205298013	-0.0508609271523178	20.8739072847682	-15.3721854304636	-7.02596026490066				1.26982781456954	0.0307284768211921	-0.18394701986755	-22.112582781457	14.7064900662252	5.95973509933775				0.752529801324503	-0.224529801324503	-0.629721854304636	19.0029139072848	-8.2164238410596	8.62437086092715				1.15602649006623	-0.0925033112582781	0.213933774834437	8.9117880794702	-13.9480794701987	2.46251655629139				0.719788079470199	-0.286834437086093	-0.836238410596026	1.14039735099338	7.71761589403974	-23.434701986755			
83	1680	0.983841059602649	0.146754966887417	-0.055523178807947	-36.3666225165563	15.2553642384106	-2.58490066225166				1.16895364238411	-0.160211920529801	0.269139072847682	13.5939072847682	16.5478145695364	2.21403973509934				1.31782781456954	-0.129271523178808	-0.19994701986755	-1.67258278145695	9.38649006622517	1.19973509933775				0.816529801324503	-0.240529801324503	-0.709721854304636	29.0829139072848	0.4635761589404	2.74437086092715				1.25202649006623	-0.0605033112582781	0.197933774834437	11.7117880794702	-12.8280794701987	5.54251655629139				0.815788079470199	-0.398834437086093	-0.852238410596026	7.30039735099338	10.5176158940397	-29.034701986755			
84	1700	0.967841059602649	0.290754966887417	-0.087523178807947	-19.5666225165563	23.6553642384106	-3.70490066225166				0.992953642384106	0.0477880794701987	0.349139072847682	-5.16609271523179	0.0278145695364242	-1.42596026490066				0.901827814569536	-0.289271523178808	-0.16794701986755	12.887417218543	4.62649006622517	-4.96026490066225				0.784529801324503	-0.368529801324503	-0.757721854304636	42.2429139072848	20.6235761589404	-3.41562913907285				1.17202649006623	-0.124503311258278	0.0539337748344371	8.6317880794702	-27.9480794701987	9.18251655629139				0.847788079470199	-0.398834437086093	-0.788238410596027	0.860397350993377	5.19761589403974	-25.394701986755			
85	1720	0.919841059602649	0.210754966887417	-0.023523178807947	1.71337748344371	33.4553642384106	-0.904900662251656				0.992953642384106	0.127788079470199	-0.00286092715231785	-18.6060927152318	-1.93218543046358	1.37403973509934				0.789827814569536	-0.113271523178808	-0.13594701986755	-13.432582781457	32.9064900662252	-3.84026490066225				0.656529801324503	-0.448529801324503	-0.709721854304636	32.4429139072848	30.4235761589404	-10.4156291390728				0.948026490066225	-0.0925033112582781	0.00593377483443711	3.8717880794702	-19.2680794701987	6.10251655629139				0.703788079470199	-0.318834437086093	-0.724238410596026	-8.65960264900662	-2.08238410596027	-18.674701986755			
86	1740	0.871841059602649	0.0987549668874172	-0.135523178807947	17.6733774834437	30.0953642384106	-2.30490066225166				0.944953642384106	0.0317880794701987	0.141139072847682	-7.12609271523179	13.7478145695364	4.45403973509934				0.789827814569536	-0.0492715231788079	-0.24794701986755	-36.112582781457	32.9064900662252	-2.72026490066225				0.592529801324503	-0.368529801324503	-0.677721854304636	7.80291390728477	15.8635761589404	-13.2156291390728				0.884026490066225	0.00349668874172187	0.213933774834437	3.5917880794702	3.97192052980133	2.74251655629139				0.655788079470199	-0.318834437086093	-0.660238410596027	-3.33960264900662	-9.08238410596027	-13.074701986755			
87	1760	0.887841059602649	0.0827549668874172	-0.215523178807947	9.27337748344371	21.4153642384106	-6.50490066225166				0.928953642384106	0.0317880794701987	0.205139072847682	12.1939072847682	1.98781456953642	5.01403973509934				0.885827814569536	0.0467284768211921	-0.40794701986755	-15.112582781457	23.3864900662252	-5.80026490066225				0.592529801324503	-0.240529801324503	-0.693721854304636	-5.07708609271523	4.1035761589404	-9.01562913907285				0.852026490066225	0.00349668874172187	0.165933774834437	-6.4882119205298	-6.10807947019868	3.58251655629139				0.687788079470199	-0.286834437086093	-0.724238410596026	7.58039735099338	-11.6023841059603	-2.99470198675497			
88	1780	0.967841059602649	0.0827549668874172	-0.311523178807947	-3.32662251655629	19.1753642384106	-3.98490066225166				0.896953642384106	0.127788079470199	0.0291390728476822	18.0739072847682	-12.2921854304636	1.93403973509934				0.933827814569536	0.0627284768211921	-0.43994701986755	13.447417218543	14.1464900662252	-7.76026490066225				0.624529801324503	-0.272529801324503	-0.629721854304636	-0.317086092715232	1.3035761589404	0.784370860927152				0.868026490066225	-0.0125033112582781	0.0379337748344371	-4.2482119205298	-2.18807947019868	6.38251655629139				0.639788079470199	-0.238834437086093	-0.660238410596027	12.0603973509934	-11.0423841059603	3.44529801324503			
89	1800	0.999841059602649	0.0987549668874172	-0.263523178807947	1.43337748344371	21.1353642384106	-0.904900662251656				0.896953642384106	0.0477880794701987	-0.0188609271523178	9.39390728476821	7.30781456953642	3.89403973509934				0.933827814569536	0.0307284768211921	-0.43994701986755	22.407417218543	6.30649006622517	-5.24026490066225				0.656529801324503	-0.288529801324503	-0.581721854304636	-1.99708609271523	-6.5364238410596	3.86437086092715				0.852026490066225	0.0354966887417219	0.0539337748344371	3.3117880794702	15.4519205298013	6.10251655629139				0.543788079470199	-0.238834437086093	-0.596238410596026	1.70039735099338	-9.64238410596027	6.80529801324503			
90	1820	0.903841059602649	0.0827549668874172	-0.311523178807947	5.07337748344371	16.6553642384106	3.29509933774834				0.928953642384106	0.0637880794701987	0.0771390728476822	4.91390728476821	18.5078145695364	1.93403973509934				0.885827814569536	-0.0332715231788079	-0.34394701986755	11.207417218543	4.34649006622517	-0.20026490066225				0.688529801324503	-0.240529801324503	-0.581721854304636	-11.7970860927152	-8.7764238410596	3.86437086092715				0.884026490066225	-0.0285033112582781	0.133933774834437	8.6317880794702	22.1719205298013	4.98251655629139				0.527788079470199	-0.206834437086093	-0.596238410596026	5.34039735099338	-4.32238410596027	6.52529801324503			
91	1840	0.903841059602649	0.130754966887417	-0.295523178807947	5.91337748344371	9.9353642384106	-1.74490066225166				0.944953642384106	0.127788079470199	0.0931390728476822	8.83390728476821	12.0678145695364	0.53403973509934				0.869827814569536	-0.0332715231788079	-0.26394701986755	3.64741721854305	10.7864900662252	-1.32026490066225				0.720529801324503	-0.208529801324503	-0.597721854304636	-12.6370860927152	-6.5364238410596	1.90437086092715				0.916026490066225	-0.0445033112582781	0.245933774834437	8.3517880794702	17.6919205298013	3.30251655629139				0.543788079470199	-0.238834437086093	-0.596238410596026	14.3003973509934	-2.36238410596027	4.00529801324503			
92	1860	0.967841059602649	0.146754966887417	-0.311523178807947	2.27337748344371	0.695364238410596	-1.74490066225166				1.00895364238411	0.0637880794701987	0.125139072847682	9.39390728476821	10.9478145695364	3.05403973509934				0.933827814569536	-0.0332715231788079	-0.19994701986755	10.367417218543	12.1864900662252	-4.68026490066225				0.736529801324503	-0.192529801324503	-0.581721854304636	-3.67708609271523	-1.2164238410596	-2.29562913907285				0.980026490066225	0.00349668874172187	0.133933774834437	4.4317880794702	3.13192052980133	1.34251655629139				0.607788079470199	-0.302834437086093	-0.612238410596026	15.1403973509934	-1.52238410596026	0.365298013245032			
93	1880	0.967841059602649	0.114754966887417	-0.263523178807947	3.95337748344371	-1.8246357615894	-1.18490066225166				1.00895364238411	0.0157880794701987	0.0931390728476822	2.67390728476821	6.18781456953642	2.49403973509934				0.981827814569536	-0.0172715231788079	-0.21594701986755	8.96741721854305	10.2264900662252	-4.12026490066225				0.752529801324503	-0.192529801324503	-0.613721854304636	7.24291390728477	4.6635761589404	-6.77562913907285				0.996026490066225	0.00349668874172187	0.133933774834437	6.9517880794702	6.21192052980133	-2.29748344370861				0.607788079470199	-0.334834437086093	-0.612238410596026	3.38039735099338	2.95761589403974	0.0852980132450323			
94	1900	0.871841059602649	0.114754966887417	-0.135523178807947	7.31337748344371	5.1753642384106	0.495099337748344				0.976953642384106	0.0317880794701987	0.0611390728476822	6.59390728476821	4.78781456953642	3.61403973509934				0.901827814569536	-0.0972715231788079	-0.26394701986755	8.96741721854305	6.02649006622517	-1.32026490066225				0.736529801324503	-0.208529801324503	-0.629721854304636	12.2829139072848	6.0635761589404	-8.17562913907285				0.996026490066225	0.00349668874172187	0.165933774834437	8.6317880794702	5.93192052980133	-2.01748344370861				0.623788079470199	-0.286834437086093	-0.612238410596026	-2.49960264900662	9.67761589403974	-1.87470198675497			
95	1920	0.919841059602649	0.0827549668874172	-0.151523178807947	3.95337748344371	9.6553642384106	0.775099337748344				0.992953642384106	-0.000211920529801304	0.157139072847682	3.79390728476821	8.70781456953642	5.01403973509934				0.901827814569536	-0.113271523178808	-0.31194701986755	4.20741721854305	10.5064900662252	-0.76026490066225				0.736529801324503	-0.240529801324503	-0.645721854304636	5.56291390728477	2.1435761589404	-9.29562913907285				0.980026490066225	-0.0125033112582781	0.197933774834437	11.1517880794702	5.93192052980133	-2.57748344370861				0.655788079470199	-0.270834437086093	-0.628238410596026	-0.259602649006623	10.2376158940397	-0.474701986754968			
96	1940	0.983841059602649	0.0987549668874172	-0.231523178807947	-1.92662251655629	8.5353642384106	-0.624900662251656				0.992953642384106	-0.000211920529801304	0.141139072847682	-4.60609271523179	-0.532185430463576	4.17403973509934				0.933827814569536	-0.0812715231788079	-0.32794701986755	-7.55258278145695	7.14649006622517	-1.32026490066225				0.720529801324503	-0.256529801324503	-0.645721854304636	-0.317086092715232	-2.3364238410596	-9.85562913907285				0	0	0	0	0	0				0	0	0	0	0	0			
97	1960	0.935841059602649	0.130754966887417	-0.247523178807947	-3.88662251655629	9.0953642384106	-2.02490066225166				0.944953642384106	0.0157880794701987	0.0931390728476822	1.27390728476821	-0.532185430463576	3.89403973509934				0.917827814569536	-0.0492715231788079	-0.29594701986755	-2.79258278145695	4.06649006622517	-0.48026490066225				0	0	0	0	0	0				0	0	0	0	0	0				0	0	0	0	0	0			
98	1980	0.903841059602649	0.130754966887417	-0.263523178807947	0.313377483443709	6.5753642384106	-2.30490066225166				1.00895364238411	0.0317880794701987	0.0771390728476822	9.67390728476821	6.18781456953642	3.05403973509934				0.901827814569536	-0.0332715231788079	-0.29594701986755	-5.03258278145695	4.34649006622517	-1.32026490066225				0	0	0	0	0	0				0.948026490066225	-0.0285033112582781	0.165933774834437	2.4717880794702	3.69192052980133	-1.73748344370861				0.703788079470199	-0.334834437086093	-0.676238410596026	2.82039735099338	-3.76238410596027	2.32529801324503			
99	2000	0.903841059602649	0.0827549668874172	-0.247523178807947	1.99337748344371	5.1753642384106	0.215099337748344				0.976953642384106	0.0317880794701987	0.141139072847682	6.03390728476821	-1.65218543046358	2.49403973509934				0.885827814569536	-0.0332715231788079	-0.31194701986755	-2.79258278145695	2.94649006622517	-2.16026490066225				0.656529801324503	-0.224529801324503	-0.629721854304636	-12.3570860927152	-8.7764238410596	-7.89562913907285				0.916026490066225	-0.0285033112582781	0.181933774834437	1.9117880794702	6.77192052980133	-0.897483443708608				0.655788079470199	-0.318834437086093	-0.644238410596026	1.42039735099338	-5.16238410596027	6.80529801324503			
100	2020	0.935841059602649	0.0187549668874172	-0.247523178807947	6.47337748344371	6.8553642384106	1.61509933774834				0.976953642384106	0.0157880794701987	0.109139072847682	1.55390728476821	-5.29218543046358	0.81403973509934				0.901827814569536	-0.00127152317880793	-0.31194701986755	-5.59258278145695	5.18649006622517	-1.32026490066225				0.688529801324503	-0.176529801324503	-0.597721854304636	-11.7970860927152	-12.6964238410596	-8.45562913907285				0.916026490066225	-0.0285033112582781	0.181933774834437	1.0717880794702	6.49192052980132	-0.617483443708608				0.623788079470199	-0.318834437086093	-0.644238410596026	0.300397350993377	-4.60238410596027	13.525298013245			
101	2040	0.951841059602649	0.00275496688741723	-0.247523178807947	3.67337748344371	6.8553642384106	0.775099337748344				0.992953642384106	0.0157880794701987	0.0451390728476822	1.27390728476821	-4.45218543046358	-0.30596026490066				0.933827814569536	-0.00127152317880793	-0.27994701986755	-1.11258278145695	5.46649006622517	-2.72026490066225				0.688529801324503	-0.224529801324503	-0.613721854304636	-5.91708609271523	-10.4564238410596	-7.61562913907285				0.964026490066225	-0.0445033112582781	0.181933774834437	0.791788079470198	6.21192052980133	-0.617483443708608				0.623788079470199	-0.302834437086093	-0.628238410596026	5.34039735099338	-4.60238410596027	15.485298013245			
102	2060	0.919841059602649	0.0987549668874172	-0.231523178807947	-10.3266225165563	3.7753642384106	2.17509933774834				0.992953642384106	0.0157880794701987	0.0771390728476822	2.11390728476821	-7.25218543046358	0.81403973509934				0.933827814569536	-0.0492715231788079	-0.31194701986755	5.32741721854305	4.90649006622517	-3.28026490066225				0.704529801324503	-0.240529801324503	-0.597721854304636	-3.67708609271523	-6.8164238410596	-4.81562913907285				0.980026490066225	-0.0125033112582781	0.165933774834437	-0.328211920529802	2.85192052980133	-0.897483443708608				0.607788079470199	-0.286834437086093	-0.612238410596026	1.42039735099338	-3.76238410596027	12.685298013245			
103	2080	0.903841059602649	0.130754966887417	-0.167523178807947	-7.24662251655629	9.0953642384106	2.45509933774835				0.944953642384106	0.0157880794701987	0.0451390728476822	4.07390728476821	-10.0521854304636	2.77403973509934				0.885827814569536	-0.0972715231788079	-0.31194701986755	5.88741721854305	2.10649006622517	-5.52026490066225				0.720529801324503	-0.208529801324503	-0.629721854304636	-0.877086092715232	-6.2564238410596	-5.09562913907285				0.980026490066225	-0.0285033112582781	0.181933774834437	1.6317880794702	0.331920529801325	-0.337483443708608				0.607788079470199	-0.302834437086093	-0.628238410596026	5.62039735099338	-1.80238410596026	6.80529801324503			
104	2100	0.951841059602649	0.146754966887417	-0.151523178807947	3.11337748344371	9.0953642384106	1.61509933774834				0.992953642384106	0.0157880794701987	0.0291390728476822	2.95390728476821	-4.73218543046358	2.77403973509934				0.869827814569536	-0.0492715231788079	-0.23194701986755	2.80741721854305	11.6264900662252	-4.40026490066225				0.720529801324503	-0.176529801324503	-0.629721854304636	0.242913907284768	-6.5364238410596	-8.17562913907285				0.980026490066225	-0.0285033112582781	0.181933774834437	1.9117880794702	-9.18807947019868	0.502516556291392				0.623788079470199	-0.302834437086093	-0.660238410596027	3.66039735099338	3.23761589403974	4.00529801324503			
105	2120	0.967841059602649	0.114754966887417	-0.167523178807947	4.23337748344371	7.1353642384106	1.61509933774834				1.02495364238411	0.0317880794701987	0.0451390728476822	-3.76609271523179	3.38781456953642	2.77403973509934				0.965827814569536	-0.0492715231788079	-0.24794701986755	-1.95258278145695	6.30649006622517	-3.28026490066225				0.720529801324503	-0.240529801324503	-0.629721854304636	3.88291390728477	-7.3764238410596	-6.49562913907285				0.964026490066225	-0.0285033112582781	0.165933774834437	2.7517880794702	-11.9880794701987	1.90251655629139				0.607788079470199	-0.302834437086093	-0.724238410596026	-3.61960264900662	7.43761589403974	2.32529801324503			
106	2140	0.983841059602649	0.0827549668874172	-0.215523178807947	6.19337748344371	8.5353642384106	-0.0649006622516557				1.04095364238411	0.0317880794701987	0.0611390728476822	-1.80609271523179	-1.37218543046358	3.33403973509934				0.981827814569536	-0.0652715231788079	-0.31194701986755	3.64741721854305	3.50649006622517	-3.56026490066225				0.672529801324503	-0.304529801324503	-0.661721854304636	11.4429139072848	-6.2564238410596	-0.0556291390728476				0.964026490066225	-0.0285033112582781	0.101933774834437	4.7117880794702	-10.3080794701987	3.30251655629139				0.591788079470199	-0.302834437086093	-0.708238410596026	-7.81960264900662	5.75761589403974	0.925298013245032			
107	2160	0.951841059602649	0.0667549668874172	-0.247523178807947	5.07337748344371	7.4153642384106	1.05509933774834				1.00895364238411	-0.000211920529801304	0.0771390728476822	-2.92609271523179	-3.05218543046358	4.45403973509934				0.933827814569536	-0.0172715231788079	-0.31194701986755	2.80741721854305	1.54649006622517	-4.12026490066225				0.672529801324503	-0.304529801324503	-0.693721854304636	7.24291390728477	-11.0164238410596	2.18437086092715				0.964026490066225	-0.0605033112582781	0.0859337748344371	9.4717880794702	-1.90807947019868	3.02251655629139				0.607788079470199	-0.334834437086093	-0.692238410596026	-6.97960264900662	3.51761589403974	5.96529801324503			
108	2180	0.935841059602649	0.0347549668874172	-0.279523178807947	6.19337748344371	3.4953642384106	0.215099337748344				0.976953642384106	-0.000211920529801304	0.0451390728476822	-3.48609271523179	-6.41218543046358	3.61403973509934				0.917827814569536	0.0307284768211921	-0.29594701986755	8.68741721854305	4.06649006622517	-1.88026490066225				0.656529801324503	-0.320529801324503	-0.693721854304636	-7.31708609271523	-14.9364238410596	-1.73562913907285				0.948026490066225	-0.108503311258278	0.133933774834437	7.7917880794702	3.13192052980133	2.74251655629139				0.639788079470199	-0.366834437086093	-0.692238410596026	-6.13960264900662	0.157615894039735	12.965298013245			
109	2200	0.919841059602649	0.0507549668874172	-0.247523178807947	1.43337748344371	3.4953642384106	0.215099337748344				0.960953642384106	0.0477880794701987	0.0131390728476822	-1.52609271523179	-6.41218543046358	1.93403973509934				0.885827814569536	-0.0652715231788079	-0.27994701986755	11.767417218543	3.22649006622517	0.35973509933775				0.624529801324503	-0.288529801324503	-0.661721854304636	-15.9970860927152	-15.4964238410596	-2.29562913907285				0.948026490066225	-0.0925033112582781	0.117933774834437	2.7517880794702	1.73192052980133	0.782516556291392				0.639788079470199	-0.318834437086093	-0.692238410596026	-9.21960264900662	-3.20238410596026	10.725298013245			
110	2220	0.935841059602649	0.0987549668874172	-0.231523178807947	1.71337748344371	4.3353642384106	2.17509933774834				0.976953642384106	-0.000211920529801304	0.0451390728476822	1.55390728476821	-3.61218543046358	4.17403973509934				0.901827814569536	-0.0652715231788079	-0.27994701986755	7.00741721854305	5.46649006622517	0.63973509933775				0.624529801324503	-0.240529801324503	-0.629721854304636	-13.1970860927152	-13.5364238410596	-1.17562913907285				0.948026490066225	-0.0445033112582781	0.133933774834437	-1.1682119205298	0.891920529801325	-0.337483443708608				0.607788079470199	-0.270834437086093	-0.676238410596026	-6.69960264900662	-6.56238410596027	5.96529801324503			
111	2240	0.935841059602649	0.0987549668874172	-0.231523178807947	4.23337748344371	6.2953642384106	0.215099337748344				1.02495364238411	-0.0642119205298013	0.0771390728476822	-0.406092715231788	-4.17218543046358	6.13403973509934				0.933827814569536	-0.0492715231788079	-0.27994701986755	4.76741721854305	2.10649006622517	-0.76026490066225				0.640529801324503	-0.192529801324503	-0.645721854304636	-4.79708609271523	-9.0564238410596	-0.335629139072848				0.948026490066225	-0.0285033112582781	0.133933774834437	0.511788079470198	-2.18807947019868	0.502516556291392				0.591788079470199	-0.286834437086093	-0.660238410596027	-1.65960264900662	-6.56238410596027	5.40529801324503			
112	2260	0.951841059602649	0.0667549668874172	-0.247523178807947	2.83337748344371	2.3753642384106	-2.58490066225166				0.992953642384106	-0.000211920529801304	0.0611390728476822	-2.92609271523179	-4.17218543046358	2.77403973509934				0.965827814569536	-0.0172715231788079	-0.29594701986755	5.60741721854305	2.94649006622517	-1.60026490066225				0.640529801324503	-0.208529801324503	-0.661721854304636	2.20291390728477	-5.6964238410596	0.784370860927152				0.964026490066225	-0.0605033112582781	0.133933774834437	2.7517880794702	-3.30807947019868	1.62251655629139				0.575788079470199	-0.318834437086093	-0.660238410596027	1.42039735099338	-2.92238410596027	7.36529801324503			
113	2280	0.935841059602649	0.0827549668874172	-0.215523178807947	-0.526622516556291	0.415364238410596	-1.46490066225166				0.960953642384106	0.0317880794701987	0.0611390728476822	-5.16609271523179	2.26781456953642	-0.0259602649006601				0.901827814569536	-0.0492715231788079	-0.27994701986755	3.08741721854305	2.10649006622517	-0.48026490066225				0.640529801324503	-0.240529801324503	-0.645721854304636	4.72291390728477	-1.7764238410596	-0.335629139072848				0.980026490066225	-0.0605033112582781	0.117933774834437	2.7517880794702	-5.26807947019868	2.74251655629139				0.591788079470199	-0.318834437086093	-0.644238410596026	-1.37960264900662	1.27761589403974	8.20529801324503			
114	2300	0.919841059602649	0.0827549668874172	-0.199523178807947	0.313377483443709	5.1753642384106	-0.344900662251656				0.976953642384106	-0.0162119205298013	0.0451390728476822	-4.32609271523179	3.94781456953642	1.37403973509934				0.885827814569536	-0.0652715231788079	-0.24794701986755	0.287417218543046	0.706490066225167	0.0797350993377501				0.640529801324503	-0.240529801324503	-0.645721854304636	4.44291390728477	2.1435761589404	-2.29562913907285				0.948026490066225	-0.0445033112582781	0.133933774834437	2.4717880794702	-4.42807947019868	2.18251655629139				0.591788079470199	-0.302834437086093	-0.644238410596026	-2.49960264900662	3.79761589403974	4.56529801324503			
115	2320	0.919841059602649	0.0987549668874172	-0.183523178807947	1.15337748344371	6.0153642384106	-0.624900662251656				0.976953642384106	-0.000211920529801304	0.0771390728476822	-6.84609271523179	0.307814569536424	1.93403973509934				0.933827814569536	-0.0492715231788079	-0.27994701986755	-0.552582781456954	2.10649006622517	-0.48026490066225				0.656529801324503	-0.240529801324503	-0.661721854304636	6.68291390728477	4.1035761589404	-2.85562913907285				0.932026490066225	-0.0605033112582781	0.165933774834437	2.7517880794702	-5.26807947019868	0.782516556291392				0.591788079470199	-0.302834437086093	-0.644238410596026	-1.37960264900662	3.79761589403974	1.76529801324503			
116	2340	0.951841059602649	0.0507549668874172	-0.183523178807947	0.313377483443709	5.4553642384106	-2.86490066225166				0.976953642384106	0.0157880794701987	0.0771390728476822	-5.44609271523179	-1.09218543046358	1.65403973509934				0.917827814569536	-0.0332715231788079	-0.23194701986755	-0.832582781456954	3.22649006622517	-1.04026490066225				0.656529801324503	-0.256529801324503	-0.661721854304636	9.48291390728477	4.6635761589404	-3.13562913907285				0.964026490066225	-0.0605033112582781	0.149933774834437	-0.0482119205298018	-8.62807947019868	1.06251655629139				0.607788079470199	-0.318834437086093	-0.660238410596027	-0.819602649006623	2.95761589403974	-0.194701986754968			
117	2360	0.951841059602649	0.0507549668874172	-0.183523178807947	0.0333774834437086	2.0953642384106	-0.904900662251656				0.960953642384106	0.0157880794701987	0.0611390728476822	-4.60609271523179	1.14781456953642	0.25403973509934				0.917827814569536	-0.0492715231788079	-0.26394701986755	-1.67258278145695	2.38649006622517	-1.88026490066225				0.656529801324503	-0.240529801324503	-0.677721854304636	7.24291390728477	2.7035761589404	-2.85562913907285				0.948026490066225	-0.0445033112582781	0.133933774834437	-1.1682119205298	-8.62807947019868	1.06251655629139				0.607788079470199	-0.318834437086093	-0.660238410596027	-0.539602649006623	2.67761589403974	-1.03470198675497			
118	2380	0.935841059602649	0.0667549668874172	-0.167523178807947	-1.64662251655629	4.3353642384106	0.215099337748344				0.976953642384106	0.0317880794701987	0.0611390728476822	-1.80609271523179	1.70781456953642	0.25403973509934				0.901827814569536	-0.0332715231788079	-0.26394701986755	1.96741721854305	2.94649006622517	-1.60026490066225				0.672529801324503	-0.240529801324503	-0.677721854304636	1.92291390728477	1.8635761589404	-3.41562913907285				0.932026490066225	-0.0125033112582781	0.133933774834437	1.9117880794702	-6.38807947019868	1.62251655629139				0.623788079470199	-0.318834437086093	-0.676238410596026	-2.77960264900662	3.51761589403974	-1.59470198675497			
119	2400	0.935841059602649	0.0987549668874172	-0.183523178807947	-3.04662251655629	4.6153642384106	0.215099337748344				0.976953642384106	0.0157880794701987	0.0611390728476822	3.51390728476821	-2.21218543046358	1.37403973509934				0.917827814569536	-0.0652715231788079	-0.24794701986755	1.12741721854305	2.66649006622517	-1.04026490066225				0.656529801324503	-0.240529801324503	-0.645721854304636	-0.597086092715232	0.7435761589404	-2.85562913907285				0.948026490066225	-0.0445033112582781	0.0859337748344371	-0.0482119205298018	-7.50807947019868	0.782516556291392				0.607788079470199	-0.318834437086093	-0.692238410596026	-1.09960264900662	2.39761589403974	-1.59470198675497			
120	2420	0.951841059602649	0.0987549668874172	-0.183523178807947	0.593377483443709	1.5353642384106	-1.18490066225166				0.976953642384106	-0.000211920529801304	0.0291390728476822	1.83390728476821	0.0278145695364242	2.49403973509934				0.933827814569536	-0.0492715231788079	-0.26394701986755	0.287417218543046	4.34649006622517	-1.60026490066225				0.656529801324503	-0.256529801324503	-0.645721854304636	1.92291390728477	1.0235761589404	-1.17562913907285				0.964026490066225	-0.0765033112582781	0.133933774834437	-0.328211920529802	-0.788079470198675	1.06251655629139				0.607788079470199	-0.286834437086093	-0.692238410596026	-0.819602649006623	0.157615894039735	-1.31470198675497			
121	2440	0.919841059602649	0.0507549668874172	-0.199523178807947	-0.246622516556291	-0.704635761589404	-0.0649006622516557				0.960953642384106	0.0157880794701987	0.0611390728476822	-4.04609271523179	5.62781456953642	0.25403973509934				0.949827814569536	-0.0332715231788079	-0.27994701986755	0.567417218543046	2.94649006622517	-4.12026490066225				0.656529801324503	-0.224529801324503	-0.677721854304636	1.64291390728477	2.4235761589404	-1.45562913907285				0.948026490066225	-0.0445033112582781	0.133933774834437	-1.1682119205298	-2.18807947019868	0.502516556291392				0.607788079470199	-0.286834437086093	-0.708238410596026	-1.93960264900662	-0.402384105960265	-2.43470198675497			
122	2460	0.935841059602649	0.0507549668874172	-0.183523178807947	-1.64662251655629	2.6553642384106	1.33509933774834				0.992953642384106	0.0157880794701987	0.0931390728476822	-1.80609271523179	3.38781456953642	0.53403973509934				0.901827814569536	-0.0492715231788079	-0.26394701986755	3.64741721854305	1.26649006622517	-4.12026490066225				0.656529801324503	-0.224529801324503	-0.661721854304636	1.08291390728477	3.2635761589404	-1.17562913907285				0.964026490066225	-0.0285033112582781	0.0859337748344371	-0.888211920529802	-6.38807947019868	1.34251655629139				0.591788079470199	-0.286834437086093	-0.692238410596026	-0.539602649006623	-1.24238410596026	-1.59470198675497			
123	2480	0.951841059602649	0.0507549668874172	-0.215523178807947	-4.72662251655629	3.4953642384106	0.495099337748344				0.992953642384106	-0.0162119205298013	0.0131390728476822	1.55390728476821	-0.252185430463576	1.09403973509934				0.917827814569536	-0.0332715231788079	-0.26394701986755	3.08741721854305	2.10649006622517	-3.28026490066225				0.640529801324503	-0.240529801324503	-0.629721854304636	1.36291390728477	2.4235761589404	-0.895629139072848				0.964026490066225	-0.0605033112582781	0.101933774834437	4.1517880794702	-4.14807947019868	2.46251655629139				0.591788079470199	-0.318834437086093	-0.692238410596026	-1.09960264900662	0.157615894039735	-0.474701986754968			
124	2500	0.951841059602649	0.0827549668874172	-0.215523178807947	-3.88662251655629	4.0553642384106	-1.18490066225166				0.960953642384106	-0.0322119205298013	0.0131390728476822	1.55390728476821	3.38781456953642	1.37403973509934				0.917827814569536	-0.0652715231788079	-0.27994701986755	0.567417218543046	2.66649006622517	-3.56026490066225				0.640529801324503	-0.240529801324503	-0.645721854304636	2.76291390728477	1.3035761589404	-0.0556291390728476				0.980026490066225	-0.0605033112582781	0.0859337748344371	5.2717880794702	-3.58807947019868	2.74251655629139				0.591788079470199	-0.302834437086093	-0.708238410596026	-0.819602649006623	-0.122384105960265	-2.71470198675497			
125	2520	0.951841059602649	0.0827549668874172	-0.215523178807947	-4.44662251655629	3.2153642384106	-1.46490066225166				0.976953642384106	0.0157880794701987	0.0611390728476822	2.11390728476821	5.90781456953642	1.93403973509934				0.949827814569536	-0.0492715231788079	-0.29594701986755	-1.39258278145695	1.82649006622517	-3.84026490066225				0.672529801324503	-0.256529801324503	-0.677721854304636	6.12291390728477	0.4635761589404	-1.17562913907285				0.980026490066225	-0.0605033112582781	0.0859337748344371	1.9117880794702	-6.94807947019868	3.02251655629139				0.607788079470199	-0.286834437086093	-0.708238410596026	-1.93960264900662	0.157615894039735	-2.71470198675497			
126	2540	0.935841059602649	0.0507549668874172	-0.215523178807947	-3.32662251655629	2.6553642384106	-0.344900662251656				0.976953642384106	0.0157880794701987	0.0931390728476822	-0.406092715231788	3.10781456953642	1.93403973509934				0.917827814569536	-0.0652715231788079	-0.32794701986755	2.80741721854305	0.986490066225167	-3.00026490066225				0.688529801324503	-0.256529801324503	-0.693721854304636	4.16291390728477	1.0235761589404	-2.29562913907285				0.948026490066225	-0.0445033112582781	0.0699337748344371	3.0317880794702	-8.06807947019868	3.58251655629139				0.607788079470199	-0.302834437086093	-0.692238410596026	-0.819602649006623	-0.122384105960265	-1.03470198675497			
127	2560	0.935841059602649	0.0827549668874172	-0.215523178807947	-1.92662251655629	4.6153642384106	-0.624900662251656				1.02495364238411	0.0157880794701987	0.0611390728476822	-1.80609271523179	1.98781456953642	2.49403973509934				0.917827814569536	-0.0172715231788079	-0.29594701986755	-0.272582781456954	2.10649006622517	-1.32026490066225				0.656529801324503	-0.256529801324503	-0.661721854304636	1.64291390728477	-0.6564238410596	-3.13562913907285				0.948026490066225	-0.0605033112582781	0.0699337748344371	4.4317880794702	-4.70807947019868	1.90251655629139				0.591788079470199	-0.318834437086093	-0.692238410596026	0.860397350993377	-2.08238410596027	-0.754701986754968			
128	2580	0.951841059602649	0.146754966887417	-0.215523178807947	0.0333774834437086	5.4553642384106	-2.02490066225166				0.992953642384106	0.0157880794701987	0.0291390728476822	-0.686092715231788	-2.77218543046358	2.21403973509934				0.933827814569536	-0.0332715231788079	-0.29594701986755	0.00741721854304636	0.706490066225167	-0.76026490066225				0.672529801324503	-0.256529801324503	-0.677721854304636	4.16291390728477	-2.3364238410596	-2.85562913907285				0.964026490066225	-0.0765033112582781	0.117933774834437	3.5917880794702	-0.788079470198675	1.90251655629139				0.607788079470199	-0.302834437086093	-0.692238410596026	0.860397350993377	-2.08238410596027	-1.31470198675497			
129	2600	0.935841059602649	0.0827549668874172	-0.199523178807947	4.23337748344371	2.9353642384106	-0.624900662251656				0.992953642384106	0.0157880794701987	0.0131390728476822	1.27390728476821	0.587814569536424	2.49403973509934				0.917827814569536	-0.0492715231788079	-0.29594701986755	2.80741721854305	2.38649006622517	-0.76026490066225				0.688529801324503	-0.256529801324503	-0.677721854304636	2.76291390728477	-3.1764238410596	-3.41562913907285				0.964026490066225	-0.0605033112582781	0.0859337748344371	3.0317880794702	-2.18807947019868	1.34251655629139				0.607788079470199	-0.286834437086093	-0.708238410596026	3.38039735099338	-2.92238410596027	-2.71470198675497			
130	2620	0.951841059602649	0.0667549668874172	-0.183523178807947	5.35337748344371	5.1753642384106	-0.624900662251656				1.00895364238411	0.0157880794701987	0.0451390728476822	2.11390728476821	2.26781456953642	2.49403973509934				0.917827814569536	-0.0172715231788079	-0.27994701986755	0.847417218543046	5.18649006622517	-1.04026490066225				0.704529801324503	-0.256529801324503	-0.661721854304636	-0.877086092715232	-3.7364238410596	-2.57562913907285				0.980026490066225	-0.0445033112582781	0.101933774834437	3.8717880794702	-2.18807947019868	0.502516556291392				0.607788079470199	-0.318834437086093	-0.692238410596026	5.06039735099338	-4.04238410596027	-1.87470198675497			
131	2640	0.935841059602649	0.0827549668874172	-0.183523178807947	4.23337748344371	5.7353642384106	-1.46490066225166				0.992953642384106	0.0157880794701987	0.0611390728476822	4.63390728476821	-2.21218543046358	3.05403973509934				0.917827814569536	-0.0172715231788079	-0.26394701986755	-0.552582781456954	6.58649006622517	-0.76026490066225				0.688529801324503	-0.240529801324503	-0.661721854304636	-0.317086092715232	-4.0164238410596	-1.73562913907285				0.996026490066225	-0.0445033112582781	0.117933774834437	5.2717880794702	-1.90807947019868	1.06251655629139				0.607788079470199	-0.350834437086093	-0.676238410596026	2.26039735099338	-3.48238410596027	0.0852980132450323			
132	2660	0.935841059602649	0.0827549668874172	-0.167523178807947	4.79337748344371	6.2953642384106	-0.344900662251656				0.976953642384106	-0.0162119205298013	0.0611390728476822	4.91390728476821	-1.37218543046358	3.33403973509934				0.949827814569536	-0.0172715231788079	-0.26394701986755	0.847417218543046	4.90649006622517	0.0797350993377501				0.672529801324503	-0.240529801324503	-0.645721854304636	2.48291390728477	-4.5764238410596	-1.17562913907285				0.980026490066225	-0.0445033112582781	0.0859337748344371	5.8317880794702	-3.86807947019868	1.62251655629139				0.607788079470199	-0.318834437086093	-0.692238410596026	-1.37960264900662	-2.92238410596027	-1.59470198675497			
133	2680	0.951841059602649	0.0667549668874172	-0.183523178807947	5.63337748344371	5.7353642384106	-0.904900662251656				0.976953642384106	0.0157880794701987	0.0771390728476822	0.713907284768212	1.42781456953642	1.65403973509934				0.917827814569536	-0.0332715231788079	-0.26394701986755	6.72741721854305	6.02649006622517	0.35973509933775				0.656529801324503	-0.240529801324503	-0.677721854304636	5.00291390728477	-2.6164238410596	-2.01562913907285				0.948026490066225	-0.0605033112582781	0.101933774834437	4.9917880794702	-4.42807947019868	1.06251655629139				0.607788079470199	-0.286834437086093	-0.676238410596026	-1.09960264900662	-3.48238410596027	-3.27470198675497			
134	2700	0.951841059602649	0.0827549668874172	-0.151523178807947	2.55337748344371	5.1753642384106	-0.0649006622516557				0.992953642384106	-0.0162119205298013	0.0771390728476822	0.993907284768212	-1.37218543046358	2.49403973509934				0.917827814569536	-0.0332715231788079	-0.23194701986755	2.80741721854305	7.42649006622517	-0.20026490066225				0.640529801324503	-0.240529801324503	-0.661721854304636	2.76291390728477	-2.0564238410596	-2.29562913907285				0.948026490066225	-0.0445033112582781	0.101933774834437	4.9917880794702	-5.26807947019868	0.782516556291392				0.591788079470199	-0.270834437086093	-0.692238410596026	2.26039735099338	-3.48238410596027	-3.55470198675497			
135	2720	0.951841059602649	0.0507549668874172	-0.167523178807947	2.27337748344371	4.8953642384106	-1.46490066225166				0.960953642384106	-0.0162119205298013	0.0451390728476822	0.713907284768212	-2.21218543046358	2.49403973509934				0.949827814569536	-0.0332715231788079	-0.23194701986755	-2.23258278145695	4.90649006622517	0.91973509933775				0.640529801324503	-0.224529801324503	-0.645721854304636	1.36291390728477	-3.4564238410596	-3.41562913907285				0.948026490066225	-0.0605033112582781	0.0859337748344371	4.4317880794702	-4.14807947019868	1.06251655629139				0.575788079470199	-0.302834437086093	-0.676238410596026	4.22039735099338	-1.24238410596026	-2.99470198675497			
136	2740	0.951841059602649	0.0667549668874172	-0.151523178807947	-0.526622516556291	3.7753642384106	-1.18490066225166				0.944953642384106	-0.000211920529801304	0.0611390728476822	0.153907284768212	3.38781456953642	0.25403973509934				0.949827814569536	-0.0492715231788079	-0.23194701986755	-1.67258278145695	0.986490066225167	0.63973509933775				0.640529801324503	-0.224529801324503	-0.645721854304636	2.76291390728477	-3.4564238410596	-4.81562913907285				0.948026490066225	-0.0605033112582781	0.0859337748344371	3.5917880794702	-4.98807947019868	2.46251655629139				0.591788079470199	-0.318834437086093	-0.676238410596026	1.98039735099338	0.157615894039735	-3.55470198675497			
137	2760	0.951841059602649	0.0667549668874172	-0.151523178807947	-2.76662251655629	2.0953642384106	-1.46490066225166				0.960953642384106	-0.000211920529801304	0.0771390728476822	3.23390728476821	7.02781456953642	1.37403973509934				0.933827814569536	-0.0172715231788079	-0.23194701986755	-1.67258278145695	1.26649006622517	1.47973509933775				0.656529801324503	-0.240529801324503	-0.645721854304636	5.00291390728477	-2.6164238410596	-3.97562913907285				0.948026490066225	-0.0445033112582781	0.0859337748344371	4.4317880794702	-5.26807947019868	1.90251655629139				0.591788079470199	-0.302834437086093	-0.660238410596027	4.50039735099338	0.437615894039735	-6.35470198675497			
138	2780	0.951841059602649	0.0827549668874172	-0.135523178807947	-1.92662251655629	1.5353642384106	0.495099337748344				0.976953642384106	-0.000211920529801304	0.109139072847682	3.79390728476821	5.90781456953642	1.37403973509934				0.933827814569536	-0.0172715231788079	-0.23194701986755	-2.23258278145695	0.146490066225167	1.47973509933775				0.656529801324503	-0.240529801324503	-0.661721854304636	5.00291390728477	-1.7764238410596	-5.37562913907285				0.948026490066225	-0.0445033112582781	0.0859337748344371	5.2717880794702	-4.42807947019868	1.06251655629139				0.607788079470199	-0.302834437086093	-0.676238410596026	3.66039735099338	0.717615894039735	-6.35470198675497			
139	2800	0.951841059602649	0.130754966887417	-0.151523178807947	-0.806622516556291	1.5353642384106	-0.624900662251656				0.976953642384106	0.0317880794701987	0.0931390728476822	0.713907284768212	4.78781456953642	0.25403973509934				0.933827814569536	-0.0172715231788079	-0.24794701986755	-2.51258278145695	0.706490066225167	0.63973509933775				0.672529801324503	-0.224529801324503	-0.645721854304636	4.44291390728477	-1.4964238410596	-6.21562913907285				0.964026490066225	-0.0605033112582781	0.101933774834437	4.4317880794702	-3.86807947019868	-0.617483443708608				0.591788079470199	-0.318834437086093	-0.676238410596026	5.34039735099338	-0.682384105960265	-4.11470198675497			
140	2820	0.951841059602649	0.114754966887417	-0.151523178807947	0.593377483443709	2.0953642384106	-1.18490066225166				0.992953642384106	0.0317880794701987	0.0771390728476822	-1.24609271523179	4.50781456953642	0.53403973509934				0.933827814569536	-0.0332715231788079	-0.24794701986755	-0.272582781456954	2.66649006622517	0.91973509933775				0.672529801324503	-0.240529801324503	-0.661721854304636	6.68291390728477	-2.3364238410596	-5.37562913907285				0.948026490066225	-0.0445033112582781	0.101933774834437	3.8717880794702	-2.74807947019868	0.222516556291392				0.591788079470199	-0.318834437086093	-0.660238410596027	2.54039735099338	0.717615894039735	-3.83470198675497			
141	2840	0.951841059602649	0.0827549668874172	-0.151523178807947	4.79337748344371	0.975364238410596	-1.18490066225166				0.976953642384106	0.0317880794701987	0.0771390728476822	3.23390728476821	1.42781456953642	0.53403973509934				0.933827814569536	-0.0492715231788079	-0.24794701986755	-0.272582781456954	1.82649006622517	2.59973509933775				0.672529801324503	-0.256529801324503	-0.677721854304636	4.16291390728477	-2.8964238410596	-5.93562913907285				0.948026490066225	-0.0445033112582781	0.117933774834437	4.9917880794702	0.611920529801325	-0.337483443708608				0.607788079470199	-0.318834437086093	-0.660238410596027	1.98039735099338	0.157615894039735	-5.23470198675497			
142	2860	0.951841059602649	0.0507549668874172	-0.151523178807947	4.79337748344371	-0.144635761589404	-0.0649006622516557				0.960953642384106	-0.000211920529801304	0.0931390728476822	8.55390728476821	2.54781456953642	0.25403973509934				0.901827814569536	-0.0332715231788079	-0.26394701986755	0.567417218543046	-0.973509933774833	2.03973509933775				0.672529801324503	-0.240529801324503	-0.661721854304636	-0.597086092715232	-1.4964238410596	-6.77562913907285				0.948026490066225	-0.0445033112582781	0.101933774834437	5.8317880794702	0.611920529801325	-2.29748344370861				0.623788079470199	-0.302834437086093	-0.660238410596027	4.50039735099338	-2.08238410596027	-5.23470198675497			
143	2880	0.935841059602649	0.0827549668874172	-0.151523178807947	1.43337748344371	-1.2646357615894	0.215099337748344				0.992953642384106	0.0157880794701987	0.109139072847682	9.11390728476821	2.82781456953642	1.09403973509934				0.933827814569536	0.0147284768211921	-0.26394701986755	0.567417218543046	1.26649006622517	1.47973509933775				0.656529801324503	-0.224529801324503	-0.645721854304636	-1.99708609271523	-2.3364238410596	-6.21562913907285				0.948026490066225	-0.0285033112582781	0.101933774834437	5.8317880794702	1.73192052980133	-2.57748344370861				0.607788079470199	-0.302834437086093	-0.676238410596026	1.98039735099338	-2.64238410596027	-6.35470198675497			
144	2900	0.951841059602649	0.0667549668874172	-0.167523178807947	2.55337748344371	0.695364238410596	-0.0649006622516557				1.00895364238411	-0.000211920529801304	0.0771390728476822	4.63390728476821	2.54781456953642	1.65403973509934				0.949827814569536	-0.00127152317880793	-0.26394701986755	4.48741721854305	3.22649006622517	1.47973509933775				0.672529801324503	-0.224529801324503	-0.661721854304636	1.08291390728477	-3.4564238410596	-5.37562913907285				0.964026490066225	-0.0445033112582781	0.101933774834437	6.9517880794702	1.45192052980132	-2.57748344370861				0.607788079470199	-0.318834437086093	-0.660238410596027	3.10039735099338	-0.402384105960265	-6.63470198675497			
145	2920	0.967841059602649	0.114754966887417	-0.167523178807947	2.27337748344371	-1.8246357615894	-1.18490066225166				0.960953642384106	0.0317880794701987	0.0611390728476822	2.95390728476821	2.82781456953642	0.25403973509934				0.933827814569536	-0.0492715231788079	-0.24794701986755	7.84741721854305	0.426490066225167	0.91973509933775				0.656529801324503	-0.224529801324503	-0.661721854304636	-0.317086092715232	-2.3364238410596	-5.93562913907285				0.948026490066225	-0.0445033112582781	0.133933774834437	8.6317880794702	6.21192052980133	-2.85748344370861				0.607788079470199	-0.318834437086093	-0.660238410596027	5.90039735099338	-1.80238410596026	-8.59470198675497			
146	2940	0.951841059602649	0.114754966887417	-0.167523178807947	6.19337748344371	-3.2246357615894	-0.624900662251656				0.960953642384106	0.0317880794701987	0.109139072847682	6.31390728476821	1.42781456953642	0.81403973509934				0.901827814569536	-0.0332715231788079	-0.24794701986755	5.60741721854305	-0.133509933774833	0.63973509933775				0.640529801324503	-0.224529801324503	-0.645721854304636	-1.99708609271523	-0.0964238410596001	-8.17562913907285				0.932026490066225	-0.0445033112582781	0.0859337748344371	5.5517880794702	2.29192052980133	-3.13748344370861				0.607788079470199	-0.302834437086093	-0.676238410596026	2.26039735099338	-0.962384105960265	-8.03470198675497			
147	2960	0	0	0	0	0	0				0	0	0	0	0	0				0	0	0	0	0	0				0.656529801324503	-0.208529801324503	-0.629721854304636	1.64291390728477	2.4235761589404	-8.45562913907285				0.948026490066225	-0.0285033112582781	0.117933774834437	3.0317880794702	3.97192052980133	-5.09748344370861				0.575788079470199	-0.286834437086093	-0.676238410596026	1.42039735099338	-0.962384105960265	-7.19470198675497			
148	2980	0.935841059602649	0.0187549668874172	-0.183523178807947	8.15337748344371	-2.6646357615894	0.775099337748344				0.976953642384106	-0.0162119205298013	0.0771390728476822	4.63390728476821	1.42781456953642	1.37403973509934				0.949827814569536	-0.0652715231788079	-0.26394701986755	3.08741721854305	0.986490066225167	2.87973509933775				0	0	0	0	0	0				0	0	0	0	0	0				0	0	0	0	0	0			
149	3000	0.935841059602649	0.0347549668874172	-0.183523178807947	3.39337748344371	-2.1046357615894	0.495099337748344				0.992953642384106	0.0157880794701987	0.0771390728476822	6.59390728476821	0.867814569536424	-0.86596026490066				0.933827814569536	-0.0492715231788079	-0.24794701986755	1.96741721854305	-0.133509933774833	3.43973509933775				0.672529801324503	-0.224529801324503	-0.661721854304636	3.32291390728477	2.4235761589404	-7.33562913907285				0.964026490066225	-0.0605033112582781	0.117933774834437	6.9517880794702	4.81192052980133	-3.13748344370861				0.623788079470199	-0.318834437086093	-0.676238410596026	7.86039735099338	2.67761589403974	-7.75470198675497			
150	3020	0.967841059602649	0.0827549668874172	-0.199523178807947	1.99337748344371	-2.1046357615894	-0.624900662251656				1.00895364238411	-0.000211920529801304	0.0611390728476822	9.39390728476821	1.14781456953642	0.53403973509934				0.933827814569536	-0.0332715231788079	-0.24794701986755	0.287417218543046	-0.973509933774833	2.87973509933775				0.688529801324503	-0.208529801324503	-0.661721854304636	-0.0370860927152318	3.2635761589404	-8.17562913907285				0.980026490066225	-0.0285033112582781	0.117933774834437	6.6717880794702	4.25192052980133	-2.57748344370861				0.639788079470199	-0.334834437086093	-0.676238410596026	2.54039735099338	0.157615894039735	-8.03470198675497			
