No	Time	12-AccX	12-AccY	12-AccZ	12-GyroX	12-GyroY	12-GyroZ	13-AccX	13-AccY	13-AccZ	13-GyroX	13-GyroY	13-GyroZ	14-AccX	14-AccY	14-AccZ	14-GyroX	14-GyroY	14-GyroZ	15-AccX	15-AccY	15-AccZ	15-GyroX	15-GyroY	15-GyroZ	16-AccX	16-AccY	16-AccZ	16-GyroX	16-GyroY	16-GyroZ	17-AccX	17-AccY	17-AccZ	17-GyroX	17-GyroY	17-GyroZ
0	20	0	0	0	0	0	0				0.992953642384106	0.111788079470199	0.317139072847682	-9.92609271523179	3.94781456953642	2.21403973509934				-0.234172185430464	-0.177271523178808	-0.87194701986755	3.08741721854305	1.54649006622517	-1.04026490066225				0.608529801324503	-0.144529801324503	-0.805721854304636	-7.03708609271523	-0.9364238410596	-1.17562913907285				0.980026490066225	0.0514966887417219	0.197933774834437	-2.5682119205298	5.37192052980133	-5.09748344370861				0.527788079470199	-0.142834437086093	-0.820238410596026	3.66039735099338	2.67761589403974	-5.51470198675497			
1	40	-0.232158940397351	0.146754966887417	-0.935523178807947	1.43337748344371	0.695364238410596	-0.624900662251656				0.992953642384106	0.127788079470199	0.221139072847682	1.83390728476821	-1.93218543046358	2.49403973509934				-0.266172185430464	-0.193271523178808	-0.87194701986755	4.20741721854305	0.986490066225167	-1.60026490066225				0.576529801324503	-0.128529801324503	-0.789721854304636	-8.15708609271523	-5.1364238410596	-1.73562913907285				0.996026490066225	0.0514966887417219	0.197933774834437	-3.4082119205298	4.53192052980133	-3.97748344370861				0.527788079470199	-0.142834437086093	-0.804238410596027	-5.01960264900662	4.07761589403974	-3.83470198675497			
2	60	-0.232158940397351	0.146754966887417	-0.935523178807947	1.71337748344371	0.415364238410596	-2.02490066225166				0.944953642384106	0.127788079470199	0.205139072847682	2.39390728476821	1.70781456953642	3.89403973509934				-0.266172185430464	-0.177271523178808	-0.88794701986755	4.20741721854305	2.10649006622517	-2.44026490066225				0.560529801324503	-0.112529801324503	-0.773721854304636	-9.83708609271523	-8.4964238410596	-4.53562913907285				0.964026490066225	0.0834966887417219	0.181933774834437	-1.7282119205298	3.69192052980133	-2.01748344370861				0.527788079470199	-0.0948344370860927	-0.820238410596026	-9.21960264900662	2.95761589403974	-1.31470198675497			
3	80	-0.232158940397351	0.146754966887417	-0.935523178807947	1.99337748344371	0.415364238410596	-2.86490066225166				0.944953642384106	0.0957880794701987	0.269139072847682	-2.92609271523179	6.74781456953642	4.73403973509934				-0.234172185430464	-0.177271523178808	-0.85594701986755	3.08741721854305	2.66649006622517	-2.72026490066225				0.560529801324503	-0.0965298013245033	-0.741721854304636	-11.5170860927152	-7.6564238410596	-8.73562913907285				0.932026490066225	0.0994966887417219	0.165933774834437	0.791788079470198	2.85192052980133	-0.897483443708608				0.495788079470199	-0.0628344370860927	-0.836238410596026	-3.33960264900662	2.95761589403974	-2.99470198675497			
4	100	-0.216158940397351	0.130754966887417	-0.935523178807947	1.99337748344371	0.975364238410596	-2.58490066225166				0.944953642384106	0.0957880794701987	0.301139072847682	-5.72609271523179	10.1078145695364	6.41403973509934				-0.218172185430464	-0.177271523178808	-0.85594701986755	3.36741721854305	2.10649006622517	-2.72026490066225				0.560529801324503	-0.0645298013245033	-0.693721854304636	-8.99708609271523	-6.8164238410596	-11.5356291390728				0.900026490066225	0.0834966887417219	0.181933774834437	1.0717880794702	3.13192052980133	-0.897483443708608				0.495788079470199	-0.0788344370860927	-0.804238410596027	6.74039735099338	2.67761589403974	-4.11470198675497			
5	120	-0.216158940397351	0.130754966887417	-0.935523178807947	1.15337748344371	1.2553642384106	-3.14490066225166				0.912953642384106	0.0797880794701987	0.301139072847682	-4.88609271523179	10.1078145695364	6.69403973509934				-0.202172185430464	-0.193271523178808	-0.87194701986755	3.92741721854305	2.66649006622517	-3.28026490066225				0.528529801324503	-0.0805298013245033	-0.709721854304636	-1.71708609271523	-6.5364238410596	-14.3356291390729				0.900026490066225	0.0674966887417219	0.197933774834437	2.1917880794702	3.97192052980133	1.06251655629139				0.479788079470199	-0.126834437086093	-0.788238410596027	9.54039735099338	2.67761589403974	-3.27470198675497			
6	140	-0.216158940397351	0.130754966887417	-0.935523178807947	0.0333774834437086	0.415364238410596	-3.14490066225166				0.912953642384106	0.0957880794701987	0.253139072847682	-3.76609271523179	7.86781456953642	6.69403973509934				-0.202172185430464	-0.193271523178808	-0.87194701986755	3.64741721854305	0.426490066225167	-2.72026490066225				0.528529801324503	-0.0965298013245033	-0.725721854304636	5.56291390728477	-6.8164238410596	-16.0156291390729				0.900026490066225	0.0674966887417219	0.197933774834437	4.7117880794702	3.97192052980133	2.46251655629139				0.495788079470199	-0.142834437086093	-0.756238410596026	3.66039735099338	4.63761589403974	-0.194701986754968			
7	160	-0.216158940397351	0.130754966887417	-0.919523178807947	-1.08662251655629	-0.704635761589404	-2.02490066225166				0.928953642384106	0.127788079470199	0.253139072847682	-0.126092715231788	9.26781456953642	5.57403973509934				-0.234172185430464	-0.161271523178808	-0.85594701986755	1.96741721854305	-0.693509933774834	-1.88026490066225				0.560529801324503	-0.112529801324503	-0.757721854304636	-0.0370860927152318	-8.4964238410596	-15.7356291390728				0.900026490066225	0.0514966887417219	0.197933774834437	4.1517880794702	3.41192052980132	3.02251655629139				0.527788079470199	-0.142834437086093	-0.756238410596026	-1.37960264900662	4.07761589403974	2.88529801324503			
8	180	-0.216158940397351	0.146754966887417	-0.919523178807947	1.15337748344371	-1.5446357615894	-1.46490066225166				0.944953642384106	0.127788079470199	0.253139072847682	3.79390728476821	11.2278145695364	5.57403973509934				-0.250172185430464	-0.161271523178808	-0.85594701986755	3.64741721854305	-0.133509933774833	0.0797350993377501				0.560529801324503	-0.144529801324503	-0.773721854304636	-5.91708609271523	-11.0164238410596	-12.6556291390728				0.916026490066225	0.0674966887417219	0.181933774834437	2.7517880794702	3.41192052980132	3.30251655629139				0.511788079470199	-0.110834437086093	-0.740238410596026	-1.37960264900662	5.47761589403974	5.68529801324503			
9	200	-0.216158940397351	0.146754966887417	-0.935523178807947	1.71337748344371	-1.8246357615894	-1.18490066225166				0.944953642384106	0.0957880794701987	0.269139072847682	0.713907284768212	13.1878145695364	6.97403973509934				-0.234172185430464	-0.193271523178808	-0.87194701986755	7.00741721854305	0.426490066225167	0.91973509933775				0.544529801324503	-0.144529801324503	-0.789721854304636	-3.67708609271523	-9.0564238410596	-9.57562913907285				0.948026490066225	0.0674966887417219	0.213933774834437	2.1917880794702	2.29192052980133	2.18251655629139				0.543788079470199	-0.0788344370860927	-0.772238410596026	-1.09960264900662	8.55761589403974	6.52529801324503			
10	220	-0.216158940397351	0.130754966887417	-0.935523178807947	1.43337748344371	-2.3846357615894	-0.0649006622516557				0.944953642384106	0.0957880794701987	0.317139072847682	-4.88609271523179	11.5078145695364	7.25403973509934				-0.202172185430464	-0.193271523178808	-0.87194701986755	7.84741721854305	-0.133509933774833	-0.76026490066225				0.576529801324503	-0.128529801324503	-0.789721854304636	-2.55708609271523	-5.1364238410596	-5.09562913907285				0.932026490066225	0.0674966887417219	0.245933774834437	2.7517880794702	3.69192052980133	-0.0574834437086077				0.543788079470199	-0.110834437086093	-0.788238410596027	7.30039735099338	2.67761589403974	3.16529801324503			
11	240	-0.232158940397351	0.130754966887417	-0.951523178807947	1.15337748344371	-2.3846357615894	-0.904900662251656				0.960953642384106	0.0957880794701987	0.317139072847682	-0.406092715231788	6.74781456953642	8.09403973509934				-0.202172185430464	-0.193271523178808	-0.88794701986755	5.60741721854305	-1.25350993377483	-1.60026490066225				0.608529801324503	-0.0805298013245033	-0.773721854304636	-4.23708609271523	-2.8964238410596	-3.97562913907285				0.964026490066225	0.0674966887417219	0.197933774834437	2.1917880794702	1.73192052980133	0.782516556291392				0.559788079470199	-0.158834437086093	-0.788238410596027	12.9003973509934	0.717615894039735	1.76529801324503			
12	260	-0.248158940397351	0.146754966887417	-0.935523178807947	1.43337748344371	-2.1046357615894	-1.18490066225166				0.960953642384106	0.0797880794701987	0.317139072847682	4.91390728476821	2.82781456953642	9.77403973509934				-0.234172185430464	-0.177271523178808	-0.88794701986755	3.08741721854305	-0.973509933774833	-1.88026490066225				0.592529801324503	-0.0805298013245033	-0.773721854304636	-4.23708609271523	-2.8964238410596	-3.69562913907285				0.980026490066225	0.0674966887417219	0.229933774834437	3.3117880794702	3.13192052980133	1.62251655629139				0.559788079470199	-0.158834437086093	-0.788238410596027	6.46039735099338	0.717615894039735	4.00529801324503			
13	280	-0.264158940397351	0.162754966887417	-0.935523178807947	1.99337748344371	-2.1046357615894	-1.46490066225166				0.976953642384106	0.0797880794701987	0.317139072847682	1.55390728476821	4.78781456953642	7.81403973509934				-0.266172185430464	-0.177271523178808	-0.88794701986755	6.16741721854305	-0.413509933774833	-2.44026490066225				0.576529801324503	-0.0645298013245033	-0.789721854304636	0.802913907284768	-0.6564238410596	-4.53562913907285				0.980026490066225	0.0674966887417219	0.213933774834437	4.1517880794702	3.13192052980133	3.02251655629139				0.543788079470199	-0.158834437086093	-0.788238410596027	0.300397350993377	1.83761589403974	5.12529801324503			
14	300	-0.264158940397351	0.146754966887417	-0.935523178807947	2.55337748344371	-1.2646357615894	-0.904900662251656				0.992953642384106	0.0957880794701987	0.301139072847682	-3.20609271523179	6.74781456953642	6.97403973509934				-0.266172185430464	-0.177271523178808	-0.88794701986755	6.16741721854305	0.146490066225167	-2.16026490066225				0.576529801324503	-0.0805298013245033	-0.805721854304636	3.60291390728477	-0.0964238410596001	-8.17562913907285				0.980026490066225	0.0674966887417219	0.213933774834437	6.1117880794702	2.01192052980133	2.46251655629139				0.559788079470199	-0.142834437086093	-0.788238410596027	0.860397350993377	1.83761589403974	7.08529801324503			
15	320	-0.248158940397351	0.130754966887417	-0.919523178807947	2.55337748344371	-0.424635761589404	-1.74490066225166				0.992953642384106	0.0957880794701987	0.333139072847682	-7.96609271523179	7.02781456953642	5.57403973509934				-0.250172185430464	-0.225271523178808	-0.88794701986755	7.84741721854305	3.78649006622517	-4.12026490066225				0.576529801324503	-0.0805298013245033	-0.821721854304636	4.44291390728477	-2.0564238410596	-12.0956291390728				0.980026490066225	0.0514966887417219	0.213933774834437	4.1517880794702	1.73192052980133	1.62251655629139				0.559788079470199	-0.174834437086093	-0.804238410596027	1.98039735099338	5.19761589403974	9.04529801324503			
16	340	-0.232158940397351	0.146754966887417	-0.935523178807947	2.55337748344371	-0.984635761589404	-0.904900662251656				0.976953642384106	0.0477880794701987	0.301139072847682	-9.64609271523179	0.587814569536424	5.57403973509934				-0.186172185430464	-0.225271523178808	-0.87194701986755	12.047417218543	2.94649006622517	-6.64026490066225				0.544529801324503	-0.144529801324503	-0.837721854304636	15.3629139072848	-7.0964238410596	-17.4156291390728				0.964026490066225	0.0514966887417219	0.181933774834437	-0.328211920529802	0.331920529801325	1.06251655629139				0.559788079470199	-0.174834437086093	-0.820238410596026	-5.85960264900662	16.3976158940397	15.205298013245			
17	360	-0.232158940397351	0.130754966887417	-0.935523178807947	2.55337748344371	-1.5446357615894	0.495099337748344				0.912953642384106	0.0317880794701987	0.317139072847682	-9.64609271523179	-2.21218543046358	7.25403973509934				-0.202172185430464	-0.209271523178808	-0.80794701986755	15.127417218543	-3.21350993377483	-7.20026490066225				0.560529801324503	-0.112529801324503	-0.853721854304636	4.16291390728477	-8.4964238410596	-19.9356291390729				0.964026490066225	0.0354966887417219	0.181933774834437	-1.7282119205298	3.13192052980133	-0.0574834437086077				0.559788079470199	-0.254834437086093	-0.772238410596026	8.14039735099338	7.99761589403974	19.125298013245			
18	380	-0.232158940397351	0.0987549668874172	-0.951523178807947	1.99337748344371	-0.984635761589404	-0.0649006622516557				0.944953642384106	0.0317880794701987	0.317139072847682	-7.68609271523179	3.94781456953642	8.37403973509934				-0.234172185430464	-0.177271523178808	-0.87194701986755	5.32741721854305	-3.77350993377483	-3.84026490066225				0.544529801324503	-0.0965298013245033	-0.821721854304636	-7.03708609271523	-11.5764238410596	-19.9356291390729				0.948026490066225	0.0194966887417219	0.197933774834437	-4.5282119205298	1.45192052980132	-1.73748344370861				0.559788079470199	-0.270834437086093	-0.788238410596027	10.9403973509934	-2.92238410596027	28.365298013245			
19	400	-0.248158940397351	0.0987549668874172	-0.951523178807947	0.0333774834437086	-0.424635761589404	-0.904900662251656				0.960953642384106	0.0477880794701987	0.301139072847682	-6.28609271523179	1.42781456953642	8.09403973509934				-0.250172185430464	-0.225271523178808	-0.87194701986755	6.72741721854305	-4.05350993377483	-3.28026490066225				0.528529801324503	-0.112529801324503	-0.805721854304636	-8.15708609271523	-18.8564238410596	-18.5356291390728				0.948026490066225	0.0194966887417219	0.197933774834437	-7.0482119205298	0.0519205298013249	-0.617483443708608				0.543788079470199	-0.238834437086093	-0.836238410596026	2.54039735099338	-1.80238410596026	43.485298013245			
20	420	-0.264158940397351	0.130754966887417	-0.919523178807947	-0.246622516556291	-0.984635761589404	0.215099337748344				0.976953642384106	0.0477880794701987	0.253139072847682	-7.12609271523179	-3.61218543046358	5.57403973509934				-0.250172185430464	-0.209271523178808	-0.85594701986755	10.087417218543	-2.09350993377483	-2.72026490066225				0.560529801324503	-0.0965298013245033	-0.837721854304636	-8.71708609271523	-26.4164238410596	-19.6556291390729				0.948026490066225	0.0354966887417219	0.181933774834437	-8.4482119205298	2.01192052980133	1.62251655629139				0.495788079470199	-0.222834437086093	-0.820238410596026	0.300397350993377	4.07761589403974	52.165298013245			
21	440	-0.264158940397351	0.114754966887417	-0.919523178807947	0.873377483443709	-0.704635761589404	0.215099337748344				0.928953642384106	0.0317880794701987	0.285139072847682	-7.68609271523179	-1.93218543046358	4.73403973509934				-0.234172185430464	-0.225271523178808	-0.83994701986755	5.32741721854305	-1.81350993377483	-0.48026490066225				0.576529801324503	-0.0325298013245033	-0.805721854304636	-10.9570860927152	-31.4564238410596	-21.3356291390729				0.948026490066225	0.0354966887417219	0.197933774834437	-7.3282119205298	0.611920529801325	2.74251655629139				0.447788079470199	-0.238834437086093	-0.804238410596027	6.74039735099338	-1.80238410596026	52.725298013245			
22	460	-0.264158940397351	0.130754966887417	-0.919523178807947	-2.20662251655629	-0.424635761589404	1.61509933774834				0.976953642384106	0.0317880794701987	0.333139072847682	-11.3260927152318	0.867814569536424	4.45403973509934				-0.250172185430464	-0.241271523178808	-0.85594701986755	3.36741721854305	-1.53350993377483	0.0797350993377501				0.576529801324503	-0.0965298013245033	-0.805721854304636	-10.6770860927152	-37.3364238410596	-24.1356291390729				0.948026490066225	0.0674966887417219	0.165933774834437	-2.5682119205298	-1.06807947019868	4.42251655629139				0.495788079470199	-0.206834437086093	-0.804238410596027	7.30039735099338	0.997615894039735	56.365298013245			
23	480	-0.248158940397351	0.130754966887417	-0.951523178807947	-2.48662251655629	-0.144635761589404	0.215099337748344				0.960953642384106	0.0157880794701987	0.317139072847682	-6.84609271523179	-8.37218543046358	3.89403973509934				-0.250172185430464	-0.273271523178808	-0.83994701986755	3.64741721854305	-0.973509933774833	2.31973509933775				0.592529801324503	-0.144529801324503	-0.837721854304636	-11.2370860927152	-35.9364238410596	-23.2956291390729				0.948026490066225	0.0834966887417219	0.165933774834437	1.9117880794702	0.611920529801325	6.66251655629139				0.495788079470199	-0.254834437086093	-0.788238410596027	10.1003973509934	-0.682384105960265	61.965298013245			
24	500	-0.232158940397351	0.130754966887417	-0.983523178807947	-2.76662251655629	0.415364238410596	1.33509933774834				0.976953642384106	0.0157880794701987	0.285139072847682	-3.20609271523179	-8.37218543046358	2.49403973509934				-0.170172185430464	-0.369271523178808	-0.82394701986755	-3.35258278145695	-0.693509933774834	5.39973509933775				0.560529801324503	-0.128529801324503	-0.837721854304636	-12.6370860927152	-37.0564238410596	-23.0156291390729				0.932026490066225	0.0514966887417219	0.213933774834437	6.1117880794702	4.25192052980133	7.78251655629139				0.495788079470199	-0.286834437086093	-0.788238410596027	3.94039735099338	-0.962384105960265	62.525298013245			
25	520	-0.232158940397351	0.114754966887417	-0.983523178807947	-3.32662251655629	0.975364238410596	2.17509933774834				0.960953642384106	-0.000211920529801304	0.237139072847682	-7.68609271523179	-8.65218543046358	2.77403973509934				-0.234172185430464	-0.465271523178808	-0.83994701986755	-11.752582781457	-2.37350993377483	16.3197350993378				0.560529801324503	-0.0325298013245033	-0.837721854304636	-27.1970860927152	-41.5364238410596	-23.0156291390729				0.932026490066225	0.0194966887417219	0.261933774834437	8.3517880794702	11.5319205298013	8.06251655629139				0.543788079470199	-0.302834437086093	-0.788238410596027	-3.05960264900662	-6.84238410596027	62.525298013245			
26	540	-0.232158940397351	0.0987549668874172	-0.967523178807947	-2.48662251655629	2.3753642384106	2.17509933774834				0.960953642384106	-0.000211920529801304	0.317139072847682	-10.2060927152318	1.98781456953642	3.61403973509934				-0.202172185430464	-0.385271523178808	-0.82394701986755	-23.232582781457	1.26649006622517	24.7197350993378				0.656529801324503	-0.0485298013245033	-0.853721854304636	-36.1570860927152	-51.8964238410596	-20.2156291390728				0.980026490066225	0.00349668874172187	0.245933774834437	6.1117880794702	5.93192052980133	9.46251655629139				0.591788079470199	-0.270834437086093	-0.900238410596026	-9.49960264900662	-7.40238410596027	67.845298013245			
27	560	-0.248158940397351	0.0987549668874172	-0.935523178807947	-4.72662251655629	2.9353642384106	1.33509933774834				1.04095364238411	-0.0322119205298013	0.349139072847682	-9.36609271523179	-6.13218543046358	4.73403973509934				-0.250172185430464	-0.177271523178808	-0.90394701986755	-21.272582781457	4.06649006622517	18.8397350993378				0.576529801324503	-0.256529801324503	-0.965721854304636	-36.1570860927152	-51.3364238410596	-12.9356291390728				0.980026490066225	0.0194966887417219	0.245933774834437	-0.888211920529802	7.89192052980133	8.90251655629139				0.623788079470199	-0.190834437086093	-0.916238410596027	6.18039735099338	-0.122384105960265	69.805298013245			
28	580	-0.264158940397351	0.114754966887417	-0.935523178807947	-9.76662251655629	2.0953642384106	2.45509933774835				1.00895364238411	-0.0322119205298013	0.285139072847682	-2.36609271523179	-31.8921854304636	2.49403973509934				-0.250172185430464	-0.0172715231788079	-0.85594701986755	-17.632582781457	-2.65350993377483	13.5197350993378				0.480529801324503	-0.224529801324503	-0.965721854304636	-27.1970860927152	-51.8964238410596	-19.6556291390729				0.948026490066225	-0.0285033112582781	0.213933774834437	0.231788079470198	11.8119205298013	9.74251655629139				0.511788079470199	-0.286834437086093	-0.868238410596026	40.9003973509934	-24.7623841059603	60.285298013245			
29	600	-0.248158940397351	0.130754966887417	-0.951523178807947	-18.4466225165563	4.8953642384106	5.81509933774834				1.05695364238411	-0.0162119205298013	0.333139072847682	-1.24609271523179	-91.8121854304636	3.61403973509934				-0.282172185430464	0.0147284768211921	-0.87194701986755	-21.832582781457	-0.133509933774833	8.47973509933775				0.320529801324503	0.0474701986754967	-0.949721854304636	-45.9570860927152	-81.0164238410596	-20.2156291390728				0.900026490066225	-0.0765033112582781	0.213933774834437	7.2317880794702	16.5719205298013	9.46251655629139				0.463788079470199	-0.430834437086093	-0.820238410596026	35.0203973509934	-44.0823841059603	58.885298013245			
30	620	-0.248158940397351	0.178754966887417	-0.967523178807947	-24.8866225165563	4.3353642384106	10.0150993377483				0.832953642384106	0.0157880794701987	-0.00286092715231785	3.51390728476821	-80.0521854304636	0.81403973509934				-0.282172185430464	-0.0332715231788079	-0.87194701986755	-14.552582781457	1.82649006622517	1.19973509933775				0.320529801324503	0.0954701986754967	-0.965721854304636	-38.9570860927152	-84.0964238410596	-23.8556291390729				0.932026490066225	-0.0765033112582781	0.213933774834437	2.7517880794702	10.9719205298013	7.50251655629139				0.383788079470199	-0.526834437086093	-0.788238410596027	15.4203973509934	-52.4823841059603	78.765298013245			
31	640	-0.200158940397351	0.178754966887417	-0.919523178807947	-28.2466225165563	1.5353642384106	11.4150993377483				0.896953642384106	0.111788079470199	0.157139072847682	-9.36609271523179	-8.93218543046358	-6.46596026490066				-0.250172185430464	-0.0652715231788079	-0.91994701986755	-0.832582781456954	-1.53350993377483	-7.20026490066225				0.368529801324503	-0.0485298013245033	-0.917721854304636	-4.51708609271523	-77.3764238410596	-21.6156291390729				0.948026490066225	-0.0765033112582781	0.117933774834437	-3.1282119205298	7.89192052980133	3.02251655629139				0.255788079470199	-0.462834437086093	-0.788238410596027	-28.2596026490066	-40.7223841059603	101.725298013245			
32	660	-0.168158940397351	0.130754966887417	-0.903523178807947	-27.4066225165563	-4.3446357615894	8.89509933774834				0.912953642384106	0.111788079470199	0.253139072847682	-16.3660927152318	-0.532185430463576	-1.98596026490066				-0.170172185430464	-0.0812715231788079	-0.87194701986755	2.80741721854305	-4.61350993377483	-9.72026490066225				0.256529801324503	-0.176529801324503	-0.981721854304636	-2.55708609271523	-77.6564238410596	-16.5756291390728				0.932026490066225	-0.0445033112582781	0.0859337748344371	-3.9682119205298	16.2919205298013	-4.53748344370861				0.271788079470199	-0.302834437086093	-0.788238410596027	-42.2596026490066	-35.1223841059603	99.485298013245			
33	680	-0.232158940397351	0.146754966887417	-0.903523178807947	-17.0466225165563	-4.3446357615894	6.65509933774834				0.912953642384106	0.0957880794701987	0.157139072847682	-14.9660927152318	12.0678145695364	-3.66596026490066				-0.186172185430464	-0.209271523178808	-0.88794701986755	-7.27258278145696	-2.65350993377483	-7.76026490066225				0.176529801324503	-0.176529801324503	-1.01372185430464	-23.8370860927152	-88.5764238410596	-21.8956291390728				0.916026490066225	-0.0285033112582781	0.0859337748344371	-19.0882119205298	13.2119205298013	-9.01748344370861				0.271788079470199	-0.206834437086093	-0.820238410596026	-19.0196026490066	-44.6423841059603	98.645298013245			
34	700	-0.152158940397351	0.210754966887417	-0.935523178807947	-13.6866225165563	-2.6646357615894	5.81509933774834				0.944953642384106	0.111788079470199	0.157139072847682	-11.3260927152318	27.7478145695364	-4.22596026490066				-0.0901721854304636	-0.353271523178808	-0.85594701986755	-3.63258278145695	-3.21350993377483	0.0797350993377501				0.192529801324503	-0.0485298013245033	-1.01372185430464	-18.2370860927152	-91.9364238410596	-27.7756291390729				0.996026490066225	0.00349668874172187	0.0379337748344371	-17.9682119205298	20.4919205298013	-13.4974834437086				0.207788079470199	-0.142834437086093	-0.836238410596026	-9.49960264900662	-41.5623841059603	96.965298013245			
35	720	-0.104158940397351	0.242754966887417	-0.951523178807947	-13.1266225165563	-0.144635761589404	10.0150993377483				0.880953642384106	0.0957880794701987	0.141139072847682	-11.6060927152318	35.0278145695364	-3.94596026490066				-0.0741721854304636	-0.433271523178808	-0.79194701986755	-5.59258278145695	-3.49350993377483	14.6397350993378				0.224529801324503	0.0314701986754967	-1.02972185430464	-20.1970860927152	-93.0564238410596	-30.0156291390729				0.996026490066225	0.0674966887417219	0.149933774834437	-10.6882119205298	24.6919205298013	-18.8174834437086				0.159788079470199	-0.190834437086093	-0.820238410596026	7.86039735099338	-41.8423841059603	88.845298013245			
36	740	-0.184158940397351	0.210754966887417	-0.887523178807947	-11.1666225165563	-6.5846357615894	11.9750993377483				0.880953642384106	0.0637880794701987	0.285139072847682	-10.2060927152318	46.2278145695364	-0.86596026490066				-0.218172185430464	-0.241271523178808	-0.80794701986755	-10.352582781457	-5.17350993377483	23.3197350993378				0.288529801324503	0.0314701986754967	-0.997721854304636	-26.3570860927152	-96.9764238410596	-30.5756291390729				0.948026490066225	0.147496688741722	0.165933774834437	-9.8482119205298	18.2519205298013	-17.4174834437086				0.239788079470199	-0.222834437086093	-0.820238410596026	1.14039735099338	-44.3623841059603	90.245298013245			
37	760	-0.232158940397351	0.210754966887417	-0.967523178807947	11.2333774834437	-4.3446357615894	7.77509933774834				0.960953642384106	0.0317880794701987	0.317139072847682	-16.0860927152318	58.5478145695364	1.37403973509934				-0.298172185430464	-0.0652715231788079	-0.87194701986755	-6.99258278145695	-4.05350993377483	18.8397350993378				0.272529801324503	-0.0485298013245033	-0.997721854304636	-46.2370860927152	-117.41642384106	-25.2556291390729				0.932026490066225	0.195496688741722	0.117933774834437	-17.4082119205298	12.6519205298013	-10.6974834437086				0.207788079470199	-0.222834437086093	-0.916238410596027	-26.5796026490066	-28.9623841059603	93.325298013245			
38	780	-0.312158940397351	0.226754966887417	-0.951523178807947	17.6733774834437	-1.2646357615894	6.09509933774834				0.960953642384106	0.0477880794701987	0.221139072847682	-11.0460927152318	70.8678145695364	6.97403973509934				-0.330172185430464	0.0147284768211921	-0.95194701986755	-12.312582781457	-3.21350993377483	16.3197350993378				0.0165298013245033	-0.0485298013245033	-1.04572185430464	-70.8770860927152	-119.09642384106	-23.5756291390728				0.900026490066225	0.131496688741722	0.133933774834437	-5.9282119205298	15.1719205298013	-5.65748344370861				0.271788079470199	-0.222834437086093	-0.916238410596027	-19.2996026490066	-14.9623841059603	89.405298013245			
39	800	-0.360158940397351	0.210754966887417	-0.887523178807947	-0.246622516556291	-0.424635761589404	4.97509933774835				1.02495364238411	0.0317880794701987	0.157139072847682	-9.92609271523179	96.6278145695364	8.93403973509934				-0.378172185430464	-0.0332715231788079	-0.93594701986755	3.08741721854305	-11.8935099337748	10.4397350993378				-0.159470198675497	0.223470198675497	-0.965721854304636	-79.5570860927152	-128.05642384106	-16.2956291390729				0.964026490066225	0.0674966887417219	0.261933774834437	-4.8082119205298	29.7319205298013	-6.21748344370861				0.303788079470199	-0.318834437086093	-0.964238410596026	-12.5796026490066	-23.3623841059603	75.405298013245			
40	820	-0.488158940397351	0.146754966887417	-1.06352317880795	-9.48662251655629	-18.3446357615894	3.29509933774834				1.15295364238411	0.191788079470199	0.253139072847682	4.07390728476821	94.6678145695364	6.69403973509934				-0.442172185430464	-0.0652715231788079	-0.88794701986755	3.36741721854305	-20.5735099337748	4.55973509933775				-0.0474701986754967	0.255470198675497	-1.01372185430464	-39.7970860927152	-109.29642384106	-14.0556291390728				1.26802649006623	0.0514966887417219	0.245933774834437	-11.2482119205298	12.6519205298013	-4.25748344370861				0.447788079470199	-0.350834437086093	-1.06023841059603	-15.3796026490066	-50.5223841059603	63.085298013245			
41	840	-0.360158940397351	0.210754966887417	-1.04752317880795	-34.6866225165563	16.3753642384106	1.61509933774834				1.21695364238411	0.191788079470199	-0.0348609271523178	13.0339072847682	84.0278145695364	16.4940397350993				-0.522172185430464	0.0147284768211921	-0.83994701986755	0.847417218543046	-17.7735099337748	3.15973509933775				-0.0474701986754967	0.239470198675497	-1.04572185430464	6.96291390728477	-93.0564238410596	4.70437086092715				1.50802649006623	0.0354966887417219	0.181933774834437	-14.8882119205298	-11.4280794701987	-4.81748344370861				0.239788079470199	-0.638834437086093	-1.09223841059603	-7.53960264900662	-63.9623841059603	65.045298013245			
42	860	-0.472158940397351	0.322754966887417	-0.903523178807947	-31.6066225165563	24.4953642384106	4.69509933774834				1.18495364238411	0.143788079470199	0.349139072847682	-16.6460927152318	109.227814569536	17.0540397350993				-0.714172185430464	-0.0172715231788079	-0.93594701986755	10.927417218543	1.26649006622517	2.03973509933775				-0.0314701986754967	0.287470198675497	-1.04572185430464	36.9229139072848	-66.1764238410596	29.0643708609272				1.49202649006623	-0.0285033112582781	0.405933774834437	-27.4882119205298	-27.6680794701987	-20.4974834437086				0.223788079470199	-0.702834437086093	-1.17223841059603	-40.8596026490066	-40.4423841059603	61.125298013245			
43	880	-0.648158940397351	0.258754966887417	-1.06352317880795	-24.3266225165563	35.1353642384106	11.6950993377483				1.37695364238411	0.159788079470199	0.525139072847682	0.153907284768212	95.2278145695364	15.0940397350993				-0.698172185430464	-0.0652715231788079	-1.06394701986755	21.287417218543	21.4264900662252	2.03973509933775				0.192529801324503	0.335470198675497	-1.12572185430464	39.1629139072848	-41.5364238410596	26.8243708609272				1.20402649006623	0.163496688741722	0.453933774834437	-19.9282119205298	-59.5880794701987	-7.33748344370861				0.303788079470199	-0.494834437086093	-1.33223841059603	-39.1796026490066	-55.5623841059603	68.965298013245			
44	900	-0.648158940397351	0.258754966887417	-0.935523178807947	-17.0466225165563	44.3753642384106	15.6150993377483				1.32895364238411	0.0637880794701987	0.493139072847682	-16.9260927152318	81.2278145695364	15.3740397350993				-0.570172185430464	-0.145271523178808	-1.07994701986755	50.6874172185431	41.0264900662252	0.0797350993377501				0.224529801324503	0.287470198675497	-1.22172185430464	62.4029139072848	-40.1364238410596	38.3043708609272				1.10802649006623	0.243496688741722	0.421933774834437	-17.1282119205298	-41.9480794701987	2.18251655629139				0.159788079470199	-0.606834437086093	-1.18823841059603	-39.7396026490066	-73.2023841059603	77.925298013245			
45	920	-0.536158940397351	0.274754966887417	-0.999523178807947	-21.2466225165563	53.3353642384106	20.9350993377483				0	0	0	0	0	0				0	0	0	0	0	0				0.272529801324503	0.271470198675497	-1.31772185430464	47.8429139072848	-41.2564238410596	37.4643708609272				1.36402649006623	0.0674966887417219	0.549933774834437	-0.888211920529802	-17.8680794701987	4.42251655629139				0.0957880794701987	-0.734834437086093	-1.10823841059603	-59.0596026490066	-63.1223841059603	105.645298013245			
46	940	0	0	0	0	0	0				0	0	0	0	0	0				0	0	0	0	0	0				0.224529801324503	0.303470198675497	-1.46172185430464	13.1229139072848	-33.1364238410596	39.9843708609272				1.50802649006623	-0.0765033112582781	0.821933774834437	3.8717880794702	-22.3480794701987	5.26251655629139				0.271788079470199	-0.798834437086093	-1.15623841059603	-71.0996026490066	-21.1223841059603	107.885298013245			
47	960	0	0	0	0	0	0				1.47295364238411	0.143788079470199	1.05313907284768	11.6339072847682	8.98781456953643	-10.6659602649007				0	0	0	0	0	0				0.288529801324503	0.239470198675497	-1.49372185430464	-6.75708609271523	-2.6164238410596	46.9843708609272				1.44402649006623	0.0354966887417219	0.885933774834437	-11.5282119205298	-54.5480794701987	10.8625165562914				0.207788079470199	-0.718834437086093	-1.10823841059603	-77.5396026490066	5.75761589403974	71.765298013245			
48	980	-0.072158940397351	0.418754966887417	-1.11152317880795	-3.32662251655629	84.1353642384106	36.3350993377484				1.44095364238411	-0.000211920529801304	1.08513907284768	-7.96609271523179	-57.6521854304636	-5.06596026490066				-0.362172185430464	-0.145271523178808	-1.09594701986755	28.287417218543	88.3464900662252	-22.8802649006623				0.0965298013245033	0.415470198675497	-1.38172185430464	11.4429139072848	36.8635761589404	37.4643708609272				1.33202649006623	0.163496688741722	0.629933774834437	-11.8082119205298	-38.0280794701987	-0.897483443708608				0.287788079470199	-0.494834437086093	-1.10823841059603	-68.2996026490066	28.4376158940397	46.285298013245			
49	1000	0.135841059602649	0.530754966887417	-1.09552317880795	14.5933774834437	97.5753642384106	25.4150993377483				0.992953642384106	-0.112211920529801	1.08513907284768	23.1139072847682	-85.3721854304636	10.8940397350993				-0.154172185430464	-0.449271523178808	-1.04794701986755	27.727417218543	98.9864900662252	-23.4402649006623				0.0645298013245033	0.431470198675497	-1.07772185430464	6.96291390728477	51.7035761589404	34.3843708609272				1.12402649006623	0.211496688741722	0.629933774834437	11.9917880794702	-13.3880794701987	-2.29748344370861				0.159788079470199	-0.542834437086093	-0.996238410596026	-17.3396026490066	32.6376158940397	41.245298013245			
50	1020	0.199841059602649	0.530754966887417	-1.09552317880795	35.5933774834437	102.895364238411	10.8550993377483				1.13695364238411	-0.0802119205298013	0.925139072847682	24.2339072847682	-75.5721854304636	12.8540397350993				0.0218278145695364	-0.609271523178808	-1.04794701986755	11.207417218543	106.546490066225	-25.1202649006623				0.224529801324503	0.223470198675497	-1.15772185430464	43.9229139072848	68.5035761589404	29.9043708609272				1.15602649006623	0.115496688741722	0.565933774834437	27.6717880794702	-2.46807947019868	1.34251655629139				0.0477880794701987	-0.510834437086093	-0.836238410596026	-8.93960264900662	81.0776158940397	42.925298013245			
51	1040	0.151841059602649	0.402754966887417	-1.12752317880795	43.1533774834437	115.215364238411	-2.86490066225166				1.13695364238411	0.239788079470199	0.653139072847682	14.1539072847682	-51.2121854304636	1.09403973509934				0.149827814569536	-0.337271523178808	-1.03194701986755	-22.392582781457	113.826490066225	-25.9602649006623				0.240529801324503	0.0634701986754967	-1.17372185430464	35.8029139072848	95.1035761589404	39.7043708609272				1.17202649006623	-0.0445033112582781	0.405933774834437	33.2717880794702	-8.90807947019868	4.70251655629139				0.143788079470199	-0.366834437086093	-0.964238410596026	-12.0196026490066	101.79761589404	28.365298013245			
52	1060	0.215841059602649	0.274754966887417	-1.11152317880795	42.0333774834437	128.935364238411	-10.7049006622517				1.13695364238411	-0.112211920529801	0.829139072847682	2.39390728476821	-31.8921854304636	21.2540397350993				0.165827814569536	-0.257271523178808	-1.09594701986755	-18.752582781457	119.146490066225	-27.3602649006623				0.0805298013245033	-0.000529801324503289	-1.14172185430464	22.0829139072848	120.30357615894	31.5843708609272				1.12402649006623	0.275496688741722	0.533933774834437	-8.4482119205298	-14.5080794701987	4.14251655629139				0.255788079470199	-0.174834437086093	-1.02823841059603	34.7403973509934	102.35761589404	4.28529801324503			
53	1080	0.327841059602649	0.146754966887417	-1.03152317880795	31.9533774834437	145.455364238411	-10.4249006622517				1.16895364238411	-0.224211920529801	0.685139072847682	-16.0860927152318	-59.6121854304636	20.6940397350993				0.213827814569536	-0.193271523178808	-0.96794701986755	-3.63258278145695	133.706490066225	-28.2002649006623				0.000529801324503301	0.111470198675497	-0.997721854304636	20.6829139072848	145.22357615894	23.7443708609272				0.996026490066225	-0.108503311258278	0.117933774834437	64.6317880794702	-18.1480794701987	13.3825165562914				0.0637880794701987	-0.414834437086093	-0.964238410596026	67.5003973509934	98.9976158940397	-0.194701986754968			
54	1100	0.407841059602649	0.0187549668874172	-1.01552317880795	20.1933774834437	154.695364238411	-6.22490066225166				1.08895364238411	0.415788079470199	0.717139072847682	28.9939072847682	-43.6521854304636	16.2140397350993				0.245827814569536	-0.225271523178808	-0.98394701986755	15.127417218543	147.146490066225	-25.4002649006623				0.0805298013245033	0.0634701986754967	-0.885721854304636	34.4029139072848	151.38357615894	25.9843708609272				1.07602649006623	-0.124503311258278	0.133933774834437	2.7517880794702	56.8919205298013	-0.897483443708608				0.0957880794701987	-0.494834437086093	-0.836238410596026	68.9003973509934	118.03761589404	-4.39470198675497			
55	1120	0.391841059602649	0.114754966887417	-0.935523178807947	13.7533774834437	155.535364238411	-0.624900662251656				1.07295364238411	-0.0642119205298013	0.413139072847682	56.1539072847682	-76.4121854304636	25.4540397350993				0.357827814569536	-0.273271523178808	-0.87194701986755	29.407417218543	160.586490066225	-23.4402649006623				0.0965298013245033	-0.0165298013245033	-0.997721854304636	44.4829139072848	141.30357615894	29.6243708609272				1.01202649006623	0.00349668874172187	0.325933774834437	17.5917880794702	59.9719205298013	-9.57748344370861				0.255788079470199	-0.286834437086093	-0.772238410596026	57.9803973509934	126.99761589404	-19.234701986755			
56	1140	0.359841059602649	0.114754966887417	-0.887523178807947	22.9933774834437	149.375364238411	1.89509933774834				0.992953642384106	-0.240211920529801	0.269139072847682	9.67390728476821	-61.0121854304636	6.41403973509934				0.437827814569536	-0.337271523178808	-0.67994701986755	31.6474172185431	157.506490066225	-18.1202649006623				0.144529801324503	-0.0645298013245033	-1.02972185430464	34.9629139072848	147.74357615894	19.5443708609272				0.996026490066225	-0.0445033112582781	0.229933774834437	-0.328211920529802	35.6119205298013	-10.1374834437086				0.303788079470199	-0.238834437086093	-0.756238410596026	36.9803973509934	127.83761589404	-33.794701986755			
57	1160	0.407841059602649	0.0347549668874172	-0.823523178807947	21.5933774834437	145.455364238411	0.775099337748344				1.02495364238411	-0.128211920529801	0.381139072847682	11.9139072847682	-84.5321854304636	-0.30596026490066				0.453827814569536	-0.385271523178808	-0.66394701986755	20.447417218543	151.346490066225	-12.5202649006623				0.272529801324503	-0.000529801324503289	-0.837721854304636	34.6829139072848	161.18357615894	10.0243708609272				0.900026490066225	0.00349668874172187	0.101933774834437	-24.1282119205298	32.8119205298013	-10.1374834437086				0.319788079470199	-0.334834437086093	-0.756238410596026	75.3403973509934	121.11761589404	-41.634701986755			
58	1180	0.439841059602649	0.0347549668874172	-0.727523178807947	17.9533774834437	137.615364238411	-0.344900662251656				0.768953642384106	0.0157880794701987	0.109139072847682	55.0339072847682	-105.812185430464	5.57403973509934				0.453827814569536	-0.337271523178808	-0.66394701986755	-7.83258278145695	146.026490066225	-11.4002649006623				0.320529801324503	-0.0165298013245033	-0.709721854304636	35.5229139072848	152.50357615894	12.2643708609272				0.884026490066225	0.0834966887417219	0.0379337748344371	-12.0882119205298	23.0119205298013	-1.17748344370861				0.319788079470199	-0.382834437086093	-0.724238410596026	84.5803973509934	115.23761589404	-37.994701986755			
59	1200	0.423841059602649	0.0827549668874172	-0.727523178807947	20.1933774834437	129.215364238411	-1.46490066225166				0.608953642384106	-0.0962119205298013	-0.0668609271523178	40.7539072847682	-85.9321854304636	12.0140397350993				0.421827814569536	-0.289271523178808	-0.69594701986755	-27.992582781457	135.666490066225	-11.6802649006622				0.352529801324503	-0.000529801324503289	-0.709721854304636	28.2429139072848	132.62357615894	3.86437086092715				0.820026490066225	-0.0285033112582781	0.117933774834437	-14.8882119205298	12.3719205298013	4.70251655629139				0.399788079470199	-0.382834437086093	-0.676238410596026	57.4203973509934	121.95761589404	-35.474701986755			
60	1220	0.327841059602649	0.00275496688741723	-0.711523178807947	21.8733774834437	119.415364238411	-0.0649006622516557				0.592953642384106	-0.0642119205298013	-0.114860927152318	5.75390728476821	-64.6521854304636	8.93403973509934				0.405827814569536	-0.257271523178808	-0.69594701986755	-44.792582781457	133.986490066225	-14.4802649006623				0.352529801324503	-0.0325298013245033	-0.693721854304636	29.3629139072848	122.54357615894	-4.25562913907285				0.804026490066225	-0.0125033112582781	0.0859337748344371	-16.2882119205298	-22.6280794701987	4.70251655629139				0.511788079470199	-0.366834437086093	-0.580238410596026	43.4203973509934	134.83761589404	-35.754701986755			
61	1240	0.343841059602649	-0.0612450331125828	-0.711523178807947	16.8333774834437	115.215364238411	0.495099337748344				0.784953642384106	-0.000211920529801304	-0.0188609271523178	-7.96609271523179	-18.1721854304636	13.1340397350993				0.325827814569536	-0.0812715231788079	-0.67994701986755	-45.632582781457	127.546490066225	-17.8402649006623				0.352529801324503	-0.0965298013245033	-0.629721854304636	34.1229139072848	124.50357615894	-11.5356291390728				0.724026490066225	0.0194966887417219	0.0379337748344371	-12.6482119205298	-19.5480794701987	9.18251655629139				0.479788079470199	-0.238834437086093	-0.724238410596026	21.0203973509934	125.87761589404	-38.274701986755			
62	1260	0.423841059602649	-0.0292450331125828	-0.759523178807947	7.59337748344371	117.455364238411	2.17509933774834				0.768953642384106	0.0797880794701987	0.205139072847682	-9.36609271523179	-33.0121854304636	-1.14596026490066				0.341827814569536	0.0307284768211921	-0.58394701986755	-24.912582781457	132.586490066225	-14.2002649006623				0.400529801324503	-0.0165298013245033	-0.597721854304636	26.2829139072848	113.02357615894	-14.3356291390729				0.692026490066225	0.0194966887417219	0.117933774834437	-3.1282119205298	-16.1880794701987	11.4225165562914				0.319788079470199	-0.190834437086093	-0.644238410596026	21.8603973509934	114.11761589404	-36.034701986755			
63	1280	0.391841059602649	0.0667549668874172	-0.727523178807947	-0.526622516556291	121.095364238411	8.05509933774835				0.704953642384106	-0.000211920529801304	0.0771390728476822	7.43390728476821	-68.5721854304636	2.77403973509934				0.357827814569536	0.0147284768211921	-0.61594701986755	-15.952582781457	128.946490066225	-16.1602649006623				0.400529801324503	0.0954701986754967	-0.581721854304636	34.1229139072848	85.5835761589404	-14.6156291390728				0.676026490066225	0.115496688741722	0.117933774834437	-12.9282119205298	-29.6280794701987	11.4225165562914				0.287788079470199	-0.238834437086093	-0.548238410596027	15.9803973509934	108.23761589404	-29.314701986755			
64	1300	0.343841059602649	0.0827549668874172	-0.711523178807947	-12.5666225165563	122.495364238411	16.7350993377483				0.656953642384106	-0.0322119205298013	-0.130860927152318	-6.56609271523179	-80.3321854304636	-1.70596026490066				0.453827814569536	-0.0172715231788079	-0.53594701986755	-26.592582781457	126.146490066225	-12.8002649006623				0.432529801324503	-0.0325298013245033	-0.645721854304636	42.2429139072848	73.8235761589404	-10.1356291390728				0.660026490066225	0.0674966887417219	0.0859337748344371	-6.7682119205298	-43.3480794701987	14.5025165562914				0.431788079470199	-0.334834437086093	-0.564238410596026	10.6603973509934	105.99761589404	-23.154701986755			
65	1320	0.407841059602649	0.0507549668874172	-0.663523178807947	-10.8866225165563	126.695364238411	18.4150993377483				0.640953642384106	0.0317880794701987	-0.0188609271523178	-16.0860927152318	-43.0921854304636	-0.0259602649006601				0.533827814569536	0.0147284768211921	-0.59994701986755	-27.712582781457	123.906490066225	-8.32026490066225				0.448529801324503	-0.288529801324503	-0.629721854304636	38.8829139072848	78.8635761589404	-14.0556291390728				0.660026490066225	-0.0445033112582781	0.0699337748344371	-7.3282119205298	-46.7080794701987	13.3825165562914				0.543788079470199	-0.350834437086093	-0.532238410596027	2.26039735099338	90.5976158940397	-13.634701986755			
66	1340	0.567841059602649	0.130754966887417	-0.631523178807947	-7.80662251655629	123.335364238411	19.5350993377483				0.752953642384106	0.0317880794701987	0.157139072847682	-28.1260927152318	-25.7321854304636	0.53403973509934				0.645827814569536	0.0307284768211921	-0.51994701986755	-27.992582781457	124.466490066225	-5.24026490066225				0.400529801324503	-0.272529801324503	-0.597721854304636	20.6829139072848	76.6235761589404	-23.8556291390729				0.708026490066225	-0.0605033112582781	0.00593377483443711	-10.1282119205298	-29.9080794701987	5.26251655629139				0.543788079470199	-0.270834437086093	-0.516238410596026	-1.09960264900662	86.1176158940397	-14.194701986755			
67	1360	0.583841059602649	0.258754966887417	-0.567523178807947	-6.12662251655629	122.215364238411	17.8550993377483				0.640953642384106	0.0157880794701987	0.0931390728476822	-19.4460927152318	-54.2921854304636	-1.98596026490066				0.629827814569536	-0.0652715231788079	-0.48794701986755	-24.072582781457	118.026490066225	-6.36026490066225				0.352529801324503	-0.0325298013245033	-0.661721854304636	5.28291390728477	65.4235761589404	-27.2156291390728				0.708026490066225	0.0354966887417219	0.101933774834437	-13.7682119205298	-16.7480794701987	2.46251655629139				0.543788079470199	-0.206834437086093	-0.516238410596026	7.58039735099338	76.3176158940397	-17.834701986755			
68	1380	0.551841059602649	0.242754966887417	-0.423523178807947	-6.96662251655629	123.335364238411	22.3350993377483				0.576953642384106	0.0477880794701987	-0.0508609271523178	-23.0860927152318	-36.0921854304636	-4.78596026490066				0.613827814569536	-0.129271523178808	-0.42394701986755	-50.672582781457	116.346490066225	-5.52026490066225				0.512529801324503	0.0314701986754967	-0.629721854304636	17.3229139072848	60.1035761589404	-24.4156291390728				0.692026490066225	0.0994966887417219	0.165933774834437	-11.5282119205298	-25.7080794701987	4.14251655629139				0.495788079470199	-0.174834437086093	-0.532238410596027	7.58039735099338	56.4376158940397	-22.314701986755			
69	1400	0.615841059602649	0.226754966887417	-0.487523178807947	-1.64662251655629	123.895364238411	25.9750993377483				0.720953642384106	0.0957880794701987	0.269139072847682	-21.1260927152318	-18.1721854304636	-4.22596026490066				0.629827814569536	-0.113271523178808	-0.48794701986755	-49.272582781457	107.666490066225	-10.2802649006622				0.688529801324503	-0.0325298013245033	-0.581721854304636	38.3229139072848	52.2635761589404	-22.1756291390729				0.676026490066225	0.0834966887417219	0.133933774834437	-12.0882119205298	-33.8280794701987	5.54251655629139				0.559788079470199	-0.302834437086093	-0.484238410596026	1.42039735099338	51.9576158940397	-25.114701986755			
70	1420	0.743841059602649	0.226754966887417	-0.423523178807947	-5.84662251655629	115.215364238411	18.1350993377483				0.736953642384106	0.0477880794701987	0.0931390728476822	-15.2460927152318	-50.0921854304636	-1.42596026490066				0.629827814569536	-0.0652715231788079	-0.42394701986755	-51.792582781457	111.586490066225	-3.28026490066225				0.608529801324503	-0.192529801324503	-0.549721854304636	21.2429139072848	41.6235761589404	-18.5356291390728				0.740026490066225	0.0354966887417219	0.0379337748344371	-9.2882119205298	-30.1880794701987	4.42251655629139				0.543788079470199	-0.414834437086093	-0.404238410596026	-9.21960264900662	48.3176158940397	-8.31470198675497			
71	1440	0.823841059602649	0.258754966887417	-0.375523178807947	-0.246622516556291	109.335364238411	15.0550993377483				0.656953642384106	-0.000211920529801304	-0.0188609271523178	-18.3260927152318	-36.3721854304636	-6.46596026490066				0.741827814569536	-0.00127152317880793	-0.35994701986755	-58.512582781457	103.746490066225	4.27973509933775				0.496529801324503	-0.208529801324503	-0.549721854304636	-1.71708609271523	26.5035761589404	-16.8556291390729				0.692026490066225	0.00349668874172187	0.0699337748344371	-12.0882119205298	-16.7480794701987	-0.337483443708608				0.527788079470199	-0.318834437086093	-0.404238410596026	-6.97960264900662	34.3176158940397	-4.95470198675497			
72	1460	0.743841059602649	0.226754966887417	-0.391523178807947	-0.806622516556291	110.455364238411	11.9750993377483				0.656953642384106	0.111788079470199	-0.00286092715231785	-19.7260927152318	-24.6121854304636	-8.14596026490066				0.725827814569536	0.0147284768211921	-0.40794701986755	-49.272582781457	82.4664900662252	2.31973509933775				0.496529801324503	-0.0485298013245033	-0.581721854304636	-8.99708609271523	16.1435761589404	-12.3756291390728				0.660026490066225	0.00349668874172187	0.149933774834437	-18.8082119205298	-20.9480794701987	-2.57748344370861				0.527788079470199	-0.238834437086093	-0.420238410596026	-14.2596026490066	29.5576158940397	-9.43470198675497			
73	1480	0.695841059602649	0.194754966887417	-0.279523178807947	0.0333774834437086	96.7353642384106	10.5750993377483				0.752953642384106	0.0157880794701987	0.173139072847682	-15.2460927152318	-12.8521854304636	-3.10596026490066				0.645827814569536	-0.00127152317880793	-0.39194701986755	-43.392582781457	81.3464900662252	0.91973509933775				0.560529801324503	-0.0325298013245033	-0.613721854304636	-8.43708609271523	19.5035761589404	-6.77562913907285				0.708026490066225	0.0194966887417219	0.165933774834437	-21.0482119205298	-25.4280794701987	-2.01748344370861				0.591788079470199	-0.238834437086093	-0.452238410596026	-16.7796026490066	24.5176158940397	-15.594701986755			
74	1500	0.727841059602649	0.178754966887417	-0.327523178807947	11.5133774834437	92.5353642384106	9.17509933774834				0.720953642384106	-0.0962119205298013	0.237139072847682	-13.8460927152318	-21.5321854304636	-4.50596026490066				0.693827814569536	0.0147284768211921	-0.39194701986755	-39.192582781457	77.1464900662252	0.63973509933775				0.608529801324503	-0.128529801324503	-0.565721854304636	6.68291390728477	14.7435761589404	0.504370860927152				0.740026490066225	-0.0125033112582781	0.101933774834437	-16.2882119205298	-24.5880794701987	-0.897483443708608				0.591788079470199	-0.286834437086093	-0.484238410596026	-21.8196026490066	22.5576158940397	-13.074701986755			
75	1520	0.791841059602649	0.114754966887417	-0.439523178807947	1.71337748344371	77.6953642384106	7.21509933774835				0.672953642384106	0.0477880794701987	0.0291390728476822	-13.0060927152318	-31.0521854304636	-11.5059602649007				0.805827814569536	0.0627284768211921	-0.45594701986755	-32.192582781457	59.2264900662252	0.0797350993377501				0.624529801324503	-0.128529801324503	-0.549721854304636	9.76291390728477	-0.3764238410596	3.30437086092715				0.692026490066225	0.00349668874172187	0.117933774834437	-12.9282119205298	-15.3480794701987	-1.73748344370861				0.559788079470199	-0.286834437086093	-0.452238410596026	-24.3396026490066	13.8776158940397	-4.95470198675497			
76	1540	0.871841059602649	0.0187549668874172	-0.455523178807947	4.23337748344371	73.4953642384106	5.81509933774834				0.800953642384106	0.0957880794701987	-0.00286092715231785	-22.2460927152318	-9.21218543046358	-10.9459602649007				0.821827814569536	0.110728476821192	-0.45594701986755	-29.952582781457	45.2264900662252	-0.48026490066225				0.656529801324503	-0.128529801324503	-0.581721854304636	-14.0370860927152	-13.8164238410596	0.784370860927152				0.756026490066225	0.0354966887417219	0.117933774834437	-17.1282119205298	-11.9880794701987	-3.13748344370861				0.591788079470199	-0.270834437086093	-0.436238410596026	-17.0596026490066	7.15761589403974	-8.03470198675497			
77	1560	0.919841059602649	0.0347549668874172	-0.407523178807947	-1.92662251655629	66.2153642384106	6.09509933774834				0.864953642384106	0.0477880794701987	0.125139072847682	-16.6460927152318	2.26781456953642	-8.98596026490066				0.789827814569536	0.0467284768211921	-0.40794701986755	-21.832582781457	35.7064900662252	-2.72026490066225				0.688529801324503	-0.0805298013245033	-0.533721854304636	-23.8370860927152	-16.8964238410596	3.58437086092715				0.788026490066225	0.0834966887417219	0.117933774834437	-14.8882119205298	-6.10807947019868	-6.49748344370861				0.671788079470199	-0.238834437086093	-0.484238410596026	-17.8996026490066	3.23761589403974	-9.99470198675497			
78	1580	0.791841059602649	0.114754966887417	-0.263523178807947	-5.56662251655629	54.4553642384106	9.17509933774834				0.864953642384106	-0.000211920529801304	0.125139072847682	-8.24609271523179	-18.1721854304636	-6.46596026490066				0.773827814569536	0.0147284768211921	-0.40794701986755	-17.072582781457	36.5464900662252	-2.72026490066225				0.688529801324503	-0.0165298013245033	-0.613721854304636	-12.9170860927152	-15.7764238410596	10.0243708609272				0.852026490066225	0.0514966887417219	0.165933774834437	-6.7682119205298	1.73192052980133	-7.05748344370861				0.671788079470199	-0.254834437086093	-0.484238410596026	-8.37960264900662	-0.122384105960265	-11.394701986755			
79	1600	0.807841059602649	0.0187549668874172	-0.391523178807947	1.71337748344371	51.3753642384106	6.65509933774834				0.912953642384106	0.0157880794701987	0.0131390728476822	-9.92609271523179	-23.4921854304636	-7.30596026490066				0.821827814569536	-0.0172715231788079	-0.39194701986755	-24.072582781457	33.1864900662252	-4.40026490066225				0.688529801324503	-0.0485298013245033	-0.629721854304636	-14.0370860927152	-16.6164238410596	9.74437086092715				0.900026490066225	-0.0125033112582781	0.133933774834437	-9.2882119205298	-7.50807947019868	-5.93748344370861				0.671788079470199	-0.302834437086093	-0.500238410596026	-15.3796026490066	1.27761589403974	-10.554701986755			
80	1620	0.999841059602649	0.0507549668874172	-0.423523178807947	-8.64662251655629	37.6553642384106	4.97509933774835				0.896953642384106	0.111788079470199	-0.00286092715231785	-4.32609271523179	-16.2121854304636	-11.5059602649007				0.917827814569536	-0.00127152317880793	-0.43994701986755	-26.592582781457	27.0264900662252	-5.80026490066225				0.672529801324503	-0.0485298013245033	-0.581721854304636	-11.7970860927152	-23.3364238410596	6.38437086092715				0.900026490066225	0.0194966887417219	0.101933774834437	-8.1682119205298	-0.228079470198675	-7.61748344370861				0.671788079470199	-0.350834437086093	-0.468238410596026	-7.81960264900662	-2.36238410596027	-10.274701986755			
81	1640	0.951841059602649	0.114754966887417	-0.359523178807947	-12.5666225165563	34.8553642384106	4.41509933774834				0.960953642384106	0.0637880794701987	0.0451390728476822	-0.406092715231788	-9.49218543046358	-9.54596026490066				0.949827814569536	-0.0172715231788079	-0.48794701986755	-8.95258278145695	22.5464900662252	-1.32026490066225				0.688529801324503	0.0154701986754967	-0.613721854304636	-13.1970860927152	-26.6964238410596	3.86437086092715				0.900026490066225	0.0514966887417219	0.133933774834437	-9.8482119205298	-4.14807947019868	-7.61748344370861				0.719788079470199	-0.366834437086093	-0.548238410596027	-8.65960264900662	-0.962384105960265	-10.554701986755			
82	1660	0.839841059602649	0.178754966887417	-0.295523178807947	7.31337748344371	34.0153642384106	1.61509933774834				0.912953642384106	-0.000211920529801304	0.125139072847682	3.23390728476821	-12.5721854304636	-9.54596026490066				0.869827814569536	-0.0812715231788079	-0.42394701986755	-9.79258278145695	16.3864900662252	4.83973509933775				0.704529801324503	0.0314701986754967	-0.629721854304636	-12.0770860927152	-21.3764238410596	-1.45562913907285				0.884026490066225	0.0674966887417219	0.0859337748344371	-4.5282119205298	0.0519205298013249	-6.49748344370861				0.703788079470199	-0.334834437086093	-0.548238410596027	-12.0196026490066	-2.92238410596027	-2.15470198675497			
83	1680	0.839841059602649	0.0987549668874172	-0.279523178807947	12.9133774834437	28.4153642384106	0.775099337748344				0.864953642384106	0.0317880794701987	-0.0188609271523178	4.35390728476821	-21.8121854304636	-9.54596026490066				0.821827814569536	-0.113271523178808	-0.39194701986755	-12.872582781457	10.7864900662252	5.67973509933775				0.624529801324503	-0.0165298013245033	-0.549721854304636	-12.0770860927152	-17.7364238410596	-2.57562913907285				0.868026490066225	0.0354966887417219	0.149933774834437	3.3117880794702	1.17192052980133	-5.93748344370861				0.655788079470199	-0.238834437086093	-0.468238410596026	-12.2996026490066	-1.24238410596026	6.24529801324503			
84	1700	0.919841059602649	0.0187549668874172	-0.247523178807947	17.3933774834437	23.6553642384106	-1.46490066225166				0.960953642384106	-0.000211920529801304	-0.0668609271523178	0.713907284768212	-8.65218543046358	-7.58596026490066				0.821827814569536	-0.0812715231788079	-0.37594701986755	2.24741721854305	16.1064900662252	2.03973509933775				0.624529801324503	0.0314701986754967	-0.565721854304636	-3.39708609271523	-16.8964238410596	-2.57562913907285				0.916026490066225	0.0514966887417219	0.149933774834437	1.6317880794702	0.611920529801325	-5.09748344370861				0.639788079470199	-0.302834437086093	-0.468238410596026	4.22039735099338	-0.962384105960265	1.20529801324503			
85	1720	0.967841059602649	0.00275496688741723	-0.343523178807947	15.9933774834437	22.2553642384106	-0.624900662251656				1.00895364238411	0.0317880794701987	0.0451390728476822	-2.92609271523179	-2.49218543046358	-5.62596026490066				0.917827814569536	-0.0172715231788079	-0.26394701986755	-12.032582781457	23.1064900662252	0.0797350993377501				0.688529801324503	0.0314701986754967	-0.629721854304636	-0.317086092715232	-7.3764238410596	-1.17562913907285				0.980026490066225	0.0354966887417219	0.149933774834437	-0.888211920529802	-4.98807947019868	-6.49748344370861				0.751788079470199	-0.366834437086093	-0.516238410596026	1.14039735099338	-3.20238410596026	-2.71470198675497			
86	1740	0.919841059602649	-0.0132450331125828	-0.311523178807947	8.43337748344371	17.7753642384106	0.775099337748344				1.00895364238411	0.0637880794701987	0.0131390728476822	-3.20609271523179	-14.5321854304636	-2.26596026490066				0.965827814569536	0.0307284768211921	-0.32794701986755	-11.752582781457	17.7864900662252	-1.32026490066225				0.720529801324503	0.0154701986754967	-0.645721854304636	6.40291390728477	-3.1764238410596	-0.0556291390728476				0.996026490066225	0.0674966887417219	0.165933774834437	1.6317880794702	-6.10807947019868	-5.65748344370861				0.815788079470199	-0.350834437086093	-0.532238410596027	-4.73960264900662	-2.08238410596027	-2.43470198675497			
87	1760	0.951841059602649	-0.0132450331125828	-0.247523178807947	10.9533774834437	15.8153642384106	1.05509933774834				0.992953642384106	0.0477880794701987	-0.00286092715231785	-1.52609271523179	-17.0521854304636	-2.26596026490066				0.965827814569536	0.0627284768211921	-0.32794701986755	-0.832582781456954	15.5464900662252	-0.48026490066225				0.752529801324503	-0.000529801324503289	-0.757721854304636	7.52291390728477	-2.6164238410596	-2.29562913907285				1.01202649006623	0.0674966887417219	0.149933774834437	3.5917880794702	-5.26807947019868	-2.85748344370861				0.847788079470199	-0.318834437086093	-0.548238410596027	-1.93960264900662	0.157615894039735	-6.35470198675497			
88	1780	0.983841059602649	0.0187549668874172	-0.295523178807947	7.03337748344371	18.3353642384106	0.215099337748344				0.992953642384106	0.0317880794701987	-0.0348609271523178	9.95390728476821	-17.8921854304636	-3.94596026490066				0.917827814569536	0.0147284768211921	-0.29594701986755	1.96741721854305	10.7864900662252	1.19973509933775				0.720529801324503	0.0154701986754967	-0.677721854304636	5.56291390728477	-2.6164238410596	-7.33562913907285				1.01202649006623	0.0354966887417219	0.133933774834437	6.3917880794702	-4.42807947019868	-0.617483443708608				0.799788079470199	-0.350834437086093	-0.532238410596027	0.580397350993377	-2.92238410596027	-11.114701986755			
89	1800	0.935841059602649	0.114754966887417	-0.167523178807947	1.71337748344371	18.8953642384106	2.17509933774834				1.00895364238411	0.0637880794701987	-0.0508609271523178	6.87390728476821	-14.8121854304636	-4.78596026490066				0.885827814569536	-0.0652715231788079	-0.34394701986755	-1.39258278145695	8.26649006622517	0.63973509933775				0.656529801324503	0.0154701986754967	-0.629721854304636	0.802913907284768	-8.4964238410596	-10.9756291390728				0.948026490066225	0.0674966887417219	0.149933774834437	5.5517880794702	-8.06807947019868	-2.29748344370861				0.735788079470199	-0.334834437086093	-0.532238410596027	1.98039735099338	-9.92238410596027	-13.634701986755			
90	1820	0.919841059602649	0.0987549668874172	-0.151523178807947	7.59337748344371	17.2153642384106	0.495099337748344				0.976953642384106	0.0797880794701987	-0.0188609271523178	0.153907284768212	-10.8921854304636	-2.54596026490066				0.885827814569536	-0.0652715231788079	-0.34394701986755	-1.95258278145695	16.9464900662252	-1.32026490066225				0.624529801324503	-0.0165298013245033	-0.645721854304636	1.08291390728477	-4.5764238410596	-9.57562913907285				0.900026490066225	0.0674966887417219	0.101933774834437	2.7517880794702	-12.8280794701987	-1.45748344370861				0.735788079470199	-0.318834437086093	-0.548238410596027	-0.259602649006623	-15.5223841059603	-12.234701986755			
91	1840	0.951841059602649	0.0827549668874172	-0.231523178807947	13.7533774834437	10.2153642384106	-1.18490066225166				0.960953642384106	0.0477880794701987	0.0131390728476822	3.51390728476821	-15.9321854304636	-0.0259602649006601				0.917827814569536	-0.00127152317880793	-0.31194701986755	-9.51258278145695	20.8664900662252	-0.48026490066225				0.624529801324503	-0.0165298013245033	-0.645721854304636	3.88291390728477	-0.0964238410596001	-8.17562913907285				0.948026490066225	0.0514966887417219	0.0699337748344371	3.5917880794702	-7.78807947019868	-0.617483443708608				0.735788079470199	-0.318834437086093	-0.580238410596026	-1.65960264900662	-13.2823841059603	-6.63470198675497			
92	1860	0.935841059602649	0.0987549668874172	-0.231523178807947	14.8733774834437	6.2953642384106	-2.30490066225166				0.928953642384106	0.0317880794701987	-0.0508609271523178	9.11390728476821	-23.2121854304636	0.25403973509934				0.933827814569536	0.0307284768211921	-0.31194701986755	-5.03258278145695	13.0264900662252	1.75973509933775				0.640529801324503	0.0154701986754967	-0.661721854304636	10.6029139072848	3.8235761589404	-5.65562913907285				0.964026490066225	0.0834966887417219	0.133933774834437	5.8317880794702	-6.10807947019868	0.502516556291392				0.735788079470199	-0.286834437086093	-0.548238410596027	-5.01960264900662	-14.4023841059603	-3.55470198675497			
93	1880	0.935841059602649	0.0667549668874172	-0.215523178807947	16.5533774834437	6.5753642384106	-2.58490066225166				0.944953642384106	0.0317880794701987	-0.0988609271523179	3.23390728476821	-13.9721854304636	-0.0259602649006601				0.901827814569536	-0.0172715231788079	-0.31194701986755	4.76741721854305	6.02649006622517	2.87973509933775				0.640529801324503	-0.000529801324503289	-0.661721854304636	19.2829139072848	3.8235761589404	-2.29562913907285				0.932026490066225	0.0514966887417219	0.0699337748344371	6.6717880794702	-9.18807947019868	2.46251655629139				0.735788079470199	-0.286834437086093	-0.532238410596027	-1.37960264900662	-14.1223841059603	-5.23470198675497			
94	1900	0.951841059602649	0.0187549668874172	-0.231523178807947	16.2733774834437	2.9353642384106	-3.42490066225166				0.960953642384106	0.0637880794701987	-0.0348609271523178	0.713907284768212	-6.97218543046358	0.25403973509934				0.901827814569536	-0.0332715231788079	-0.29594701986755	0.847417218543046	7.14649006622517	1.75973509933775				0.656529801324503	-0.0805298013245033	-0.677721854304636	14.8029139072848	6.6235761589404	-1.45562913907285				0.932026490066225	0.0514966887417219	0.0859337748344371	8.3517880794702	-8.62807947019868	3.02251655629139				0.751788079470199	-0.286834437086093	-0.532238410596027	1.42039735099338	-11.3223841059603	-9.43470198675497			
95	1920	0.935841059602649	0.0187549668874172	-0.199523178807947	12.3533774834437	-0.984635761589404	-0.904900662251656				0.944953642384106	0.0317880794701987	-0.0508609271523178	3.23390728476821	-10.6121854304636	2.77403973509934				0.917827814569536	-0.0332715231788079	-0.29594701986755	0.00741721854304636	3.50649006622517	-0.48026490066225				0.640529801324503	-0.0485298013245033	-0.693721854304636	7.24291390728477	2.7035761589404	-2.01562913907285				0.932026490066225	0.0354966887417219	0.0859337748344371	6.6717880794702	-8.06807947019868	3.30251655629139				0.719788079470199	-0.286834437086093	-0.564238410596026	1.98039735099338	-12.4423841059603	-9.71470198675497			
96	1940	0.903841059602649	0.00275496688741723	-0.199523178807947	10.1133774834437	4.6153642384106	-1.18490066225166				0.960953642384106	0.0157880794701987	-0.0828609271523179	2.67390728476821	-13.6921854304636	3.61403973509934				0.885827814569536	-0.0172715231788079	-0.27994701986755	5.60741721854305	0.706490066225167	-1.04026490066225				0.640529801324503	-0.0325298013245033	-0.693721854304636	8.92291390728477	-2.3364238410596	-1.45562913907285				0	0	0	0	0	0				0.671788079470199	-0.302834437086093	-0.516238410596026	1.42039735099338	-13.2823841059603	-5.51470198675497			
97	1960	0.951841059602649	-0.0292450331125828	-0.215523178807947	7.87337748344371	5.4553642384106	-1.46490066225166				0	0	0	0	0	0				0.885827814569536	-0.0492715231788079	-0.24794701986755	1.12741721854305	5.18649006622517	-1.04026490066225				0	0	0	0	0	0				0	0	0	0	0	0				0	0	0	0	0	0			
98	1980	0	0	0	0	0	0				0.976953642384106	0.0477880794701987	-0.114860927152318	-0.126092715231788	-16.2121854304636	3.05403973509934				0.933827814569536	-0.0652715231788079	-0.26394701986755	-5.31258278145695	2.66649006622517	1.75973509933775				0	0	0	0	0	0				0.980026490066225	0.00349668874172187	0.0539337748344371	5.5517880794702	-6.94807947019868	4.70251655629139				0.751788079470199	-0.302834437086093	-0.564238410596026	1.14039735099338	-5.44238410596027	-8.31470198675497			
99	2000	0.935841059602649	0.0667549668874172	-0.215523178807947	2.27337748344371	-1.2646357615894	-1.74490066225166				0.960953642384106	0.0477880794701987	-0.114860927152318	0.433907284768212	-10.6121854304636	3.05403973509934				0.933827814569536	-0.0172715231788079	-0.29594701986755	-2.23258278145695	4.06649006622517	-0.48026490066225				0.672529801324503	-0.0485298013245033	-0.709721854304636	12.8429139072848	2.7035761589404	-1.45562913907285				1.01202649006623	0.0354966887417219	0.0539337748344371	5.2717880794702	-6.94807947019868	6.94251655629139				0.751788079470199	-0.318834437086093	-0.580238410596026	3.10039735099338	-0.962384105960265	-7.75470198675497			
100	2020	0.951841059602649	0.0667549668874172	-0.199523178807947	3.95337748344371	-3.2246357615894	0.215099337748344				0.928953642384106	0.0317880794701987	-0.130860927152318	2.67390728476821	-6.69218543046358	3.61403973509934				0.901827814569536	0.0467284768211921	-0.26394701986755	-4.47258278145695	6.58649006622517	-0.76026490066225				0.672529801324503	-0.0645298013245033	-0.725721854304636	20.9629139072848	1.3035761589404	3.86437086092715				1.01202649006623	0.0194966887417219	0.0539337748344371	7.2317880794702	-9.18807947019868	8.62251655629139				0.719788079470199	-0.302834437086093	-0.596238410596026	0.860397350993377	-1.24238410596026	-4.67470198675497			
101	2040	0.951841059602649	0.0187549668874172	-0.167523178807947	-0.806622516556291	-7.7046357615894	1.89509933774834				0.976953642384106	0.0477880794701987	-0.114860927152318	2.39390728476821	0.307814569536424	1.65403973509934				0.917827814569536	0.0307284768211921	-0.24794701986755	3.36741721854305	3.22649006622517	-1.04026490066225				0.672529801324503	-0.176529801324503	-0.773721854304636	16.4829139072848	0.7435761589404	5.82437086092715				0.948026490066225	0.0194966887417219	0.0539337748344371	6.6717880794702	-10.8680794701987	7.78251655629139				0.719788079470199	-0.286834437086093	-0.580238410596026	-0.259602649006623	-2.92238410596027	-4.95470198675497			
102	2060	0.919841059602649	0.0507549668874172	-0.151523178807947	-2.76662251655629	-8.54463576158941	1.33509933774834				1.02495364238411	0.0637880794701987	-0.0508609271523178	1.55390728476821	1.42781456953642	3.05403973509934				0.933827814569536	0.0147284768211921	-0.29594701986755	13.447417218543	1.26649006622517	-1.88026490066225				0.656529801324503	-0.160529801324503	-0.741721854304636	3.04291390728477	0.4635761589404	2.46437086092715				0.916026490066225	0.0194966887417219	0.0219337748344371	3.5917880794702	-6.94807947019868	6.10251655629139				0.719788079470199	-0.286834437086093	-0.612238410596026	-0.539602649006623	-6.84238410596027	-5.23470198675497			
103	2080	0.951841059602649	0.0507549668874172	-0.199523178807947	2.27337748344371	-5.4646357615894	-0.0649006622516557				0.992953642384106	0.0477880794701987	-0.0668609271523178	5.75390728476821	-7.25218543046358	5.29403973509934				0.949827814569536	0.0307284768211921	-0.31194701986755	19.8874172185431	4.34649006622517	-2.72026490066225				0.624529801324503	-0.0805298013245033	-0.693721854304636	0.242913907284768	0.4635761589404	2.18437086092715				0.964026490066225	0.00349668874172187	0.0539337748344371	4.1517880794702	-0.508079470198675	5.26251655629139				0.735788079470199	-0.302834437086093	-0.612238410596026	3.10039735099338	-9.36238410596027	-2.99470198675497			
104	2100	0.951841059602649	0.0827549668874172	-0.183523178807947	4.79337748344371	-1.5446357615894	-1.74490066225166				0.976953642384106	0.0317880794701987	-0.130860927152318	5.19390728476821	-6.97218543046358	3.89403973509934				0.917827814569536	-0.00127152317880793	-0.26394701986755	12.327417218543	4.90649006622517	-3.84026490066225				0.656529801324503	-0.0645298013245033	-0.677721854304636	9.48291390728477	3.2635761589404	4.14437086092715				0.980026490066225	0.0194966887417219	0.0699337748344371	4.1517880794702	-0.788079470198675	6.38251655629139				0.735788079470199	-0.286834437086093	-0.612238410596026	1.70039735099338	-10.2023841059603	-0.754701986754968			
105	2120	0.919841059602649	0.0667549668874172	-0.151523178807947	5.63337748344371	-2.6646357615894	-1.18490066225166				0.944953642384106	0.0637880794701987	-0.130860927152318	7.71390728476821	-3.89218543046358	2.77403973509934				0.885827814569536	-0.0172715231788079	-0.26394701986755	11.207417218543	2.94649006622517	-3.56026490066225				0.688529801324503	-0.0965298013245033	-0.709721854304636	13.1229139072848	5.5035761589404	5.82437086092715				0.964026490066225	0.0354966887417219	0.0219337748344371	2.7517880794702	-0.228079470198675	6.66251655629139				0.719788079470199	-0.270834437086093	-0.612238410596026	1.42039735099338	-11.8823841059603	-0.474701986754968			
106	2140	0.919841059602649	0.0347549668874172	-0.183523178807947	5.91337748344371	0.135364238410596	-0.344900662251656				0.960953642384106	0.0317880794701987	-0.0988609271523179	14.7139072847682	-1.93218543046358	5.29403973509934				0.933827814569536	-0.00127152317880793	-0.29594701986755	12.887417218543	0.426490066225167	-3.00026490066225				0.704529801324503	-0.0805298013245033	-0.693721854304636	10.8829139072848	5.2235761589404	4.14437086092715				0.980026490066225	0.0354966887417219	0.0699337748344371	6.3917880794702	2.29192052980133	7.50251655629139				0.719788079470199	-0.286834437086093	-0.596238410596026	5.90039735099338	-11.8823841059603	0.645298013245032			
107	2160	0.935841059602649	0.0507549668874172	-0.215523178807947	5.63337748344371	1.8153642384106	-1.46490066225166				0.976953642384106	0.0317880794701987	-0.130860927152318	10.2339072847682	0.307814569536424	5.57403973509934				0.917827814569536	-0.00127152317880793	-0.29594701986755	13.167417218543	1.54649006622517	-3.84026490066225				0.704529801324503	-0.0485298013245033	-0.677721854304636	10.8829139072848	1.5835761589404	4.14437086092715				0.980026490066225	0.00349668874172187	0.0699337748344371	8.3517880794702	0.0519205298013249	7.50251655629139				0.671788079470199	-0.270834437086093	-0.612238410596026	4.22039735099338	-9.08238410596027	-0.754701986754968			
108	2180	0.951841059602649	0.0347549668874172	-0.215523178807947	5.35337748344371	0.415364238410596	-1.18490066225166				0.992953642384106	0.0157880794701987	-0.0988609271523179	2.11390728476821	4.78781456953642	4.73403973509934				0.917827814569536	-0.00127152317880793	-0.27994701986755	13.727417218543	1.82649006622517	-3.84026490066225				0.704529801324503	-0.112529801324503	-0.709721854304636	15.9229139072848	-1.4964238410596	4.98437086092715				0.964026490066225	-0.0125033112582781	0.0539337748344371	8.6317880794702	-2.74807947019868	7.78251655629139				0.671788079470199	-0.286834437086093	-0.612238410596026	3.10039735099338	-6.56238410596027	-0.194701986754968			
109	2200	0.935841059602649	0.0507549668874172	-0.231523178807947	3.11337748344371	-0.424635761589404	-1.74490066225166				0.976953642384106	0.0157880794701987	-0.0828609271523179	2.67390728476821	2.26781456953642	3.05403973509934				0.917827814569536	-0.0172715231788079	-0.27994701986755	15.127417218543	0.146490066225167	-3.28026490066225				0.688529801324503	-0.160529801324503	-0.725721854304636	12.8429139072848	-1.4964238410596	3.58437086092715				0.932026490066225	-0.0285033112582781	0.0539337748344371	10.8717880794702	0.0519205298013249	7.78251655629139				0.687788079470199	-0.286834437086093	-0.612238410596026	9.26039735099338	-6.00238410596027	0.645298013245032			
110	2220	0.935841059602649	0.0507549668874172	-0.247523178807947	4.23337748344371	0.695364238410596	-1.74490066225166				0.976953642384106	0.0157880794701987	-0.130860927152318	8.27390728476821	1.70781456953642	1.93403973509934				0.933827814569536	-0.0492715231788079	-0.29594701986755	18.767417218543	3.78649006622517	-3.28026490066225				0.688529801324503	-0.144529801324503	-0.709721854304636	4.44291390728477	-4.8564238410596	-3.41562913907285				0.948026490066225	-0.0285033112582781	0.0539337748344371	12.8317880794702	6.21192052980133	5.54251655629139				0.671788079470199	-0.302834437086093	-0.580238410596026	9.82039735099338	-7.96238410596027	0.365298013245032			
111	2240	0.919841059602649	0.0347549668874172	-0.247523178807947	6.47337748344371	0.415364238410596	-2.02490066225166				0.944953642384106	0.0477880794701987	-0.0988609271523179	10.7939072847682	4.50781456953642	-0.0259602649006601				0.917827814569536	-0.0492715231788079	-0.26394701986755	14.847417218543	2.38649006622517	-1.88026490066225				0.688529801324503	-0.0965298013245033	-0.677721854304636	2.20291390728477	-4.8564238410596	-5.37562913907285				0.980026490066225	-0.0125033112582781	0.0699337748344371	10.5917880794702	3.97192052980133	4.98251655629139				0.671788079470199	-0.334834437086093	-0.564238410596026	11.7803973509934	-7.96238410596027	-0.754701986754968			
112	2260	0.919841059602649	0.0187549668874172	-0.231523178807947	7.59337748344371	-1.2646357615894	-1.46490066225166				0.960953642384106	0.0317880794701987	-0.0828609271523179	11.3539072847682	6.18781456953642	2.77403973509934				0.901827814569536	-0.0492715231788079	-0.26394701986755	8.68741721854305	2.66649006622517	-1.32026490066225				0.704529801324503	-0.0805298013245033	-0.677721854304636	6.40291390728477	-3.4564238410596	-3.97562913907285				0.948026490066225	0.0194966887417219	0.0859337748344371	11.7117880794702	1.17192052980133	4.14251655629139				0.687788079470199	-0.318834437086093	-0.564238410596026	6.18039735099338	-7.12238410596027	-0.194701986754968			
113	2280	0.919841059602649	0.0187549668874172	-0.231523178807947	5.07337748344371	-0.704635761589404	-1.18490066225166				0.960953642384106	0.0317880794701987	-0.0508609271523178	7.71390728476821	8.14781456953643	3.05403973509934				0.917827814569536	-0.0492715231788079	-0.26394701986755	9.52741721854305	3.78649006622517	-0.48026490066225				0.688529801324503	-0.128529801324503	-0.709721854304636	11.4429139072848	2.4235761589404	-0.615629139072848				0.932026490066225	-0.0125033112582781	0.0699337748344371	12.5517880794702	0.611920529801325	3.02251655629139				0.671788079470199	-0.318834437086093	-0.548238410596027	5.90039735099338	-4.60238410596027	0.645298013245032			
114	2300	0.935841059602649	0.0187549668874172	-0.231523178807947	3.67337748344371	-1.2646357615894	-0.624900662251656				0.960953642384106	0.0157880794701987	-0.0988609271523179	6.03390728476821	5.34781456953642	3.05403973509934				0.933827814569536	-0.0332715231788079	-0.27994701986755	9.52741721854305	1.54649006622517	0.35973509933775				0.656529801324503	-0.112529801324503	-0.693721854304636	9.20291390728477	-1.4964238410596	-4.25562913907285				0.948026490066225	-0.0285033112582781	0.0859337748344371	11.7117880794702	3.69192052980133	2.46251655629139				0.687788079470199	-0.318834437086093	-0.548238410596027	7.58039735099338	-1.80238410596026	0.925298013245032			
115	2320	0.919841059602649	0.0347549668874172	-0.247523178807947	-0.806622516556291	-0.984635761589404	-1.18490066225166				0.976953642384106	-0.0162119205298013	-0.0828609271523179	4.91390728476821	7.58781456953643	2.49403973509934				0.933827814569536	-0.0332715231788079	-0.27994701986755	10.647417218543	0.986490066225167	-0.20026490066225				0.672529801324503	-0.0965298013245033	-0.693721854304636	5.56291390728477	-4.8564238410596	-4.53562913907285				0.980026490066225	-0.0285033112582781	0.117933774834437	8.9117880794702	1.73192052980133	0.502516556291392				0.719788079470199	-0.350834437086093	-0.548238410596027	9.54039735099338	-1.80238410596026	-1.31470198675497			
116	2340	0.919841059602649	0.0507549668874172	-0.231523178807947	-0.246622516556291	1.5353642384106	-0.344900662251656				0.976953642384106	0.0157880794701987	-0.0828609271523179	4.35390728476821	9.82781456953643	1.09403973509934				0.917827814569536	-0.0332715231788079	-0.27994701986755	8.96741721854305	-0.693509933774834	0.0797350993377501				0.704529801324503	-0.112529801324503	-0.709721854304636	6.96291390728477	-8.2164238410596	-3.41562913907285				0.948026490066225	-0.0125033112582781	0.0859337748344371	6.6717880794702	-1.34807947019868	1.34251655629139				0.719788079470199	-0.366834437086093	-0.564238410596026	7.30039735099338	-2.92238410596027	-4.39470198675497			
117	2360	0.967841059602649	0.0347549668874172	-0.263523178807947	-0.246622516556291	1.8153642384106	0.495099337748344				0.976953642384106	0.0157880794701987	-0.0508609271523178	2.95390728476821	10.6678145695364	1.09403973509934				0.933827814569536	-0.0332715231788079	-0.27994701986755	2.52741721854305	-2.65350993377483	-0.48026490066225				0.688529801324503	-0.128529801324503	-0.693721854304636	2.76291390728477	-7.0964238410596	-5.09562913907285				0.932026490066225	0.00349668874172187	0.117933774834437	6.1117880794702	2.57192052980133	1.34251655629139				0.703788079470199	-0.350834437086093	-0.548238410596027	8.14039735099338	-2.36238410596027	-4.39470198675497			
118	2380	0.951841059602649	0.0347549668874172	-0.279523178807947	-2.76662251655629	-0.984635761589404	-0.344900662251656				1.02495364238411	-0.000211920529801304	-0.0508609271523178	-1.52609271523179	6.74781456953642	1.93403973509934				0.933827814569536	-0.0172715231788079	-0.27994701986755	1.96741721854305	-1.81350993377483	-1.32026490066225				0.656529801324503	-0.0965298013245033	-0.709721854304636	-1.43708609271523	-7.6564238410596	-5.65562913907285				0.964026490066225	-0.0285033112582781	0.117933774834437	6.6717880794702	2.29192052980133	0.782516556291392				0.703788079470199	-0.350834437086093	-0.564238410596026	11.5003973509934	-2.64238410596027	-3.83470198675497			
119	2400	0.919841059602649	0.0507549668874172	-0.231523178807947	-4.16662251655629	-0.704635761589404	-1.74490066225166				0.992953642384106	0.0317880794701987	-0.0348609271523178	-4.88609271523179	2.54781456953642	0.81403973509934				0.917827814569536	-0.0332715231788079	-0.27994701986755	1.68741721854305	-1.25350993377483	-1.88026490066225				0.656529801324503	-0.0645298013245033	-0.693721854304636	1.08291390728477	-10.1764238410596	-3.41562913907285				0.980026490066225	-0.0125033112582781	0.101933774834437	4.4317880794702	0.331920529801325	1.06251655629139				0.735788079470199	-0.350834437086093	-0.564238410596026	6.74039735099338	-2.64238410596027	-4.11470198675497			
120	2420	0.935841059602649	0.0667549668874172	-0.263523178807947	-3.88662251655629	-2.3846357615894	-0.624900662251656				0.960953642384106	0.0477880794701987	-0.0508609271523178	3.51390728476821	-2.77218543046358	0.53403973509934				0.901827814569536	-0.0172715231788079	-0.29594701986755	1.12741721854305	1.26649006622517	-2.16026490066225				0.672529801324503	-0.0965298013245033	-0.693721854304636	0.242913907284768	-9.6164238410596	-1.45562913907285				0.948026490066225	0.0194966887417219	0.0859337748344371	2.7517880794702	-1.90807947019868	1.62251655629139				0.703788079470199	-0.366834437086093	-0.564238410596026	1.70039735099338	-4.04238410596027	-4.39470198675497			
121	2440	0.919841059602649	0.0667549668874172	-0.215523178807947	-1.36662251655629	-3.2246357615894	1.33509933774834				0.976953642384106	0.0477880794701987	-0.0828609271523179	3.51390728476821	-0.812185430463576	1.09403973509934				0.917827814569536	-0.00127152317880793	-0.29594701986755	-1.39258278145695	0.426490066225167	-0.76026490066225				0.656529801324503	-0.128529801324503	-0.693721854304636	-3.67708609271523	-5.4164238410596	-0.0556291390728476				0.932026490066225	0.00349668874172187	0.0859337748344371	2.4717880794702	1.17192052980133	0.782516556291392				0.687788079470199	-0.334834437086093	-0.548238410596027	1.14039735099338	-4.04238410596027	-2.15470198675497			
122	2460	0.935841059602649	0.0507549668874172	-0.215523178807947	1.71337748344371	-0.144635761589404	0.775099337748344				0.976953642384106	0.0317880794701987	-0.0988609271523179	-1.80609271523179	-1.09218543046358	1.09403973509934				0.933827814569536	-0.00127152317880793	-0.27994701986755	-1.11258278145695	0.706490066225167	0.35973509933775				0.624529801324503	-0.0965298013245033	-0.693721854304636	-4.51708609271523	-4.0164238410596	-1.45562913907285				0.964026490066225	-0.0125033112582781	0.0699337748344371	0.511788079470198	2.29192052980133	-0.617483443708608				0.703788079470199	-0.334834437086093	-0.564238410596026	3.10039735099338	-2.92238410596027	-2.43470198675497			
123	2480	0.951841059602649	0.0347549668874172	-0.247523178807947	-0.806622516556291	-0.144635761589404	-0.0649006622516557				0.976953642384106	0.0477880794701987	-0.0828609271523179	-3.76609271523179	1.14781456953642	0.25403973509934				0.917827814569536	-0.0172715231788079	-0.29594701986755	0.567417218543046	-0.413509933774833	-0.76026490066225				0.640529801324503	-0.0645298013245033	-0.693721854304636	-3.39708609271523	-4.8564238410596	-1.17562913907285				0.964026490066225	0.0194966887417219	0.0859337748344371	-1.4482119205298	0.331920529801325	-0.337483443708608				0.719788079470199	-0.334834437086093	-0.564238410596026	3.94039735099338	-6.00238410596027	-4.39470198675497			
124	2500	0.951841059602649	0.0827549668874172	-0.263523178807947	-2.20662251655629	-2.6646357615894	-0.904900662251656				0.976953642384106	0.0477880794701987	-0.0668609271523178	-0.966092715231788	0.307814569536424	0.53403973509934				0.901827814569536	0.0147284768211921	-0.29594701986755	2.24741721854305	0.426490066225167	-0.48026490066225				0.656529801324503	-0.0645298013245033	-0.709721854304636	-2.55708609271523	-3.1764238410596	2.46437086092715				0.964026490066225	0.0354966887417219	0.0859337748344371	-1.4482119205298	-1.34807947019868	-0.617483443708608				0.703788079470199	-0.286834437086093	-0.532238410596027	-2.21960264900662	-4.04238410596027	-4.11470198675497			
125	2520	0.919841059602649	0.0827549668874172	-0.231523178807947	-2.48662251655629	-3.7846357615894	-0.344900662251656				0.976953642384106	0.0317880794701987	-0.0668609271523178	2.11390728476821	-1.93218543046358	1.93403973509934				0.901827814569536	-0.00127152317880793	-0.29594701986755	-2.51258278145695	-0.133509933774833	0.35973509933775				0.656529801324503	-0.0965298013245033	-0.709721854304636	0.802913907284768	-0.6564238410596	2.74437086092715				0.964026490066225	0.00349668874172187	0.0699337748344371	-0.608211920529802	-0.788079470198675	0.222516556291392				0.671788079470199	-0.318834437086093	-0.580238410596026	3.94039735099338	-2.08238410596027	-2.99470198675497			
126	2540	0.919841059602649	0.0507549668874172	-0.215523178807947	3.39337748344371	-1.8246357615894	-0.624900662251656				0.976953642384106	0.0157880794701987	-0.0828609271523179	3.23390728476821	-2.49218543046358	-0.0259602649006601				0.917827814569536	-0.00127152317880793	-0.29594701986755	0.287417218543046	-0.693509933774834	-0.76026490066225				0.640529801324503	-0.0965298013245033	-0.693721854304636	-1.43708609271523	-1.2164238410596	-0.0556291390728476				0.980026490066225	-0.0285033112582781	0.0699337748344371	0.231788079470198	1.17192052980133	1.06251655629139				0.687788079470199	-0.350834437086093	-0.580238410596026	5.34039735099338	-0.962384105960265	-3.55470198675497			
127	2560	0.951841059602649	0.0347549668874172	-0.247523178807947	4.23337748344371	-2.1046357615894	-0.904900662251656				0.992953642384106	0.0157880794701987	-0.114860927152318	2.39390728476821	0.0278145695364242	-0.86596026490066				0.933827814569536	-0.00127152317880793	-0.29594701986755	2.80741721854305	0.146490066225167	-0.76026490066225				0.656529801324503	-0.0965298013245033	-0.677721854304636	-3.95708609271523	-2.0564238410596	-0.0556291390728476				0.964026490066225	-0.0125033112582781	0.0699337748344371	1.6317880794702	0.331920529801325	0.782516556291392				0.687788079470199	-0.334834437086093	-0.580238410596026	-0.819602649006623	0.437615894039735	-1.31470198675497			
128	2580	0.935841059602649	0.0347549668874172	-0.247523178807947	3.11337748344371	-3.5046357615894	-0.344900662251656				0.976953642384106	0.0317880794701987	-0.0828609271523179	-1.80609271523179	-1.65218543046358	-1.14596026490066				0.917827814569536	-0.00127152317880793	-0.29594701986755	0.567417218543046	-1.25350993377483	-1.60026490066225				0.656529801324503	-0.0805298013245033	-0.693721854304636	-2.55708609271523	-1.2164238410596	1.34437086092715				0.948026490066225	0.0194966887417219	0.0699337748344371	1.3517880794702	-1.90807947019868	0.782516556291392				0.703788079470199	-0.302834437086093	-0.596238410596026	-0.539602649006623	0.437615894039735	-1.87470198675497			
129	2600	0.935841059602649	0.0347549668874172	-0.215523178807947	3.39337748344371	-1.2646357615894	-0.904900662251656				0.960953642384106	0.0477880794701987	-0.0668609271523178	-0.966092715231788	1.70781456953642	-1.14596026490066				0.917827814569536	-0.0172715231788079	-0.29594701986755	0.567417218543046	-1.53350993377483	-0.76026490066225				0.624529801324503	-0.0645298013245033	-0.693721854304636	-0.877086092715232	2.4235761589404	0.224370860927152				0.948026490066225	0.0194966887417219	0.0539337748344371	1.9117880794702	0.0519205298013249	1.06251655629139				0.703788079470199	-0.286834437086093	-0.596238410596026	3.10039735099338	-0.962384105960265	-2.15470198675497			
130	2620	0.951841059602649	0.0507549668874172	-0.215523178807947	0.873377483443709	-1.8246357615894	0.215099337748344				0.960953642384106	0.0317880794701987	-0.0668609271523178	3.79390728476821	0.587814569536424	0.53403973509934				0.917827814569536	0.0147284768211921	-0.27994701986755	3.08741721854305	-1.25350993377483	-1.88026490066225				0.640529801324503	-0.0325298013245033	-0.693721854304636	2.76291390728477	2.1435761589404	-0.615629139072848				0.964026490066225	0.00349668874172187	0.0539337748344371	4.4317880794702	0.611920529801325	1.06251655629139				0.703788079470199	-0.318834437086093	-0.596238410596026	6.18039735099338	-2.08238410596027	-1.31470198675497			
131	2640	0.935841059602649	0.0507549668874172	-0.231523178807947	0.0333774834437086	-2.9446357615894	-0.344900662251656				0.976953642384106	0.0317880794701987	-0.114860927152318	5.19390728476821	0.0278145695364242	0.53403973509934				0.933827814569536	-0.00127152317880793	-0.27994701986755	3.64741721854305	-0.693509933774834	-1.32026490066225				0.656529801324503	-0.0805298013245033	-0.693721854304636	3.88291390728477	3.2635761589404	-1.73562913907285				0.964026490066225	0.00349668874172187	0.0859337748344371	5.5517880794702	3.13192052980133	1.62251655629139				0.703788079470199	-0.302834437086093	-0.596238410596026	3.10039735099338	-2.36238410596027	-0.754701986754968			
132	2660	0.919841059602649	0.0667549668874172	-0.231523178807947	3.39337748344371	-5.4646357615894	-0.344900662251656				0.960953642384106	0.0317880794701987	-0.0668609271523178	3.79390728476821	1.70781456953642	0.53403973509934				0.885827814569536	-0.0172715231788079	-0.29594701986755	10.367417218543	-3.49350993377483	-2.72026490066225				0.656529801324503	-0.0965298013245033	-0.677721854304636	3.88291390728477	3.2635761589404	-2.29562913907285				0.948026490066225	0.00349668874172187	0.0699337748344371	5.5517880794702	-1.06807947019868	2.46251655629139				0.687788079470199	-0.302834437086093	-0.596238410596026	0.300397350993377	-3.20238410596026	-1.31470198675497			
133	2680	0.935841059602649	0.0667549668874172	-0.247523178807947	5.07337748344371	-5.7446357615894	0.215099337748344				0.976953642384106	0.0317880794701987	-0.0668609271523178	6.59390728476821	2.26781456953642	1.09403973509934				0.917827814569536	-0.0172715231788079	-0.27994701986755	9.80741721854305	-2.65350993377483	-2.44026490066225				0.656529801324503	-0.0645298013245033	-0.661721854304636	5.00291390728477	3.5435761589404	-2.57562913907285				0.932026490066225	0.00349668874172187	0.0859337748344371	4.9917880794702	1.17192052980133	1.90251655629139				0.671788079470199	-0.302834437086093	-0.596238410596026	3.94039735099338	-2.92238410596027	-2.15470198675497			
134	2700	0.935841059602649	0.0347549668874172	-0.231523178807947	7.31337748344371	-3.5046357615894	-1.46490066225166				0.992953642384106	0.0317880794701987	-0.0828609271523179	3.51390728476821	3.10781456953642	2.21403973509934				0.933827814569536	-0.0332715231788079	-0.27994701986755	7.84741721854305	-2.09350993377483	-2.72026490066225				0.656529801324503	-0.0805298013245033	-0.677721854304636	8.64291390728477	5.7835761589404	-0.895629139072848				0.964026490066225	-0.0125033112582781	0.0859337748344371	4.9917880794702	2.01192052980133	2.18251655629139				0.687788079470199	-0.334834437086093	-0.596238410596026	8.14039735099338	-6.00238410596027	-3.55470198675497			
135	2720	0.951841059602649	0.0187549668874172	-0.247523178807947	7.59337748344371	-3.5046357615894	-2.58490066225166				0.992953642384106	-0.000211920529801304	-0.0828609271523179	4.91390728476821	0.867814569536424	1.93403973509934				0.933827814569536	-0.0332715231788079	-0.31194701986755	6.16741721854305	-3.21350993377483	-1.60026490066225				0.688529801324503	-0.112529801324503	-0.693721854304636	9.48291390728477	6.3435761589404	-0.335629139072848				0.996026490066225	-0.0125033112582781	0.0859337748344371	6.9517880794702	1.17192052980133	2.74251655629139				0.687788079470199	-0.366834437086093	-0.596238410596026	6.18039735099338	-5.72238410596027	-3.55470198675497			
136	2740	0.935841059602649	0.0347549668874172	-0.247523178807947	6.75337748344371	-5.1846357615894	-2.30490066225166				0.992953642384106	-0.000211920529801304	-0.0668609271523178	6.87390728476821	0.867814569536424	1.37403973509934				0.917827814569536	-0.0172715231788079	-0.29594701986755	6.44741721854305	-1.25350993377483	-2.16026490066225				0.688529801324503	-0.112529801324503	-0.693721854304636	7.52291390728477	6.9035761589404	-1.73562913907285				0.964026490066225	-0.0125033112582781	0.101933774834437	8.3517880794702	1.17192052980133	2.18251655629139				0.703788079470199	-0.350834437086093	-0.596238410596026	3.10039735099338	-2.36238410596027	-3.55470198675497			
137	2760	0.903841059602649	0.0347549668874172	-0.231523178807947	6.47337748344371	-5.4646357615894	-2.58490066225166				0.976953642384106	-0.000211920529801304	-0.0348609271523178	6.59390728476821	-2.21218543046358	1.09403973509934				0.917827814569536	-0.0332715231788079	-0.27994701986755	5.32741721854305	-0.973509933774833	-2.16026490066225				0.688529801324503	-0.0965298013245033	-0.693721854304636	3.88291390728477	5.2235761589404	-4.25562913907285				0.948026490066225	-0.0285033112582781	0.0859337748344371	7.5117880794702	1.73192052980133	2.46251655629139				0.671788079470199	-0.334834437086093	-0.596238410596026	5.06039735099338	-2.36238410596027	-3.55470198675497			
