No	Time	12-AccX	12-AccY	12-AccZ	12-GyroX	12-GyroY	12-GyroZ	13-AccX	13-AccY	13-AccZ	13-GyroX	13-GyroY	13-GyroZ	14-AccX	14-AccY	14-AccZ	14-GyroX	14-GyroY	14-GyroZ	15-AccX	15-AccY	15-AccZ	15-GyroX	15-GyroY	15-GyroZ	16-AccX	16-AccY	16-AccZ	16-GyroX	16-GyroY	16-GyroZ	17-AccX	17-AccY	17-AccZ	17-GyroX	17-GyroY	17-GyroZ
0	20	-0.168158940397351	0.146754966887417	-0.951523178807947	-2.20662251655629	-0.704635761589404	0.775099337748344				0.944953642384106	0.0317880794701987	0.173139072847682	-5.16609271523179	-0.252185430463576	1.37403973509934				-0.218172185430464	-0.193271523178808	-0.87194701986755	0.847417218543046	-0.413509933774833	-3.00026490066225				0	0	0	0	0	0				0.916026490066225	0.0194966887417219	0.277933774834437	5.2717880794702	0.331920529801325	2.74251655629139				0.431788079470199	-0.238834437086093	-0.836238410596026	3.94039735099338	8.27761589403974	23.605298013245			
1	40	-0.184158940397351	0.162754966887417	-0.935523178807947	-2.48662251655629	-1.2646357615894	1.61509933774834				0.928953642384106	0.0317880794701987	0.157139072847682	-3.20609271523179	2.54781456953642	2.21403973509934				-0.234172185430464	-0.177271523178808	-0.83994701986755	3.64741721854305	-1.81350993377483	-2.72026490066225				0.512529801324503	-0.128529801324503	-0.933721854304636	-12.3570860927152	-30.8964238410596	-24.6956291390729				0.884026490066225	0.0354966887417219	0.277933774834437	3.8717880794702	2.57192052980133	2.46251655629139				0.415788079470199	-0.254834437086093	-0.852238410596026	5.90039735099338	5.47761589403974	25.285298013245			
2	60	-0.200158940397351	0.146754966887417	-0.919523178807947	-2.48662251655629	-0.984635761589404	2.17509933774834				0.928953642384106	0.0317880794701987	0.189139072847682	0.153907284768212	4.78781456953642	-0.30596026490066				-0.266172185430464	-0.161271523178808	-0.85594701986755	-1.67258278145695	-2.93350993377483	-1.60026490066225				0.496529801324503	-0.0165298013245033	-0.917721854304636	-43.1570860927152	-49.9364238410596	-30.0156291390729				0.900026490066225	0.0194966887417219	0.293933774834437	1.0717880794702	3.97192052980133	1.34251655629139				0.383788079470199	-0.270834437086093	-0.836238410596026	7.58039735099338	5.19761589403974	29.205298013245			
3	80	-0.216158940397351	0.146754966887417	-0.919523178807947	-3.60662251655629	-2.6646357615894	2.73509933774834				0.960953642384106	0.0477880794701987	0.221139072847682	1.83390728476821	8.42781456953642	0.25403973509934				-0.250172185430464	-0.193271523178808	-0.85594701986755	-1.39258278145695	-2.37350993377483	-0.76026490066225				0.496529801324503	-0.0325298013245033	-0.885721854304636	-42.3170860927152	-56.0964238410596	-42.8956291390729				0.884026490066225	0.0354966887417219	0.245933774834437	-2.2882119205298	-1.90807947019868	-0.617483443708608				0.367788079470199	-0.222834437086093	-0.820238410596026	7.02039735099338	-3.48238410596027	37.605298013245			
4	100	-0.216158940397351	0.146754966887417	-0.935523178807947	-2.76662251655629	-0.984635761589404	2.17509933774834				0.960953642384106	0.0637880794701987	0.157139072847682	-1.52609271523179	13.1878145695364	1.93403973509934				-0.266172185430464	-0.209271523178808	-0.88794701986755	-0.272582781456954	-0.413509933774833	0.35973509933775				0.416529801324503	-0.0485298013245033	-0.853721854304636	-44.8370860927152	-59.7364238410596	-49.0556291390728				0.900026490066225	0.0674966887417219	0.197933774834437	6.1117880794702	5.09192052980133	-1.45748344370861				0.319788079470199	-0.206834437086093	-0.852238410596026	12.0603973509934	-4.88238410596027	41.525298013245			
5	120	-0.200158940397351	0.162754966887417	-0.951523178807947	-2.76662251655629	-0.704635761589404	2.45509933774835				0.960953642384106	0.0477880794701987	0.125139072847682	-5.44609271523179	18.7878145695364	2.21403973509934				-0.250172185430464	-0.225271523178808	-0.83994701986755	0.567417218543046	-4.05350993377483	0.63973509933775				0.416529801324503	-0.0325298013245033	-0.853721854304636	-48.4770860927152	-63.6564238410596	-48.7756291390729				0.900026490066225	0.0834966887417219	0.277933774834437	7.7917880794702	10.4119205298013	0.222516556291392				0.319788079470199	-0.174834437086093	-0.916238410596027	9.82039735099338	1.27761589403974	45.445298013245			
6	140	-0.168158940397351	0.210754966887417	-0.951523178807947	-6.40662251655629	-0.424635761589404	6.37509933774834				0.944953642384106	0.0317880794701987	0.157139072847682	-6.00609271523179	25.7878145695364	1.65403973509934				-0.250172185430464	-0.193271523178808	-0.80794701986755	-1.67258278145695	-4.61350993377483	2.03973509933775				0.352529801324503	0.0314701986754967	-0.901721854304636	-55.7570860927152	-66.1764238410596	-47.0956291390729				0.900026490066225	0.0834966887417219	0.277933774834437	5.2717880794702	14.0519205298013	-0.337483443708608				0.367788079470199	-0.158834437086093	-0.900238410596026	31.9403973509934	3.23761589403974	42.645298013245			
7	160	-0.168158940397351	0.178754966887417	-0.919523178807947	-10.6066225165563	-1.2646357615894	8.61509933774835				0.928953642384106	0.0797880794701987	0.253139072847682	-3.20609271523179	26.0678145695364	3.89403973509934				-0.266172185430464	-0.193271523178808	-0.85594701986755	-8.11258278145695	-3.49350993377483	3.71973509933775				0.320529801324503	0.0634701986754967	-0.853721854304636	-43.9970860927152	-54.9764238410596	-53.2556291390729				0.948026490066225	0.0674966887417219	0.229933774834437	9.4717880794702	13.4919205298013	-0.897483443708608				0.351788079470199	-0.206834437086093	-0.884238410596026	50.9803973509934	-3.48238410596027	38.725298013245			
8	180	-0.216158940397351	0.130754966887417	-0.919523178807947	-7.80662251655629	-3.7846357615894	6.09509933774834				0.944953642384106	0.0797880794701987	0.157139072847682	-4.32609271523179	33.9078145695364	7.53403973509934				-0.282172185430464	-0.193271523178808	-0.90394701986755	-5.59258278145695	-2.65350993377483	5.11973509933775				0.304529801324503	0.0474701986754967	-0.853721854304636	-34.4770860927152	-47.1364238410596	-53.8156291390729				0.932026490066225	0.0994966887417219	0.197933774834437	9.7517880794702	12.9319205298013	0.222516556291392				0.319788079470199	-0.238834437086093	-0.884238410596026	44.2603973509934	-8.24238410596027	42.085298013245			
9	200	-0.232158940397351	0.162754966887417	-0.951523178807947	3.95337748344371	-4.6246357615894	3.01509933774834				0.992953642384106	0.0637880794701987	0.157139072847682	-5.44609271523179	50.4278145695364	10.0540397350993				-0.282172185430464	-0.161271523178808	-0.90394701986755	-1.11258278145695	-1.81350993377483	2.03973509933775				0.272529801324503	-0.000529801324503289	-0.869721854304636	-38.6770860927152	-46.8564238410596	-50.4556291390729				0.884026490066225	0.131496688741722	0.213933774834437	11.9917880794702	12.3719205298013	0.782516556291392				0.303788079470199	-0.254834437086093	-0.868238410596026	38.6603973509934	-11.3223841059603	45.725298013245			
10	220	-0.248158940397351	0.194754966887417	-0.967523178807947	-1.64662251655629	-3.7846357615894	2.73509933774834				0.992953642384106	0.0317880794701987	0.237139072847682	-6.00609271523179	52.6678145695364	11.4540397350993				-0.298172185430464	-0.0972715231788079	-0.88794701986755	-1.95258278145695	0.706490066225167	1.75973509933775				0.240529801324503	0.0634701986754967	-0.821721854304636	-56.0370860927152	-48.8164238410596	-41.7756291390729				0.932026490066225	0.115496688741722	0.213933774834437	10.0317880794702	28.3319205298013	4.14251655629139				0.271788079470199	-0.286834437086093	-0.836238410596026	20.4603973509934	-15.8023841059603	44.605298013245			
11	240	-0.264158940397351	0.178754966887417	-0.919523178807947	-7.52662251655629	0.135364238410596	2.17509933774834				0.992953642384106	0.0477880794701987	0.301139072847682	-5.72609271523179	48.4678145695364	8.93403973509934				-0.314172185430464	-0.0812715231788079	-0.88794701986755	-1.39258278145695	0.706490066225167	3.15973509933775				0.240529801324503	0.143470198675497	-0.821721854304636	-44.8370860927152	-34.2564238410596	-43.4556291390729				0.996026490066225	0.0674966887417219	0.245933774834437	16.4717880794702	38.4119205298013	8.62251655629139				0.335788079470199	-0.254834437086093	-0.884238410596026	12.6203973509934	-6.28238410596027	42.085298013245			
12	260	-0.264158940397351	0.194754966887417	-0.887523178807947	0.313377483443709	0.975364238410596	1.33509933774834				1.00895364238411	0.0477880794701987	0.269139072847682	-0.126092715231788	49.5878145695364	6.97403973509934				-0.346172185430464	-0.145271523178808	-0.90394701986755	-0.272582781456954	2.38649006622517	2.31973509933775				0.192529801324503	0.127470198675497	-0.821721854304636	-28.3170860927152	-12.4164238410596	-40.0956291390729				0.948026490066225	0.0834966887417219	0.325933774834437	24.0317880794702	34.4919205298013	8.34251655629139				0.431788079470199	-0.190834437086093	-0.868238410596026	26.9003973509934	16.6776158940397	37.045298013245			
13	280	-0.264158940397351	0.210754966887417	-0.903523178807947	4.51337748344371	2.3753642384106	-0.344900662251656				0.992953642384106	0.0477880794701987	0.301139072847682	0.993907284768212	58.2678145695364	9.49403973509934				-0.346172185430464	-0.129271523178808	-0.88794701986755	4.20741721854305	2.66649006622517	0.63973509933775				0.224529801324503	0.159470198675497	-0.773721854304636	-15.7170860927152	8.3035761589404	-27.4956291390729				0.884026490066225	0.0994966887417219	0.389933774834437	32.1517880794702	31.6919205298013	6.66251655629139				0.367788079470199	-0.254834437086093	-0.740238410596026	48.7403973509934	6.59761589403974	31.445298013245			
14	300	-0.232158940397351	0.210754966887417	-0.951523178807947	2.83337748344371	5.7353642384106	-2.58490066225166				0.976953642384106	0.0317880794701987	0.381139072847682	-6.00609271523179	59.3878145695364	8.93403973509934				-0.314172185430464	-0.129271523178808	-0.88794701986755	4.48741721854305	6.02649006622517	-1.32026490066225				0.240529801324503	0.207470198675497	-0.789721854304636	-3.11708609271523	24.8235761589404	-16.2956291390729				0.852026490066225	0.0994966887417219	0.469933774834437	25.7117880794702	32.5319205298013	7.50251655629139				0.367788079470199	-0.382834437086093	-0.724238410596026	46.5003973509934	3.23761589403974	21.645298013245			
15	320	-0.184158940397351	0.194754966887417	-0.919523178807947	2.55337748344371	6.5753642384106	-2.58490066225166				0.976953642384106	0.0317880794701987	0.397139072847682	-3.76609271523179	47.0678145695364	10.8940397350993				-0.266172185430464	-0.161271523178808	-0.87194701986755	7.28741721854305	4.90649006622517	-3.28026490066225				0.272529801324503	0.159470198675497	-0.885721854304636	23.2029139072848	37.7035761589404	-11.2556291390728				0.868026490066225	0.0994966887417219	0.469933774834437	12.5517880794702	31.4119205298013	5.82251655629139				0.367788079470199	-0.462834437086093	-0.740238410596026	47.3403973509934	3.23761589403974	23.605298013245			
16	340	-0.136158940397351	0.194754966887417	-0.919523178807947	-0.246622516556291	5.7353642384106	-0.904900662251656				0.912953642384106	0.0157880794701987	0.333139072847682	-0.966092715231788	28.8678145695364	8.93403973509934				-0.170172185430464	-0.177271523178808	-0.80794701986755	15.127417218543	4.06649006622517	-6.36026490066225				0.368529801324503	0.127470198675497	-0.933721854304636	33.2829139072848	43.0235761589404	-9.29562913907285				0.900026490066225	0.0514966887417219	0.389933774834437	17.5917880794702	24.1319205298013	7.78251655629139				0.431788079470199	-0.494834437086093	-0.740238410596026	35.3003973509934	7.43761589403974	24.165298013245			
17	360	-0.136158940397351	0.162754966887417	-0.919523178807947	-5.00662251655629	0.695364238410596	-0.904900662251656				0.864953642384106	0.0477880794701987	0.301139072847682	-0.406092715231788	19.9078145695364	7.25403973509934				-0.234172185430464	-0.113271523178808	-0.83994701986755	4.20741721854305	-0.133509933774833	-4.96026490066225				0.464529801324503	0.159470198675497	-0.949721854304636	14.2429139072848	24.2635761589404	-10.4156291390728				0.916026490066225	0.0194966887417219	0.373933774834437	16.1917880794702	26.9319205298013	9.18251655629139				0.431788079470199	-0.510834437086093	-0.676238410596026	23.8203973509934	1.55761589403974	29.485298013245			
18	380	-0.184158940397351	0.162754966887417	-0.935523178807947	-2.76662251655629	-1.2646357615894	0.495099337748344				0.864953642384106	0.0317880794701987	0.301139072847682	-0.686092715231788	28.5878145695364	7.53403973509934				-0.282172185430464	-0.161271523178808	-0.88794701986755	5.32741721854305	-0.413509933774833	-4.12026490066225				0.464529801324503	0.111470198675497	-0.949721854304636	-4.51708609271523	6.6235761589404	-18.5356291390728				0.932026490066225	0.0194966887417219	0.357933774834437	7.5117880794702	22.1719205298013	6.38251655629139				0.415788079470199	-0.494834437086093	-0.660238410596027	5.62039735099338	9.11761589403974	40.685298013245			
19	400	-0.216158940397351	0.146754966887417	-0.951523178807947	1.43337748344371	-2.1046357615894	0.775099337748344				0.928953642384106	0.0477880794701987	0.365139072847682	-2.64609271523179	49.3078145695364	8.65403973509934				-0.298172185430464	-0.177271523178808	-0.90394701986755	11.767417218543	1.54649006622517	-4.68026490066225				0.416529801324503	0.0794701986754967	-0.949721854304636	-14.8770860927152	-2.6164238410596	-21.0556291390728				0.868026490066225	0.0674966887417219	0.373933774834437	9.4717880794702	16.8519205298013	3.58251655629139				0.399788079470199	-0.446834437086093	-0.708238410596026	-4.45960264900662	18.0776158940397	42.645298013245			
20	420	-0.248158940397351	0.130754966887417	-0.967523178807947	1.99337748344371	1.2553642384106	0.775099337748344				0.960953642384106	0.0317880794701987	0.477139072847682	-9.64609271523179	45.6678145695364	9.21403973509934				-0.266172185430464	-0.193271523178808	-0.85594701986755	16.807417218543	2.38649006622517	-5.52026490066225				0.384529801324503	0.0314701986754967	-0.933721854304636	-27.1970860927152	-6.5364238410596	-15.4556291390728				0.820026490066225	0.0834966887417219	0.453933774834437	-0.328211920529802	14.6119205298013	-1.45748344370861				0.383788079470199	-0.382834437086093	-0.692238410596026	7.86039735099338	14.7176158940397	39.005298013245			
21	440	-0.232158940397351	0.146754966887417	-0.903523178807947	-0.246622516556291	2.0953642384106	2.17509933774834				0.976953642384106	0.0157880794701987	0.509139072847682	-16.6460927152318	28.0278145695364	8.65403973509934				-0.250172185430464	-0.209271523178808	-0.87194701986755	14.567417218543	2.94649006622517	-4.68026490066225				0.368529801324503	0.143470198675497	-0.885721854304636	-29.1570860927152	-6.5364238410596	0.784370860927152				0.852026490066225	0.131496688741722	0.501933774834437	-12.6482119205298	25.8119205298013	-3.13748344370861				0.367788079470199	-0.446834437086093	-0.708238410596026	17.1003973509934	10.5176158940397	28.365298013245			
22	460	-0.232158940397351	0.178754966887417	-0.919523178807947	1.15337748344371	1.2553642384106	4.13509933774834				0.960953642384106	-0.0482119205298013	0.477139072847682	-17.4860927152318	17.3878145695364	9.21403973509934				-0.234172185430464	-0.225271523178808	-0.85594701986755	15.687417218543	1.54649006622517	-3.56026490066225				0.384529801324503	0.239470198675497	-0.869721854304636	-14.0370860927152	-5.4164238410596	12.2643708609272				0.932026490066225	0.115496688741722	0.437933774834437	-0.888211920529802	24.1319205298013	-0.0574834437086077				0.479788079470199	-0.558834437086093	-0.740238410596026	22.7003973509934	11.9176158940397	24.165298013245			
23	480	-0.280158940397351	0.226754966887417	-1.01552317880795	-4.16662251655629	-2.6646357615894	6.93509933774835				0.960953642384106	-0.0482119205298013	0.477139072847682	-23.6460927152318	14.5878145695364	8.09403973509934				-0.298172185430464	-0.225271523178808	-0.90394701986755	10.367417218543	2.66649006622517	-3.00026490066225				0.496529801324503	0.207470198675497	-0.869721854304636	0.802913907284768	-7.6564238410596	24.0243708609272				1.01202649006623	0.0354966887417219	0.437933774834437	-1.4482119205298	21.3319205298013	2.46251655629139				0.511788079470199	-0.638834437086093	-0.788238410596027	15.1403973509934	14.1576158940397	29.765298013245			
24	500	-0.280158940397351	0.210754966887417	-0.967523178807947	-15.0866225165563	10.4953642384106	9.45509933774835				0.992953642384106	-0.000211920529801304	0.557139072847682	-27.2860927152318	11.5078145695364	6.13403973509934				-0.330172185430464	-0.225271523178808	-0.88794701986755	11.767417218543	7.70649006622517	-0.48026490066225				0.576529801324503	0.191470198675497	-1.04572185430464	23.4829139072848	-19.9764238410596	38.3043708609272				1.01202649006623	0.00349668874172187	0.581933774834437	2.7517880794702	8.73192052980133	2.46251655629139				0.559788079470199	-0.670834437086093	-0.836238410596026	-8.37960264900662	14.1576158940397	32.845298013245			
25	520	-0.232158940397351	0.130754966887417	-0.903523178807947	3.39337748344371	11.6153642384106	8.61509933774835				0.992953642384106	-0.0482119205298013	0.525139072847682	-24.7660927152318	3.38781456953642	5.01403973509934				-0.282172185430464	-0.289271523178808	-0.87194701986755	16.247417218543	7.98649006622517	2.87973509933775				0.640529801324503	0.223470198675497	-1.10972185430464	24.0429139072848	-36.7764238410596	45.3043708609272				0.932026490066225	0.0994966887417219	0.725933774834437	6.6717880794702	-1.62807947019868	1.06251655629139				0.511788079470199	-0.686834437086093	-0.852238410596026	-16.4996026490066	0.717615894039735	35.925298013245			
26	540	-0.216158940397351	0.114754966887417	-0.967523178807947	0.593377483443709	9.9353642384106	11.9750993377483				1.00895364238411	-0.0962119205298013	0.557139072847682	-17.4860927152318	-11.7321854304636	2.77403973509934				-0.186172185430464	-0.449271523178808	-0.80794701986755	15.967417218543	9.38649006622517	8.47973509933775				0.640529801324503	0.143470198675497	-1.09372185430464	3.88291390728477	-53.8564238410596	40.5443708609272				0.884026490066225	0.131496688741722	0.693933774834437	-6.4882119205298	-3.02807947019868	4.42251655629139				0.511788079470199	-0.702834437086093	-0.916238410596027	-8.93960264900662	-10.2023841059603	40.125298013245			
27	560	-0.168158940397351	0.130754966887417	-0.983523178807947	-7.24662251655629	11.3353642384106	14.2150993377483				0.976953642384106	-0.0802119205298013	0.525139072847682	-5.72609271523179	-35.2521854304636	5.29403973509934				-0.186172185430464	-0.513271523178808	-0.80794701986755	4.76741721854305	10.2264900662252	16.3197350993378				0.560529801324503	0.0794701986754967	-1.18972185430464	-24.1170860927152	-74.8564238410596	23.1843708609272				1.01202649006623	0.00349668874172187	0.565933774834437	-2.2882119205298	-4.98807947019868	7.50251655629139				0.495788079470199	-0.734834437086093	-0.980238410596026	-6.97960264900662	-30.3623841059603	44.885298013245			
28	580	-0.152158940397351	0.146754966887417	-1.03152317880795	2.83337748344371	11.0553642384106	17.8550993377483				0.912953642384106	-0.0322119205298013	0.429139072847682	8.27390728476821	-36.9321854304636	10.0540397350993				-0.218172185430464	-0.353271523178808	-0.80794701986755	-15.952582781457	7.98649006622517	22.7597350993378				0.416529801324503	0.0634701986754967	-1.04572185430464	-29.9970860927152	-64.2164238410596	11.1443708609272				1.02802649006623	0.0194966887417219	0.549933774834437	-3.6882119205298	-8.06807947019868	4.42251655629139				0.479788079470199	-0.622834437086093	-0.996238410596026	-23.4996026490066	-49.6823841059603	56.645298013245			
29	600	-0.232158940397351	0.146754966887417	-1.43152317880795	-34.6866225165563	10.4953642384106	25.1350993377483				0.864953642384106	-0.0642119205298013	0.413139072847682	9.11390728476821	-11.1721854304636	14.2540397350993				-0.282172185430464	-0.161271523178808	-0.93594701986755	-20.432582781457	6.02649006622517	19.9597350993378				0.336529801324503	0.191470198675497	-0.949721854304636	-30.2770860927152	-52.4564238410596	3.58437086092715				0.916026490066225	0.0674966887417219	0.437933774834437	-12.3682119205298	-10.8680794701987	4.14251655629139				0.271788079470199	-0.462834437086093	-0.916238410596027	-37.2196026490066	-68.1623841059603	66.445298013245			
30	620	-0.072158940397351	0.178754966887417	-0.839523178807947	-42.8066225165563	20.2953642384106	23.4550993377483				0.976953642384106	-0.0642119205298013	0.349139072847682	4.91390728476821	-6.97218543046358	21.5340397350993				-0.362172185430464	-0.0812715231788079	-1.14394701986755	10.087417218543	28.9864900662252	14.6397350993378				0.368529801324503	0.367470198675497	-1.06172185430464	-15.7170860927152	-68.4164238410596	-0.895629139072848				0.996026490066225	0.0834966887417219	0.357933774834437	1.9117880794702	-11.1480794701987	11.4225165562914				0.0637880794701987	-0.558834437086093	-0.756238410596026	-4.17960264900662	-48.5623841059603	75.125298013245			
31	640	-0.248158940397351	0.242754966887417	-0.871523178807947	-29.0866225165563	15.5353642384106	14.7750993377483				1.02495364238411	-0.0962119205298013	0.109139072847682	20.0339072847682	2.82781456953642	22.6540397350993				-0.330172185430464	-0.0812715231788079	-0.80794701986755	7.28741721854305	28.7064900662252	5.67973509933775				0.384529801324503	0.271470198675497	-1.23772185430464	-10.6770860927152	-69.5364238410596	-10.4156291390728				1.12402649006623	-0.0125033112582781	0.453933774834437	19.5517880794702	-22.9080794701987	18.7025165562914				0.111788079470199	-0.606834437086093	-0.884238410596026	0.580397350993377	-9.36238410596027	71.765298013245			
32	660	-0.440158940397351	0.226754966887417	-1.01552317880795	-33.5666225165563	33.1753642384106	18.4150993377483				1.05695364238411	-0.128211920529801	0.557139072847682	-5.72609271523179	58.2678145695364	19.0140397350993				-0.426172185430464	-0.0652715231788079	-1.01594701986755	-20.992582781457	19.1864900662252	0.91973509933775				0.464529801324503	-0.112529801324503	-1.07772185430464	-74.5170860927152	-62.2564238410596	-24.4156291390728				1.06002649006623	-0.0605033112582781	0.453933774834437	15.9117880794702	-31.3080794701987	13.6625165562914				0.255788079470199	-0.494834437086093	-0.916238410596027	26.3403973509934	-18.8823841059603	79.325298013245			
33	680	-0.360158940397351	0.242754966887417	-0.983523178807947	-11.7266225165563	36.8153642384106	17.5750993377483				1.36095364238411	-0.112211920529801	0.973139072847682	-21.9660927152318	48.4678145695364	18.7340397350993				-0.490172185430464	-0.145271523178808	-1.11194701986755	2.80741721854305	34.5864900662252	-5.24026490066225				0.192529801324503	0.175470198675497	-0.933721854304636	-66.1170860927152	-75.4164238410596	-35.6156291390729				1.06002649006623	-0.0445033112582781	0.501933774834437	9.1917880794702	-10.5880794701987	3.30251655629139				0.111788079470199	-0.686834437086093	-0.756238410596026	11.2203973509934	-43.5223841059603	73.165298013245			
34	700	-0.312158940397351	0.354754966887417	-1.01552317880795	-12.2866225165563	40.1753642384106	20.6550993377483				1.37695364238411	-0.128211920529801	0.669139072847682	4.07390728476821	-3.05218543046358	8.93403973509934				-0.330172185430464	-0.321271523178808	-0.93594701986755	-6.43258278145695	44.3864900662252	-4.40026490066225				0.000529801324503301	0.303470198675497	-1.18972185430464	-26.6370860927152	-55.2564238410596	-19.0956291390728				1.14002649006623	-0.0765033112582781	0.789933774834437	25.9917880794702	4.53192052980133	5.82251655629139				0.207788079470199	-0.734834437086093	-0.868238410596026	-30.2196026490066	-9.08238410596027	63.925298013245			
35	720	-0.248158940397351	0.370754966887417	-1.03152317880795	-3.04662251655629	51.9353642384106	25.4150993377483				1.34495364238411	-0.0322119205298013	0.573139072847682	34.8739072847682	-16.2121854304636	-1.70596026490066				-0.362172185430464	-0.289271523178808	-0.98394701986755	-18.192582781457	50.8264900662252	-3.84026490066225				0.240529801324503	0.383470198675497	-1.07772185430464	10.3229139072848	-17.4564238410596	-7.33562913907285				1.23602649006623	-0.0285033112582781	0.885933774834437	5.5517880794702	-10.3080794701987	4.14251655629139				0.367788079470199	-0.814834437086093	-0.772238410596026	-22.6596026490066	21.4376158940397	44.605298013245			
36	740	-0.248158940397351	0.258754966887417	-1.04752317880795	12.9133774834437	56.9753642384106	26.5350993377483				1.50495364238411	0.0317880794701987	0.845139072847682	37.3939072847682	-72.2121854304636	-1.14596026490066				-0.298172185430464	-0.129271523178808	-1.01594701986755	-17.912582781457	65.6664900662252	-0.48026490066225				0.336529801324503	0.415470198675497	-1.01372185430464	37.7629139072848	0.7435761589404	3.30437086092715				1.25202649006623	0.115496688741722	0.613933774834437	14.5117880794702	-18.7080794701987	-3.69748344370861				0.383788079470199	-0.958834437086093	-0.740238410596026	-41.6996026490066	30.3976158940397	38.165298013245			
37	760	-0.232158940397351	0.226754966887417	-1.04752317880795	18.7933774834437	63.6953642384106	26.8150993377483				1.12095364238411	-0.0322119205298013	0.573139072847682	32.0739072847682	-97.1321854304636	-4.50596026490066				-0.282172185430464	-0.177271523178808	-1.03194701986755	-5.03258278145695	70.7064900662252	2.31973509933775				0.448529801324503	0.415470198675497	-1.09372185430464	73.3229139072848	16.1435761589404	15.3443708609272				1.12402649006623	0.179496688741722	0.789933774834437	19.2717880794702	-24.5880794701987	-3.97748344370861				0.399788079470199	-0.894834437086093	-0.868238410596026	-55.4196026490066	37.3976158940397	35.365298013245			
38	780	-0.184158940397351	0.258754966887417	-1.03152317880795	22.1533774834437	72.6553642384106	28.4950993377483				1.07295364238411	-0.0962119205298013	0.349139072847682	4.07390728476821	-42.5321854304636	-4.78596026490066				-0.202172185430464	-0.241271523178808	-0.98394701986755	-6.15258278145695	79.6664900662252	3.43973509933775				0.400529801324503	0.303470198675497	-1.23772185430464	65.7629139072848	23.4235761589404	24.0243708609272				1.07602649006623	0.227496688741722	0.789933774834437	5.2717880794702	-28.2280794701987	-2.85748344370861				0.447788079470199	-0.766834437086093	-0.932238410596026	-65.7796026490066	50.5576158940397	36.205298013245			
39	800	-0.088158940397351	0.258754966887417	-0.999523178807947	29.1533774834437	83.5753642384106	29.3350993377483				1.29695364238411	-0.0642119205298013	0.589139072847682	-15.2460927152318	-15.9321854304636	-5.62596026490066				-0.106172185430464	-0.161271523178808	-1.07994701986755	-17.632582781457	90.0264900662252	1.47973509933775				0.416529801324503	0.319470198675497	-1.15772185430464	43.9229139072848	25.3835761589404	26.5443708609272				1.12402649006623	0.0994966887417219	0.661933774834437	9.1917880794702	-31.8680794701987	-0.337483443708608				0.383788079470199	-0.590834437086093	-0.932238410596026	-52.0596026490066	56.9976158940397	37.605298013245			
40	820	-0.008158940397351	0.162754966887417	-1.09552317880795	39.7933774834437	84.1353642384106	27.0950993377483				1.44095364238411	-0.0962119205298013	0.733139072847682	-16.3660927152318	-42.5321854304636	-4.22596026490066				-0.0421721854304636	-0.0972715231788079	-1.09594701986755	-19.032582781457	96.7464900662252	-1.04026490066225				0.368529801324503	0.319470198675497	-1.15772185430464	47.8429139072848	26.2235761589404	35.5043708609272				1.17202649006623	0.131496688741722	0.741933774834437	1.3517880794702	-37.4680794701987	0.222516556291392				0.367788079470199	-0.558834437086093	-0.964238410596026	-30.4996026490066	43.5576158940397	14.645298013245			
41	840	0.119841059602649	0.258754966887417	-1.12752317880795	32.5133774834437	93.9353642384106	23.7350993377483				1.13695364238411	-0.0642119205298013	0.589139072847682	-12.7260927152318	-69.6921854304636	-4.50596026490066				0.0698278145695364	-0.289271523178808	-1.06394701986755	-16.792582781457	100.106490066225	-1.88026490066225				0.288529801324503	0.207470198675497	-1.31772185430464	56.8029139072848	43.3035761589404	43.3443708609272				1.20402649006623	0.115496688741722	0.597933774834437	-2.8482119205298	-38.3080794701987	3.02251655629139				0.415788079470199	-0.750834437086093	-0.948238410596026	-18.1796026490066	52.2376158940397	6.80529801324503			
42	860	0.215841059602649	0.274754966887417	-1.12752317880795	23.5533774834437	113.815364238411	24.0150993377483				1.21695364238411	-0.160211920529801	0.413139072847682	-32.3260927152318	-57.3721854304636	2.49403973509934				0.165827814569536	-0.289271523178808	-0.98394701986755	-25.472582781457	111.586490066225	-3.84026490066225				0.304529801324503	0.0954701986754967	-1.22172185430464	37.4829139072848	61.2235761589404	35.7843708609272				1.17202649006623	0.0194966887417219	0.533933774834437	2.7517880794702	-37.4680794701987	0.782516556291392				0.367788079470199	-0.814834437086093	-0.852238410596026	-8.93960264900662	62.8776158940397	6.52529801324503			
43	880	0.567841059602649	0.338754966887417	-1.04752317880795	14.0333774834437	143.495364238411	22.6150993377483				1.36095364238411	-0.0322119205298013	0.413139072847682	-18.6060927152318	-42.2521854304636	-2.26596026490066				0.117827814569536	-0.177271523178808	-1.03194701986755	-19.592582781457	127.266490066225	0.35973509933775				0.224529801324503	0.0954701986754967	-0.981721854304636	33.2829139072848	61.5035761589404	35.5043708609272				1.15602649006623	-0.0445033112582781	0.533933774834437	-0.328211920529802	-38.3080794701987	-0.0574834437086077				0.319788079470199	-0.734834437086093	-0.916238410596027	-36.6596026490066	76.0376158940397	9.88529801324503			
44	900	0.695841059602649	0.738754966887417	-0.935523178807947	9.27337748344371	145.175364238411	-1.74490066225166				1.15295364238411	0.127788079470199	0.429139072847682	23.3939072847682	-53.1721854304636	-7.30596026490066				0.133827814569536	-0.113271523178808	-1.01594701986755	7.84741721854305	141.266490066225	-0.48026490066225				0.144529801324503	0.0794701986754967	-1.01372185430464	40.8429139072848	64.0235761589404	47.2643708609272				1.07602649006623	0.0354966887417219	0.501933774834437	-12.6482119205298	-36.3480794701987	1.90251655629139				0.367788079470199	-0.558834437086093	-0.964238410596026	-48.4196026490066	88.6376158940397	8.20529801324503			
45	920	0.295841059602649	0.546754966887417	-0.919523178807947	24.1133774834437	139.855364238411	-13.7849006622517				1.12095364238411	-0.128211920529801	0.349139072847682	35.9939072847682	-65.2121854304636	5.85403973509934				0.261827814569536	-0.0972715231788079	-0.98394701986755	21.287417218543	145.186490066225	-1.60026490066225				0.352529801324503	0.175470198675497	-1.12572185430464	79.4829139072848	89.5035761589404	45.8643708609272				1.01202649006623	0.147496688741722	0.437933774834437	-14.8882119205298	-25.7080794701987	2.74251655629139				0.415788079470199	-0.398834437086093	-0.996238410596026	-34.6996026490066	94.7976158940398	7.64529801324503			
46	940	0.087841059602649	0.0667549668874172	-0.999523178807947	52.1133774834437	153.575364238411	-17.4249006622517				1.29695364238411	-0.320211920529801	0.253139072847682	0.713907284768212	-62.9721854304636	5.29403973509934				0.325827814569536	-0.129271523178808	-0.87194701986755	7.56741721854305	136.786490066225	-1.88026490066225				0.480529801324503	0.0314701986754967	-1.01372185430464	72.4829139072848	90.0635761589404	39.7043708609272				1.07602649006623	0.131496688741722	0.277933774834437	-11.5282119205298	-15.3480794701987	6.10251655629139				0.351788079470199	-0.350834437086093	-0.868238410596026	10.9403973509934	91.1576158940398	7.64529801324503			
47	960	0.279841059602649	-0.253245033112583	-0.951523178807947	36.9933774834437	158.055364238411	-21.3449006622517				1.07295364238411	-0.0802119205298013	0.109139072847682	-13.0060927152318	-74.1721854304636	-4.22596026490066				0	0	0	0	0	0				0.288529801324503	-0.128529801324503	-0.901721854304636	32.1629139072848	88.9435761589404	34.9443708609272				1.07602649006623	-0.0605033112582781	0.229933774834437	-2.8482119205298	-21.2280794701987	10.0225165562914				0	0	0	0	0	0			
48	980	0.679841059602649	-0.125245033112583	-0.855523178807947	-3.60662251655629	147.695364238411	-23.3049006622517				0.896953642384106	-0.0322119205298013	0.0451390728476822	0.993907284768212	-81.7321854304636	-0.0259602649006601				0.389827814569536	-0.305271523178808	-0.74394701986755	10.087417218543	145.466490066225	-5.24026490066225				0	0	0	0	0	0				0	0	0	0	0	0				0	0	0	0	0	0			
49	1000	0.519841059602649	0.0827549668874172	-0.791523178807947	-3.60662251655629	134.815364238411	-18.5449006622517				0.832953642384106	-0.160211920529801	0.0451390728476822	-4.88609271523179	-78.9321854304636	-1.14596026490066				0.373827814569536	-0.241271523178808	-0.67994701986755	-8.11258278145695	146.586490066225	-1.60026490066225				0	0	0	0	0	0				0	0	0	0	0	0				0.383788079470199	-0.334834437086093	-0.692238410596026	11.7803973509934	124.19761589404	-13.354701986755			
50	1020	0.391841059602649	0.114754966887417	-0.711523178807947	26.6333774834437	122.775364238411	-8.18490066225166				0.848953642384106	-0.0482119205298013	-0.162860927152318	-22.2460927152318	-72.4921854304636	-9.26596026490066				0.389827814569536	-0.113271523178808	-0.72794701986755	-21.832582781457	144.346490066225	2.03973509933775				0.272529801324503	-0.160529801324503	-0.741721854304636	66.6029139072848	98.1835761589404	9.18437086092715				0.900026490066225	-0.0605033112582781	0.0539337748344371	-28.8882119205298	-41.1080794701987	6.38251655629139				0.367788079470199	-0.334834437086093	-0.596238410596026	5.34039735099338	127.27761589404	-15.874701986755			
51	1040	0.343841059602649	-0.0612450331125828	-0.743523178807947	45.3933774834437	120.535364238411	-0.904900662251656				0.832953642384106	0.0957880794701987	-0.194860927152318	-26.4460927152318	-45.0521854304636	-8.98596026490066				0.453827814569536	-0.0812715231788079	-0.74394701986755	-13.992582781457	140.706490066225	6.79973509933775				0.272529801324503	-0.240529801324503	-0.709721854304636	53.1629139072848	88.9435761589404	13.1043708609272				0.836026490066225	-0.0605033112582781	0.0539337748344371	-27.7682119205298	-50.0680794701987	5.82251655629139				0.303788079470199	-0.318834437086093	-0.532238410596027	-1.37960264900662	128.11761589404	-18.954701986755			
52	1060	0.455841059602649	-0.125245033112583	-0.727523178807947	29.9933774834437	124.175364238411	-0.624900662251656				0.784953642384106	0.111788079470199	0.0291390728476822	-3.48609271523179	-45.6121854304636	-5.06596026490066				0.405827814569536	-0.113271523178808	-0.66394701986755	-2.79258278145695	143.226490066225	15.1997350993378				0.240529801324503	-0.0805298013245033	-0.773721854304636	40.8429139072848	84.4635761589404	8.06437086092715				0.756026490066225	0.0514966887417219	0.133933774834437	-32.5282119205298	-56.5080794701987	1.06251655629139				0.415788079470199	-0.302834437086093	-0.516238410596026	-27.9796026490066	135.95761589404	-24.274701986755			
53	1080	0.503841059602649	-0.0772450331125828	-0.679523178807947	13.7533774834437	130.895364238411	-0.344900662251656				0.752953642384106	-0.160211920529801	-0.00286092715231785	-14.6860927152318	-70.8121854304636	5.01403973509934				0.389827814569536	-0.145271523178808	-0.51994701986755	-14.272582781457	150.786490066225	16.0397350993378				0.400529801324503	-0.0165298013245033	-0.709721854304636	47.8429139072848	90.0635761589404	-2.01562913907285				0.756026490066225	0.0994966887417219	0.117933774834437	-36.4482119205298	-61.5480794701987	-1.45748344370861				0.671788079470199	-0.238834437086093	-0.660238410596027	-26.0196026490066	126.15761589404	-22.594701986755			
54	1100	0.503841059602649	-0.0452450331125828	-0.663523178807947	7.59337748344371	137.895364238411	3.01509933774834				0.656953642384106	-0.0962119205298013	-0.194860927152318	-31.2060927152318	-73.6121854304636	-1.70596026490066				0.565827814569536	-0.225271523178808	-0.55194701986755	-48.152582781457	149.386490066225	20.2397350993378				0.416529801324503	-0.0965298013245033	-0.581721854304636	50.3629139072848	78.0235761589404	-4.25562913907285				0.724026490066225	0.0194966887417219	-0.0100662251655629	-30.0082119205298	-67.7080794701987	4.70251655629139				0.623788079470199	-0.334834437086093	-0.660238410596027	-2.21960264900662	94.5176158940398	-6.63470198675497			
55	1120	0.519841059602649	-0.173245033112583	-0.615523178807947	-0.526622516556291	142.655364238411	16.4550993377483				0.624953642384106	-0.0322119205298013	-0.114860927152318	-20.5660927152318	-45.3321854304636	2.49403973509934				0.485827814569536	-0.0972715231788079	-0.48794701986755	-53.752582781457	149.386490066225	21.0797350993378				0.304529801324503	-0.0645298013245033	-0.517721854304636	27.6829139072848	49.4635761589404	-0.615629139072848				0.660026490066225	-0.0445033112582781	0.0699337748344371	-26.6482119205298	-57.3480794701987	10.8625165562914				0.479788079470199	-0.350834437086093	-0.564238410596026	-44.2196026490066	80.7976158940397	-9.43470198675497			
56	1140	0.567841059602649	-0.125245033112583	-0.551523178807947	-2.48662251655629	144.335364238411	22.8950993377483				0.704953642384106	-0.112211920529801	-0.0668609271523178	-30.3660927152318	-43.9321854304636	4.45403973509934				0.629827814569536	-0.0492715231788079	-0.45594701986755	-61.592582781457	147.426490066225	17.1597350993378				0.304529801324503	-0.0485298013245033	-0.581721854304636	35.8029139072848	39.9435761589404	4.98437086092715				0.676026490066225	-0.0125033112582781	0.197933774834437	-28.3282119205298	-74.9880794701987	13.6625165562914				0.495788079470199	-0.238834437086093	-0.580238410596026	-54.2996026490066	80.7976158940397	-6.35470198675497			
57	1160	0.663841059602649	-0.0292450331125828	-0.439523178807947	-9.20662251655629	147.135364238411	15.8950993377483				0.688953642384106	-0.0962119205298013	-0.00286092715231785	-34.5660927152318	-43.3721854304636	3.61403973509934				0.757827814569536	-0.0172715231788079	-0.42394701986755	-73.352582781457	146.586490066225	24.1597350993378				0.384529801324503	-0.224529801324503	-0.629721854304636	49.8029139072848	39.9435761589404	10.0243708609272				0.644026490066225	0.0674966887417219	-0.0100662251655629	-30.5682119205298	-83.1080794701987	15.6225165562914				0.607788079470199	-0.110834437086093	-0.532238410596027	-43.9396026490066	60.6376158940397	-4.95470198675497			
58	1180	0.711841059602649	0.00275496688741723	-0.295523178807947	-1.92662251655629	144.895364238411	14.2150993377483				0.544953642384106	-0.000211920529801304	0.0611390728476822	-27.5660927152318	-46.1721854304636	-0.0259602649006601				0.645827814569536	-0.0652715231788079	-0.48794701986755	-91.272582781457	148.266490066225	18.8397350993378				0.432529801324503	-0.336529801324503	-0.645721854304636	47.2829139072848	32.1035761589404	7.22437086092715				0.580026490066225	-0.0765033112582781	-0.0100662251655629	-18.5282119205298	-67.1480794701987	19.8225165562914				0.463788079470199	-0.142834437086093	-0.532238410596027	-40.2996026490066	35.7176158940397	-7.19470198675497			
59	1200	0.727841059602649	0.0187549668874172	-0.439523178807947	-15.0866225165563	138.455364238411	22.3350993377483				0.576953642384106	-0.0322119205298013	0.0611390728476822	-14.4060927152318	-54.8521854304636	0.53403973509934				0.581827814569536	0.0147284768211921	-0.42394701986755	-99.112582781457	141.546490066225	17.1597350993378				0.384529801324503	-0.272529801324503	-0.565721854304636	13.6829139072848	18.9435761589404	2.74437086092715				0.532026490066225	-0.0445033112582781	0.0539337748344371	-24.1282119205298	-43.6280794701987	13.3825165562914				0.319788079470199	-0.190834437086093	-0.532238410596027	-44.7796026490066	23.9576158940397	-5.51470198675497			
60	1220	0.711841059602649	0.178754966887417	-0.295523178807947	-13.9666225165563	139.855364238411	23.7350993377483				0.480953642384106	0.0157880794701987	-0.114860927152318	-21.9660927152318	-55.4121854304636	5.01403973509934				0.645827814569536	0.0467284768211921	-0.31194701986755	-113.952582781457	142.666490066225	13.7997350993378				0.400529801324503	-0.176529801324503	-0.533721854304636	-0.877086092715232	10.8235761589404	6.66437086092715				0.564026490066225	0.0514966887417219	-0.0260662251655629	-36.4482119205298	-57.9080794701987	8.90251655629139				0.431788079470199	-0.0308344370860927	-0.516238410596026	-34.1396026490066	18.3576158940397	-13.074701986755			
61	1240	0.695841059602649	0.210754966887417	-0.215523178807947	-15.0866225165563	127.535364238411	17.5750993377483				0.480953642384106	-0.0962119205298013	-0.0828609271523179	-39.6060927152318	-5.85218543046358	20.4140397350993				0.773827814569536	0.0787284768211921	-0.37594701986755	-84.832582781457	132.866490066225	7.63973509933775				0.448529801324503	-0.160529801324503	-0.549721854304636	9.76291390728477	6.0635761589404	11.9843708609272				0.564026490066225	0.0514966887417219	-0.170066225165563	-28.0482119205298	-62.1080794701987	10.0225165562914				0.495788079470199	0.00116556291390731	-0.484238410596026	-28.2596026490066	-3.48238410596027	-19.514701986755			
62	1260	0.839841059602649	0.242754966887417	-0.279523178807947	-20.4066225165563	116.615364238411	11.6950993377483				0.608953642384106	-0.0322119205298013	0.141139072847682	-36.2460927152318	-3.61218543046358	15.6540397350993				0.789827814569536	0.110728476821192	-0.19994701986755	-60.752582781457	129.226490066225	-6.64026490066225				0.384529801324503	-0.224529801324503	-0.549721854304636	12.5629139072848	7.4635761589404	15.9043708609272				0.516026490066225	-0.0125033112582781	0.00593377483443711	-26.0882119205298	-55.6680794701987	11.9825165562914				0.367788079470199	-0.0948344370860927	-0.564238410596026	-30.2196026490066	6.03761589403974	-10.834701986755			
63	1280	0.759841059602649	0.290754966887417	-0.279523178807947	-10.3266225165563	97.0153642384106	6.09509933774834				0.512953642384106	0.0157880794701987	-0.0668609271523178	-24.7660927152318	-36.6521854304636	11.4540397350993				0.645827814569536	0.110728476821192	-0.23194701986755	-26.872582781457	112.706490066225	-16.7202649006623				0.352529801324503	-0.272529801324503	-0.517721854304636	6.40291390728477	-1.4964238410596	19.8243708609272				0.548026490066225	-0.108503311258278	-0.0580662251655629	-10.4082119205298	-34.9480794701987	10.8625165562914				0.319788079470199	-0.0788344370860927	-0.580238410596026	-19.5796026490066	-9.08238410596027	-9.99470198675497			
64	1300	0.759841059602649	0.322754966887417	-0.295523178807947	2.55337748344371	77.4153642384106	2.17509933774834				0.528953642384106	-0.112211920529801	-0.194860927152318	-23.0860927152318	-13.6921854304636	13.9740397350993				0.565827814569536	0.0467284768211921	-0.34394701986755	4.20741721854305	81.3464900662252	-18.4002649006623				0.416529801324503	-0.192529801324503	-0.565721854304636	-3.39708609271523	-21.9364238410596	21.7843708609272				0.644026490066225	-0.0925033112582781	-0.0100662251655629	-14.3282119205298	-34.3880794701987	9.18251655629139				0.383788079470199	-0.142834437086093	-0.548238410596027	-22.9396026490066	-13.2823841059603	-9.99470198675497			
65	1320	0.839841059602649	0.194754966887417	-0.263523178807947	1.43337748344371	71.2553642384106	0.775099337748344				0.640953642384106	-0.0162119205298013	0.0291390728476822	-29.8060927152318	21.5878145695364	6.69403973509934				0.805827814569536	-0.00127152317880793	-0.37594701986755	14.567417218543	56.9864900662252	-11.1202649006623				0.480529801324503	-0.256529801324503	-0.565721854304636	1.92291390728477	-19.9764238410596	19.5443708609272				0.692026490066225	-0.0925033112582781	-0.122066225165563	-12.3682119205298	-34.9480794701987	7.22251655629139				0.495788079470199	-0.174834437086093	-0.564238410596026	-21.5396026490066	-8.80238410596027	-11.114701986755			
66	1340	0.967841059602649	0.146754966887417	-0.263523178807947	0.313377483443709	63.4153642384106	-0.0649006622516557				0.832953642384106	0.0157880794701987	0.141139072847682	-1.80609271523179	18.5078145695364	2.49403973509934				0.933827814569536	-0.145271523178808	-0.34394701986755	28.0074172185431	46.3464900662252	-3.56026490066225				0.464529801324503	-0.320529801324503	-0.549721854304636	10.3229139072848	-16.3364238410596	13.3843708609272				0.692026490066225	-0.0445033112582781	-0.0740662251655629	-9.0082119205298	-22.3480794701987	4.70251655629139				0.447788079470199	-0.158834437086093	-0.580238410596026	-21.8196026490066	-3.76238410596027	-10.274701986755			
67	1360	0.967841059602649	0.0667549668874172	-0.311523178807947	5.63337748344371	49.1353642384106	1.61509933774834				0.864953642384106	-0.0642119205298013	-0.0668609271523178	-2.92609271523179	6.46781456953642	3.89403973509934				0.917827814569536	-0.225271523178808	-0.47194701986755	20.1674172185431	19.7464900662252	-0.20026490066225				0.464529801324503	-0.272529801324503	-0.645721854304636	-0.597086092715232	-10.4564238410596	10.0243708609272				0.740026490066225	-0.0925033112582781	-0.0260662251655629	-6.4882119205298	-10.8680794701987	1.34251655629139				0.399788079470199	-0.142834437086093	-0.564238410596026	-6.97960264900662	-5.72238410596027	-12.794701986755			
68	1380	0.919841059602649	0.00275496688741723	-0.231523178807947	-5.56662251655629	34.8553642384106	1.05509933774834				0.912953642384106	-0.0322119205298013	0.0131390728476822	-11.3260927152318	14.3078145695364	-9.82596026490066				0.933827814569536	-0.0332715231788079	-0.35994701986755	16.5274172185431	8.26649006622517	0.35973509933775				0.576529801324503	-0.240529801324503	-0.677721854304636	-1.43708609271523	-4.2964238410596	8.62437086092715				0.836026490066225	-0.0765033112582781	-0.0260662251655629	-6.2082119205298	-11.9880794701987	-0.897483443708608				0.495788079470199	-0.174834437086093	-0.628238410596026	-3.05960264900662	5.75761589403974	-16.154701986755			
69	1400	0.935841059602649	0.0187549668874172	-0.199523178807947	-9.20662251655629	28.1353642384106	0.215099337748344				0.944953642384106	-0.144211920529801	-0.0188609271523178	7.43390728476821	17.3878145695364	-10.3859602649007				0.949827814569536	0.0307284768211921	-0.16794701986755	16.807417218543	14.4264900662252	1.19973509933775				0.688529801324503	-0.240529801324503	-0.741721854304636	2.76291390728477	-5.4164238410596	2.74437086092715				0.916026490066225	0.0194966887417219	-0.0580662251655629	1.6317880794702	-1.90807947019868	-2.85748344370861				0.623788079470199	-0.190834437086093	-0.660238410596027	0.300397350993377	13.3176158940397	-18.394701986755			
70	1420	0.951841059602649	-0.0292450331125828	-0.215523178807947	-7.52662251655629	21.9753642384106	-0.344900662251656				1.02495364238411	-0.0802119205298013	0.125139072847682	6.03390728476821	13.1878145695364	-6.46596026490066				0.997827814569536	-0.0332715231788079	-0.23194701986755	24.927417218543	13.3064900662252	-3.00026490066225				0.720529801324503	-0.256529801324503	-0.741721854304636	0.522913907284768	-6.5364238410596	-5.37562913907285				0.948026490066225	-0.0445033112582781	-0.0420662251655629	8.6317880794702	3.69192052980133	-5.65748344370861				0.639788079470199	-0.206834437086093	-0.644238410596026	6.46039735099338	11.6376158940397	-12.234701986755			
71	1440	0.903841059602649	0.0187549668874172	-0.151523178807947	-3.32662251655629	19.4553642384106	-2.58490066225166				0.944953642384106	-0.0162119205298013	-0.0828609271523179	9.11390728476821	-1.65218543046358	-1.42596026490066				0.933827814569536	-0.145271523178808	-0.10394701986755	20.727417218543	18.6264900662252	1.47973509933775				0.624529801324503	-0.208529801324503	-0.725721854304636	-12.0770860927152	-10.4564238410596	-10.6956291390728				0.948026490066225	-0.0605033112582781	0.00593377483443711	4.9917880794702	7.61192052980133	-9.29748344370861				0.607788079470199	-0.270834437086093	-0.580238410596026	8.42039735099338	10.2376158940397	-12.234701986755			
72	1460	0.951841059602649	0.0187549668874172	-0.087523178807947	3.67337748344371	18.3353642384106	0.215099337748344				0.960953642384106	-0.0482119205298013	-0.0988609271523179	4.07390728476821	23.5478145695364	-1.98596026490066				0.965827814569536	-0.161271523178808	-0.19994701986755	0.00741721854304636	21.4264900662252	2.31973509933775				0.592529801324503	-0.208529801324503	-0.757721854304636	-12.6370860927152	-10.1764238410596	-12.3756291390728				0.964026490066225	0.00349668874172187	-0.0100662251655629	2.7517880794702	2.01192052980133	-9.85748344370861				0.719788079470199	-0.270834437086093	-0.612238410596026	6.46039735099338	13.0376158940397	-17.554701986755			
73	1480	1.03184105960265	-0.0772450331125828	-0.167523178807947	-4.16662251655629	23.3753642384106	4.97509933774835				1.00895364238411	-0.112211920529801	-0.0188609271523178	8.27390728476821	21.3078145695364	3.61403973509934				0.981827814569536	-0.161271523178808	-0.23194701986755	-3.07258278145695	22.8264900662252	3.43973509933775				0.608529801324503	-0.208529801324503	-0.789721854304636	-4.79708609271523	-5.9764238410596	-17.1356291390729				0.996026490066225	0.00349668874172187	-0.0740662251655629	7.7917880794702	4.25192052980133	-8.17748344370861				0.863788079470199	-0.254834437086093	-0.628238410596026	9.26039735099338	18.9176158940397	-20.914701986755			
74	1500	0.999841059602649	-0.0132450331125828	-0.103523178807947	-5.00662251655629	23.3753642384106	1.61509933774834				1.00895364238411	-0.112211920529801	-0.0668609271523178	10.7939072847682	23.2678145695364	5.85403973509934				0.949827814569536	-0.0332715231788079	-0.23194701986755	-12.872582781457	20.3064900662252	4.27973509933775				0.592529801324503	-0.160529801324503	-0.741721854304636	-2.27708609271523	-3.4564238410596	-24.6956291390729				0.996026490066225	-0.0285033112582781	0.0219337748344371	12.5517880794702	14.3319205298013	-8.45748344370861				0.767788079470199	-0.302834437086093	-0.596238410596026	12.0603973509934	16.6776158940397	-16.714701986755			
75	1520	0.935841059602649	0.114754966887417	-0.119523178807947	-3.32662251655629	19.7353642384106	-2.02490066225166				1.02495364238411	-0.0962119205298013	0.0931390728476822	6.59390728476821	21.0278145695364	5.29403973509934				0.949827814569536	0.0307284768211921	-0.24794701986755	-17.632582781457	20.0264900662252	1.19973509933775				0.576529801324503	-0.0805298013245033	-0.693721854304636	-5.07708609271523	-5.6964238410596	-24.6956291390729				0.996026490066225	-0.0285033112582781	0.00593377483443711	8.9117880794702	9.85192052980133	-6.77748344370861				0.735788079470199	-0.318834437086093	-0.628238410596026	21.3003973509934	13.0376158940397	-15.314701986755			
76	1540	0.951841059602649	0.146754966887417	-0.119523178807947	-5.28662251655629	14.1353642384106	-3.70490066225166				0.944953642384106	-0.0482119205298013	0.0131390728476822	7.43390728476821	11.2278145695364	5.85403973509934				0.917827814569536	0.0307284768211921	-0.23194701986755	1.68741721854305	19.4664900662252	0.0797350993377501				0.576529801324503	-0.112529801324503	-0.677721854304636	0.802913907284768	-3.7364238410596	-21.6156291390729				0.980026490066225	0.00349668874172187	-0.0260662251655629	7.2317880794702	4.53192052980133	-3.97748344370861				0.783788079470199	-0.286834437086093	-0.644238410596026	15.9803973509934	9.39761589403974	-10.554701986755			
77	1560	0.919841059602649	0.210754966887417	-0.071523178807947	-1.64662251655629	10.7753642384106	-3.14490066225166				0.944953642384106	-0.000211920529801304	-0.0828609271523179	12.4739072847682	14.0278145695364	5.85403973509934				0.901827814569536	0.0467284768211921	-0.23194701986755	18.767417218543	18.3464900662252	-3.28026490066225				0.528529801324503	-0.192529801324503	-0.709721854304636	10.8829139072848	3.2635761589404	-22.1756291390729				0.900026490066225	0.0194966887417219	-0.0420662251655629	12.2717880794702	5.65192052980133	-0.897483443708608				0.799788079470199	-0.238834437086093	-0.676238410596026	18.5003973509934	-1.52238410596026	-8.59470198675497			
78	1580	0.951841059602649	0.130754966887417	-0.103523178807947	9.83337748344371	15.2553642384106	-2.30490066225166				0.992953642384106	-0.0642119205298013	0.0291390728476822	20.3139072847682	23.5478145695364	5.01403973509934				0.933827814569536	0.0947284768211921	-0.21594701986755	28.0074172185431	15.5464900662252	-4.40026490066225				0.528529801324503	-0.192529801324503	-0.693721854304636	7.24291390728477	4.1035761589404	-26.3756291390728				0.852026490066225	0.0194966887417219	0.00593377483443711	16.7517880794702	17.1319205298013	-0.337483443708608				0.719788079470199	-0.222834437086093	-0.644238410596026	10.9403973509934	-7.40238410596027	-4.95470198675497			
79	1600	0.967841059602649	0.0987549668874172	-0.183523178807947	14.0333774834437	16.6553642384106	-2.02490066225166				0.992953642384106	-0.0322119205298013	0.0931390728476822	25.9139072847682	8.42781456953642	1.93403973509934				0.917827814569536	0.0307284768211921	-0.24794701986755	28.287417218543	12.1864900662252	-3.84026490066225				0.576529801324503	-0.0485298013245033	-0.693721854304636	3.60291390728477	1.8635761589404	-22.7356291390728				0.916026490066225	-0.0125033112582781	0.0859337748344371	17.3117880794702	22.1719205298013	1.34251655629139				0.655788079470199	-0.238834437086093	-0.596238410596026	21.0203973509934	-12.4423841059603	1.76529801324503			
80	1620	0.967841059602649	0.0987549668874172	-0.199523178807947	15.4333774834437	15.2553642384106	-3.42490066225166				0.928953642384106	0.0317880794701987	-0.0988609271523179	23.3939072847682	5.34781456953642	-3.10596026490066				0.901827814569536	-0.0332715231788079	-0.27994701986755	26.8874172185431	6.02649006622517	-1.04026490066225				0.656529801324503	-0.128529801324503	-0.693721854304636	4.16291390728477	7.7435761589404	-21.0556291390728				0.996026490066225	0.00349668874172187	0.00593377483443711	15.6317880794702	14.6119205298013	-0.0574834437086077				0.735788079470199	-0.270834437086093	-0.580238410596026	26.9003973509934	-17.4823841059603	1.20529801324503			
81	1640	0.935841059602649	0.0987549668874172	-0.263523178807947	17.9533774834437	8.5353642384106	-5.10490066225166				0.928953642384106	-0.0322119205298013	-0.00286092715231785	28.1539072847682	18.2278145695364	-0.0259602649006601				0.901827814569536	-0.0172715231788079	-0.23194701986755	24.927417218543	9.66649006622517	-1.32026490066225				0.672529801324503	-0.208529801324503	-0.661721854304636	15.0829139072848	15.5835761589404	-25.2556291390729				0.980026490066225	0.0354966887417219	-0.0100662251655629	17.3117880794702	16.5719205298013	-0.897483443708608				0.767788079470199	-0.318834437086093	-0.564238410596026	26.0603973509934	-16.9223841059603	-1.59470198675497			
82	1660	0.871841059602649	0.114754966887417	-0.215523178807947	13.7533774834437	0.415364238410596	-1.18490066225166				0.960953642384106	-0.0802119205298013	0.0611390728476822	32.3539072847682	14.0278145695364	0.81403973509934				0.917827814569536	-0.0332715231788079	-0.23194701986755	26.3274172185431	11.9064900662252	-3.00026490066225				0.608529801324503	-0.112529801324503	-0.645721854304636	10.0429139072848	14.1835761589404	-26.6556291390729				0.932026490066225	0.00349668874172187	0.0379337748344371	22.9117880794702	19.0919205298013	0.222516556291392				0.655788079470199	-0.270834437086093	-0.532238410596027	12.6203973509934	-14.9623841059603	0.645298013245032			
83	1680	0.903841059602649	0.00275496688741723	-0.167523178807947	15.4333774834437	7.6953642384106	-0.904900662251656				0.992953642384106	-0.0962119205298013	-0.00286092715231785	27.8739072847682	10.9478145695364	-0.585960264900661				0.965827814569536	-0.0652715231788079	-0.26394701986755	25.2074172185431	10.5064900662252	-3.28026490066225				0.576529801324503	-0.0965298013245033	-0.629721854304636	13.9629139072848	12.5035761589404	-19.3756291390728				0.868026490066225	-0.0125033112582781	0.117933774834437	25.1517880794702	13.7719205298013	1.62251655629139				0.559788079470199	-0.238834437086093	-0.500238410596026	25.7803973509934	-16.0823841059603	0.365298013245032			
84	1700	0.983841059602649	-0.0612450331125828	-0.231523178807947	17.3933774834437	9.6553642384106	1.33509933774834				0.992953642384106	-0.0322119205298013	0.0291390728476822	18.9139072847682	8.70781456953642	-2.26596026490066				0.917827814569536	-0.0812715231788079	-0.24794701986755	20.447417218543	5.46649006622517	-1.04026490066225				0.592529801324503	-0.160529801324503	-0.725721854304636	19.5629139072848	9.9835761589404	-16.2956291390729				0.916026490066225	-0.0285033112582781	0.0699337748344371	21.2317880794702	8.73192052980133	-0.897483443708608				0.607788079470199	-0.334834437086093	-0.468238410596026	30.8203973509934	-8.24238410596027	-1.03470198675497			
85	1720	0.951841059602649	-0.0292450331125828	-0.231523178807947	9.83337748344371	11.3353642384106	2.17509933774834				0.992953642384106	-0.0962119205298013	-0.00286092715231785	14.9939072847682	6.46781456953642	-0.30596026490066				0.949827814569536	-0.0812715231788079	-0.24794701986755	19.327417218543	1.82649006622517	-1.32026490066225				0.640529801324503	-0.208529801324503	-0.773721854304636	19.8429139072848	13.3435761589404	-15.7356291390728				0.996026490066225	-0.0445033112582781	0.0699337748344371	19.8317880794702	9.01192052980133	-3.13748344370861				0.735788079470199	-0.430834437086093	-0.516238410596026	21.0203973509934	-4.04238410596027	-0.474701986754968			
86	1740	0.951841059602649	0.00275496688741723	-0.215523178807947	5.91337748344371	10.4953642384106	0.495099337748344				0.992953642384106	-0.160211920529801	-0.0188609271523178	14.4339072847682	3.94781456953642	-0.585960264900661				0.965827814569536	-0.0972715231788079	-0.23194701986755	21.287417218543	0.706490066225167	-2.72026490066225				0.656529801324503	-0.208529801324503	-0.757721854304636	12.5629139072848	12.7835761589404	-14.6156291390728				1.01202649006623	-0.0445033112582781	0.0539337748344371	17.0317880794702	7.61192052980133	-2.57748344370861				0.751788079470199	-0.414834437086093	-0.516238410596026	8.98039735099338	-4.04238410596027	0.925298013245032			
87	1760	0.903841059602649	0.0667549668874172	-0.215523178807947	0.313377483443709	8.5353642384106	0.775099337748344				0.976953642384106	-0.128211920529801	-0.00286092715231785	11.9139072847682	2.54781456953642	-1.70596026490066				0.965827814569536	-0.113271523178808	-0.21594701986755	14.287417218543	2.66649006622517	-2.44026490066225				0.624529801324503	-0.224529801324503	-0.741721854304636	7.24291390728477	5.7835761589404	-8.17562913907285				0.996026490066225	-0.0765033112582781	0.0539337748344371	15.9117880794702	6.77192052980133	-0.617483443708608				0.751788079470199	-0.350834437086093	-0.468238410596026	6.74039735099338	1.83761589403974	-0.754701986754968			
88	1780	0.919841059602649	0.0347549668874172	-0.199523178807947	5.91337748344371	5.7353642384106	-0.0649006622516557				0.960953642384106	-0.0802119205298013	0.0291390728476822	6.31390728476821	3.10781456953642	-2.82596026490066				0.933827814569536	-0.145271523178808	-0.21594701986755	4.76741721854305	0.426490066225167	-2.16026490066225				0.560529801324503	-0.240529801324503	-0.741721854304636	-0.597086092715232	-1.4964238410596	-4.81562913907285				0.932026490066225	-0.0605033112582781	0.0539337748344371	10.5917880794702	2.01192052980133	-0.0574834437086077				0.687788079470199	-0.366834437086093	-0.532238410596027	8.42039735099338	5.19761589403974	-3.83470198675497			
89	1800	0.967841059602649	0.00275496688741723	-0.183523178807947	3.11337748344371	7.6953642384106	0.495099337748344				0.960953642384106	-0.0802119205298013	0.0131390728476822	5.47390728476821	3.10781456953642	-1.14596026490066				0.901827814569536	-0.145271523178808	-0.16794701986755	6.16741721854305	0.146490066225167	0.91973509933775				0.544529801324503	-0.160529801324503	-0.741721854304636	-3.39708609271523	-3.1764238410596	-3.97562913907285				0.916026490066225	-0.0445033112582781	0.0699337748344371	3.5917880794702	2.85192052980133	-1.17748344370861				0.655788079470199	-0.414834437086093	-0.532238410596027	12.3403973509934	0.437615894039735	-2.43470198675497			
90	1820	0.967841059602649	-0.0292450331125828	-0.199523178807947	4.79337748344371	8.5353642384106	1.05509933774834				0.992953642384106	-0.144211920529801	0.0131390728476822	-1.80609271523179	5.06781456953642	0.81403973509934				0.933827814569536	-0.0972715231788079	-0.15194701986755	3.08741721854305	2.66649006622517	2.87973509933775				0.576529801324503	-0.160529801324503	-0.741721854304636	-1.43708609271523	4.3835761589404	-0.615629139072848				0.964026490066225	-0.0445033112582781	0.0539337748344371	-2.0082119205298	-0.228079470198675	-2.29748344370861				0.703788079470199	-0.398834437086093	-0.532238410596027	3.10039735099338	1.83761589403974	0.0852980132450323			
91	1840	0.935841059602649	-0.0452450331125828	-0.183523178807947	-4.16662251655629	8.2553642384106	-0.904900662251656				1.02495364238411	-0.0962119205298013	0.0451390728476822	-6.56609271523179	5.06781456953642	-1.14596026490066				1.01382781456954	-0.0972715231788079	-0.15194701986755	2.80741721854305	6.58649006622517	0.35973509933775				0.640529801324503	-0.208529801324503	-0.725721854304636	2.48291390728477	5.5035761589404	2.46437086092715				0.996026490066225	-0.0605033112582781	0.0539337748344371	-4.2482119205298	0.611920529801325	-1.17748344370861				0.751788079470199	-0.334834437086093	-0.564238410596026	-4.45960264900662	3.51761589403974	0.365298013245032			
92	1860	0.951841059602649	-0.0132450331125828	-0.151523178807947	-9.20662251655629	7.6953642384106	-1.18490066225166				0.992953642384106	-0.0482119205298013	0.0131390728476822	-6.28609271523179	0.867814569536424	-0.30596026490066				0.965827814569536	-0.0812715231788079	-0.15194701986755	-3.07258278145695	8.82649006622517	-0.20026490066225				0.672529801324503	-0.192529801324503	-0.773721854304636	-1.15708609271523	-1.2164238410596	4.42437086092715				0.996026490066225	-0.0285033112582781	0.0539337748344371	-5.3682119205298	2.57192052980133	-0.337483443708608				0.735788079470199	-0.318834437086093	-0.564238410596026	1.14039735099338	1.27761589403974	-1.87470198675497			
93	1880	0.967841059602649	0.0347549668874172	-0.167523178807947	-8.92662251655629	7.1353642384106	-1.74490066225166				0.960953642384106	-0.0642119205298013	0.0611390728476822	-6.00609271523179	0.587814569536424	0.81403973509934				0.917827814569536	-0.0652715231788079	-0.11994701986755	-6.15258278145695	7.98649006622517	0.0797350993377501				0.672529801324503	-0.176529801324503	-0.773721854304636	-4.51708609271523	-7.6564238410596	5.26437086092715				0.980026490066225	-0.0125033112582781	0.0539337748344371	-6.4882119205298	1.17192052980133	-0.337483443708608				0.735788079470199	-0.366834437086093	-0.564238410596026	2.54039735099338	-0.122384105960265	-4.39470198675497			
94	1900	0.951841059602649	0.0507549668874172	-0.071523178807947	-9.20662251655629	4.8953642384106	-0.344900662251656				0.976953642384106	-0.112211920529801	0.0611390728476822	-7.96609271523179	-2.49218543046358	1.09403973509934				0.949827814569536	-0.0652715231788079	-0.16794701986755	-4.75258278145695	4.90649006622517	0.35973509933775				0.608529801324503	-0.192529801324503	-0.741721854304636	-12.3570860927152	-10.1764238410596	5.26437086092715				0.964026490066225	0.00349668874172187	0.0219337748344371	-7.8882119205298	-1.34807947019868	-0.897483443708608				0.735788079470199	-0.366834437086093	-0.580238410596026	-7.25960264900662	3.23761589403974	-0.474701986754968			
95	1920	0.983841059602649	0.0667549668874172	-0.103523178807947	-6.96662251655629	2.6553642384106	-0.344900662251656				0.992953642384106	-0.0642119205298013	0.0451390728476822	-10.2060927152318	-7.81218543046358	1.93403973509934				0.965827814569536	-0.0492715231788079	-0.21594701986755	-4.19258278145695	4.90649006622517	-1.60026490066225				0.544529801324503	-0.192529801324503	-0.709721854304636	-15.7170860927152	-8.2164238410596	6.94437086092715				0.932026490066225	-0.0285033112582781	0.0539337748344371	-7.0482119205298	0.0519205298013249	-1.73748344370861				0.703788079470199	-0.334834437086093	-0.548238410596027	-5.29960264900662	-0.122384105960265	3.44529801324503			
96	1940	0.983841059602649	0.0987549668874172	-0.119523178807947	-9.20662251655629	2.0953642384106	-1.46490066225166				0.976953642384106	-0.0642119205298013	0.0451390728476822	-10.4860927152318	-2.77218543046358	0.81403973509934				0.981827814569536	-0.0332715231788079	-0.21594701986755	-6.43258278145695	4.34649006622517	-1.04026490066225				0.560529801324503	-0.192529801324503	-0.725721854304636	-15.1570860927152	-3.4564238410596	10.8643708609272				0.916026490066225	-0.0445033112582781	0.0379337748344371	-11.5282119205298	0.891920529801325	-0.337483443708608				0.719788079470199	-0.334834437086093	-0.564238410596026	-8.37960264900662	-0.962384105960265	4.56529801324503			
97	1960	0.951841059602649	0.0667549668874172	-0.087523178807947	-6.40662251655629	4.0553642384106	-2.58490066225166				0.960953642384106	-0.0642119205298013	0.0451390728476822	-7.68609271523179	-3.33218543046358	-2.26596026490066				0	0	0	0	0	0				0	0	0	0	0	0				0	0	0	0	0	0				0	0	0	0	0	0			
98	1980	0.951841059602649	0.0827549668874172	-0.103523178807947	-5.00662251655629	3.4953642384106	-2.30490066225166				0.976953642384106	-0.0642119205298013	-0.0188609271523178	-4.32609271523179	-5.29218543046358	-1.70596026490066				0.933827814569536	-0.0332715231788079	-0.16794701986755	-1.11258278145695	-1.53350993377483	-0.48026490066225				0	0	0	0	0	0				0	0	0	0	0	0				0	0	0	0	0	0			
99	2000	0.967841059602649	0.0507549668874172	-0.119523178807947	-3.04662251655629	1.2553642384106	-2.30490066225166				0.976953642384106	-0.0642119205298013	-0.0188609271523178	-6.00609271523179	-2.21218543046358	-1.14596026490066				0.933827814569536	-0.0332715231788079	-0.15194701986755	6.72741721854305	1.82649006622517	-0.76026490066225				0.688529801324503	-0.192529801324503	-0.725721854304636	-15.4370860927152	-7.6564238410596	11.7043708609272				0.980026490066225	0.00349668874172187	0.0379337748344371	-14.8882119205298	2.57192052980133	0.502516556291392				0.703788079470199	-0.270834437086093	-0.596238410596026	-8.93960264900662	-1.80238410596026	5.40529801324503			
100	2020	0.967841059602649	0.0347549668874172	-0.151523178807947	-6.40662251655629	0.135364238410596	-2.02490066225166				0.992953642384106	-0.0322119205298013	0.0131390728476822	-5.44609271523179	2.26781456953642	-0.86596026490066				0.965827814569536	-0.0652715231788079	-0.18394701986755	4.48741721854305	5.18649006622517	-1.04026490066225				0.656529801324503	-0.176529801324503	-0.741721854304636	-17.6770860927152	-4.2964238410596	9.18437086092715				0.948026490066225	-0.0125033112582781	0.0539337748344371	-10.6882119205298	3.13192052980133	1.34251655629139				0.687788079470199	-0.254834437086093	-0.612238410596026	-1.65960264900662	-0.402384105960265	2.04529801324503			
101	2040	0.967841059602649	0.0347549668874172	-0.151523178807947	-2.20662251655629	1.2553642384106	-0.904900662251656				0.976953642384106	-0.0322119205298013	0.0451390728476822	-3.48609271523179	2.26781456953642	-1.14596026490066				0.965827814569536	-0.0812715231788079	-0.16794701986755	-3.07258278145695	3.22649006622517	0.91973509933775				0.592529801324503	-0.112529801324503	-0.741721854304636	-12.9170860927152	-4.8564238410596	6.38437086092715				0.964026490066225	-0.0285033112582781	0.0219337748344371	-6.7682119205298	3.97192052980133	0.222516556291392				0.607788079470199	-0.302834437086093	-0.628238410596026	-1.93960264900662	-1.80238410596026	2.04529801324503			
102	2060	0.951841059602649	0.0507549668874172	-0.167523178807947	-6.40662251655629	1.2553642384106	-1.46490066225166				0.976953642384106	-0.0642119205298013	-0.00286092715231785	-4.32609271523179	-1.09218543046358	-0.0259602649006601				0.949827814569536	-0.0492715231788079	-0.15194701986755	-1.95258278145695	5.46649006622517	1.47973509933775				0.608529801324503	-0.144529801324503	-0.709721854304636	-11.2370860927152	-7.0964238410596	3.86437086092715				0.948026490066225	-0.0125033112582781	0.0379337748344371	-5.0882119205298	4.25192052980133	-1.45748344370861				0.639788079470199	-0.302834437086093	-0.596238410596026	-1.65960264900662	-0.962384105960265	5.40529801324503			
103	2080	0.951841059602649	0.0507549668874172	-0.087523178807947	-7.52662251655629	1.2553642384106	-0.904900662251656				0.960953642384106	-0.0482119205298013	0.0291390728476822	-6.28609271523179	2.54781456953642	0.25403973509934				0.933827814569536	-0.0652715231788079	-0.16794701986755	-6.15258278145695	6.02649006622517	1.75973509933775				0.656529801324503	-0.160529801324503	-0.725721854304636	-10.1170860927152	-9.6164238410596	4.14437086092715				0.948026490066225	-0.0125033112582781	0.0379337748344371	-5.3682119205298	3.69192052980133	-2.85748344370861				0.655788079470199	-0.302834437086093	-0.596238410596026	-5.57960264900662	1.55761589403974	6.52529801324503			
104	2100	0.967841059602649	0.0347549668874172	-0.119523178807947	-7.80662251655629	-0.984635761589404	-0.624900662251656				0.960953642384106	-0.0482119205298013	0.0291390728476822	-5.44609271523179	2.26781456953642	1.09403973509934				0.965827814569536	-0.0652715231788079	-0.19994701986755	-9.23258278145695	3.22649006622517	2.31973509933775				0.608529801324503	-0.160529801324503	-0.725721854304636	-10.9570860927152	-5.9764238410596	2.74437086092715				0.964026490066225	-0.0285033112582781	0.0379337748344371	-4.8082119205298	2.85192052980133	-3.13748344370861				0.687788079470199	-0.318834437086093	-0.580238410596026	-1.09960264900662	5.75761589403974	7.36529801324503			
105	2120	0.967841059602649	0.0667549668874172	-0.119523178807947	-7.80662251655629	-1.8246357615894	-1.18490066225166				0.992953642384106	-0.0482119205298013	0.0291390728476822	-5.72609271523179	3.38781456953642	0.25403973509934				0.965827814569536	-0.0332715231788079	-0.21594701986755	-10.072582781457	0.706490066225167	1.19973509933775				0.576529801324503	-0.144529801324503	-0.741721854304636	-13.1970860927152	-4.2964238410596	0.224370860927152				0.964026490066225	-0.0285033112582781	0.0699337748344371	-2.2882119205298	4.81192052980133	-2.57748344370861				0.687788079470199	-0.350834437086093	-0.580238410596026	2.54039735099338	4.35761589403974	6.80529801324503			
106	2140	0.967841059602649	0.0827549668874172	-0.087523178807947	-9.76662251655629	0.135364238410596	-1.46490066225166				1.00895364238411	-0.0962119205298013	-0.00286092715231785	-2.92609271523179	-2.21218543046358	-1.70596026490066				0.965827814569536	0.0147284768211921	-0.23194701986755	-8.95258278145695	-2.09350993377483	-0.48026490066225				0.592529801324503	-0.128529801324503	-0.741721854304636	-11.7970860927152	-6.5364238410596	1.06437086092715				0.948026490066225	-0.0285033112582781	0.0699337748344371	-4.8082119205298	2.85192052980133	-2.01748344370861				0.703788079470199	-0.334834437086093	-0.580238410596026	0.860397350993377	3.51761589403974	4.56529801324503			
107	2160	0.951841059602649	0.0507549668874172	-0.087523178807947	-7.52662251655629	-0.984635761589404	-0.344900662251656				0.992953642384106	-0.0642119205298013	0.0291390728476822	-5.72609271523179	-3.89218543046358	-2.82596026490066				0.949827814569536	0.0147284768211921	-0.18394701986755	-1.67258278145695	-2.65350993377483	-1.04026490066225				0.608529801324503	-0.128529801324503	-0.741721854304636	-7.03708609271523	-7.6564238410596	1.90437086092715				0.964026490066225	-0.0285033112582781	0.0699337748344371	-5.3682119205298	2.57192052980133	-2.85748344370861				0.719788079470199	-0.334834437086093	-0.564238410596026	-0.539602649006623	1.55761589403974	6.24529801324503			
108	2180	0.967841059602649	0.0507549668874172	-0.151523178807947	-4.16662251655629	-0.704635761589404	-1.74490066225166				0.976953642384106	-0.0162119205298013	0.0451390728476822	-5.16609271523179	-4.17218543046358	-3.94596026490066				0.933827814569536	-0.0332715231788079	-0.16794701986755	3.36741721854305	-3.21350993377483	-1.04026490066225				0.624529801324503	-0.144529801324503	-0.741721854304636	-9.55708609271523	-3.7364238410596	-0.615629139072848				0.964026490066225	-0.0125033112582781	0.0699337748344371	-5.0882119205298	3.41192052980132	-1.45748344370861				0.719788079470199	-0.350834437086093	-0.580238410596026	-1.09960264900662	3.23761589403974	5.40529801324503			
109	2200	0.967841059602649	0.0667549668874172	-0.135523178807947	-5.00662251655629	-2.1046357615894	-2.58490066225166				0.992953642384106	-0.0482119205298013	-0.00286092715231785	-2.64609271523179	-5.57218543046358	-2.54596026490066				0.949827814569536	-0.00127152317880793	-0.19994701986755	4.20741721854305	-1.25350993377483	-2.44026490066225				0.624529801324503	-0.0965298013245033	-0.725721854304636	-10.3970860927152	-2.0564238410596	-2.01562913907285				0.964026490066225	0.0194966887417219	0.0859337748344371	-5.3682119205298	3.97192052980133	-2.01748344370861				0.703788079470199	-0.334834437086093	-0.580238410596026	-1.93960264900662	2.39761589403974	5.12529801324503			
110	2220	0.935841059602649	0.0827549668874172	-0.103523178807947	-3.04662251655629	-4.6246357615894	-0.904900662251656				0.976953642384106	-0.0322119205298013	0.0131390728476822	3.51390728476821	-3.61218543046358	-2.26596026490066				0.965827814569536	-0.0332715231788079	-0.18394701986755	2.24741721854305	1.82649006622517	-3.28026490066225				0.592529801324503	-0.0965298013245033	-0.709721854304636	-8.15708609271523	-3.7364238410596	-0.0556291390728476				0.964026490066225	0.00349668874172187	0.0539337748344371	-4.2482119205298	3.97192052980133	-2.57748344370861				0.671788079470199	-0.302834437086093	-0.548238410596027	-0.539602649006623	2.11761589403974	3.44529801324503			
111	2240	0.951841059602649	0.0667549668874172	-0.119523178807947	-0.246622516556291	-3.7846357615894	0.215099337748344				0.960953642384106	-0.0322119205298013	0.0291390728476822	2.39390728476821	-2.77218543046358	-2.82596026490066				0.949827814569536	-0.0652715231788079	-0.19994701986755	1.40741721854305	-1.25350993377483	-2.72026490066225				0.608529801324503	-0.128529801324503	-0.725721854304636	-9.83708609271523	-6.5364238410596	0.784370860927152				0.948026490066225	0.00349668874172187	0.0859337748344371	-4.5282119205298	3.41192052980132	-2.29748344370861				0.671788079470199	-0.286834437086093	-0.580238410596026	-1.09960264900662	2.95761589403974	3.44529801324503			
112	2260	0.967841059602649	0.0667549668874172	-0.151523178807947	1.99337748344371	-2.9446357615894	-1.18490066225166				0.976953642384106	-0.0162119205298013	0.0291390728476822	1.55390728476821	-3.05218543046358	-2.54596026490066				0.949827814569536	-0.0172715231788079	-0.19994701986755	1.12741721854305	-2.09350993377483	-1.88026490066225				0.608529801324503	-0.112529801324503	-0.757721854304636	-7.59708609271523	-4.2964238410596	-0.0556291390728476				0.948026490066225	0.00349668874172187	0.0859337748344371	-2.5682119205298	2.01192052980133	-2.85748344370861				0.687788079470199	-0.318834437086093	-0.580238410596026	0.580397350993377	2.39761589403974	0.0852980132450323			
113	2280	0.951841059602649	0.0667549668874172	-0.135523178807947	1.43337748344371	-3.5046357615894	-0.344900662251656				0.992953642384106	-0.0322119205298013	0.0291390728476822	4.07390728476821	-6.41218543046358	-1.98596026490066				0.949827814569536	-0.00127152317880793	-0.23194701986755	-1.39258278145695	-1.53350993377483	-3.28026490066225				0.624529801324503	-0.0805298013245033	-0.725721854304636	-5.35708609271523	-0.0964238410596001	-1.45562913907285				0.964026490066225	0.00349668874172187	0.0699337748344371	1.9117880794702	2.57192052980133	-2.85748344370861				0.687788079470199	-0.334834437086093	-0.596238410596026	-1.93960264900662	0.997615894039735	-1.59470198675497			
114	2300	0.951841059602649	0.0827549668874172	-0.135523178807947	4.23337748344371	-5.1846357615894	-0.344900662251656				0.976953642384106	-0.0322119205298013	-0.00286092715231785	8.55390728476821	-10.3321854304636	-2.54596026490066				0.965827814569536	-0.0172715231788079	-0.24794701986755	-0.272582781456954	-2.93350993377483	-3.56026490066225				0.624529801324503	-0.0965298013245033	-0.709721854304636	-2.83708609271523	-3.4564238410596	0.504370860927152				0.948026490066225	0.00349668874172187	0.0699337748344371	1.0717880794702	2.85192052980133	-2.85748344370861				0.703788079470199	-0.318834437086093	-0.580238410596026	-1.93960264900662	1.55761589403974	-0.194701986754968			
115	2320	0.967841059602649	0.0667549668874172	-0.167523178807947	3.11337748344371	-7.1446357615894	0.215099337748344				0.992953642384106	-0.0482119205298013	-0.00286092715231785	11.9139072847682	-10.3321854304636	-2.82596026490066				0.949827814569536	-0.0172715231788079	-0.24794701986755	4.76741721854305	-6.57350993377483	-4.68026490066225				0.624529801324503	-0.144529801324503	-0.725721854304636	-2.83708609271523	-7.9364238410596	3.30437086092715				0.964026490066225	0.00349668874172187	0.0699337748344371	2.1917880794702	1.45192052980132	-3.41748344370861				0.703788079470199	-0.318834437086093	-0.564238410596026	-1.09960264900662	2.39761589403974	-1.31470198675497			
116	2340	0.951841059602649	0.0667549668874172	-0.151523178807947	5.35337748344371	-4.9046357615894	-0.624900662251656				1.00895364238411	-0.0642119205298013	-0.0348609271523178	7.99390728476821	-7.81218543046358	-2.26596026490066				0.949827814569536	-0.0172715231788079	-0.24794701986755	12.887417218543	-5.73350993377484	-4.96026490066225				0.624529801324503	-0.144529801324503	-0.757721854304636	-5.91708609271523	-8.4964238410596	4.42437086092715				0.980026490066225	-0.0125033112582781	0.0859337748344371	2.1917880794702	-0.788079470198675	-3.13748344370861				0.687788079470199	-0.350834437086093	-0.596238410596026	0.300397350993377	-2.36238410596027	-3.27470198675497			
117	2360	0.967841059602649	0.0507549668874172	-0.183523178807947	10.3933774834437	-4.3446357615894	-0.904900662251656				1.00895364238411	-0.0642119205298013	-0.0668609271523178	4.63390728476821	-8.65218543046358	-2.54596026490066				0.949827814569536	-0.0812715231788079	-0.19994701986755	16.5274172185431	-6.57350993377483	-1.88026490066225				0.608529801324503	-0.0965298013245033	-0.757721854304636	-8.71708609271523	-8.2164238410596	2.46437086092715				0.980026490066225	-0.0445033112582781	0.0859337748344371	2.4717880794702	-2.74807947019868	-2.01748344370861				0.703788079470199	-0.350834437086093	-0.596238410596026	-3.33960264900662	-4.60238410596027	-6.63470198675497			
118	2380	0.951841059602649	0.0347549668874172	-0.215523178807947	8.71337748344371	-3.5046357615894	-2.30490066225166				0.976953642384106	-0.0642119205298013	-0.0668609271523178	5.47390728476821	-6.97218543046358	-1.98596026490066				0.949827814569536	-0.0972715231788079	-0.18394701986755	9.24741721854305	-0.413509933774833	1.19973509933775				0.592529801324503	-0.128529801324503	-0.757721854304636	-3.11708609271523	-9.3364238410596	3.58437086092715				0.980026490066225	-0.0125033112582781	0.0699337748344371	3.0317880794702	-5.26807947019868	-1.73748344370861				0.687788079470199	-0.334834437086093	-0.596238410596026	-7.81960264900662	-7.68238410596027	-8.87470198675497			
119	2400	0.935841059602649	0.0187549668874172	-0.199523178807947	7.87337748344371	-4.3446357615894	-2.58490066225166				0.976953642384106	-0.0642119205298013	-0.0508609271523178	5.19390728476821	-5.85218543046358	-1.98596026490066				0.949827814569536	-0.145271523178808	-0.15194701986755	10.647417218543	2.10649006622517	0.63973509933775				0.592529801324503	-0.176529801324503	-0.773721854304636	-8.15708609271523	-12.6964238410596	3.02437086092715				0.980026490066225	-0.0125033112582781	0.0379337748344371	2.1917880794702	-2.18807947019868	-3.41748344370861				0.655788079470199	-0.350834437086093	-0.612238410596026	-5.57960264900662	-5.72238410596027	-6.63470198675497			
120	2420	0.935841059602649	0.0187549668874172	-0.183523178807947	6.47337748344371	-4.9046357615894	-1.74490066225166				0.960953642384106	-0.0642119205298013	-0.0508609271523178	3.51390728476821	0.0278145695364242	-0.585960264900661				0.949827814569536	-0.177271523178808	-0.15194701986755	-1.95258278145695	-3.77350993377483	3.71973509933775				0.576529801324503	-0.144529801324503	-0.757721854304636	-9.83708609271523	-11.8564238410596	2.74437086092715				0.996026490066225	-0.0285033112582781	0.0219337748344371	0.231788079470198	-6.94807947019868	-2.57748344370861				0.671788079470199	-0.318834437086093	-0.596238410596026	-6.41960264900662	-2.36238410596027	-3.55470198675497			
121	2440	0.951841059602649	0.00275496688741723	-0.167523178807947	4.79337748344371	-2.9446357615894	-1.46490066225166				0.976953642384106	-0.0962119205298013	-0.0668609271523178	-0.406092715231788	3.66781456953642	2.21403973509934				0.933827814569536	-0.113271523178808	-0.18394701986755	-15.952582781457	-2.37350993377483	4.27973509933775				0.496529801324503	-0.128529801324503	-0.789721854304636	-4.51708609271523	-7.6564238410596	3.02437086092715				0.948026490066225	-0.0445033112582781	0.0219337748344371	3.0317880794702	-8.06807947019868	-1.45748344370861				0.655788079470199	-0.302834437086093	-0.580238410596026	-3.61960264900662	0.437615894039735	-3.55470198675497			
122	2460	0.951841059602649	-0.0132450331125828	-0.151523178807947	0.593377483443709	-3.5046357615894	-1.46490066225166				1.00895364238411	-0.112211920529801	0.0131390728476822	-5.16609271523179	5.06781456953642	0.53403973509934				0.933827814569536	-0.00127152317880793	-0.19994701986755	-22.112582781457	-2.93350993377483	2.87973509933775				0.480529801324503	-0.144529801324503	-0.773721854304636	-0.317086092715232	-2.8964238410596	0.784370860927152				0.932026490066225	-0.0285033112582781	0.0219337748344371	3.0317880794702	-6.66807947019868	-0.897483443708608				0.655788079470199	-0.302834437086093	-0.596238410596026	-3.89960264900662	1.27761589403974	-2.99470198675497			
123	2480	0.951841059602649	-0.0132450331125828	-0.119523178807947	-1.64662251655629	-1.5446357615894	-1.46490066225166				0.960953642384106	-0.0802119205298013	-0.0348609271523178	-4.88609271523179	-10.3321854304636	0.81403973509934				0.949827814569536	-0.00127152317880793	-0.19994701986755	-16.792582781457	-4.61350993377483	2.59973509933775				0.496529801324503	-0.112529801324503	-0.789721854304636	-3.11708609271523	-4.2964238410596	-0.0556291390728476				0.964026490066225	-0.0445033112582781	0.0219337748344371	-0.0482119205298018	-5.82807947019868	-1.17748344370861				0.687788079470199	-0.318834437086093	-0.580238410596026	-6.69960264900662	2.11761589403974	-3.27470198675497			
124	2500	0.951841059602649	0.0187549668874172	-0.135523178807947	-7.52662251655629	-0.704635761589404	-2.30490066225166				0.976953642384106	-0.0482119205298013	-0.00286092715231785	-7.40609271523179	-1.93218543046358	0.81403973509934				0.949827814569536	-0.0332715231788079	-0.21594701986755	-9.23258278145695	-1.53350993377483	0.0797350993377501				0.544529801324503	-0.112529801324503	-0.789721854304636	-0.597086092715232	-2.8964238410596	1.06437086092715				0.996026490066225	-0.0285033112582781	0.0219337748344371	-4.2482119205298	-7.50807947019868	-0.617483443708608				0.719788079470199	-0.302834437086093	-0.612238410596026	-9.49960264900662	3.51761589403974	-5.23470198675497			
125	2520	0.967841059602649	0.0667549668874172	-0.119523178807947	-9.76662251655629	-2.3846357615894	-2.02490066225166				1.00895364238411	-0.0642119205298013	-0.00286092715231785	-9.36609271523179	-5.29218543046358	0.53403973509934				0.965827814569536	-0.0172715231788079	-0.18394701986755	-8.39258278145695	-2.37350993377483	-1.60026490066225				0.592529801324503	-0.112529801324503	-0.821721854304636	5.84291390728477	-3.1764238410596	1.06437086092715				0.964026490066225	0.00349668874172187	0.0539337748344371	-2.2882119205298	-5.26807947019868	-0.0574834437086077				0.735788079470199	-0.302834437086093	-0.628238410596026	-2.21960264900662	4.35761589403974	-4.11470198675497			
126	2540	0.951841059602649	0.0827549668874172	-0.103523178807947	-7.80662251655629	-0.424635761589404	-2.30490066225166				0.992953642384106	-0.0322119205298013	-0.0348609271523178	-5.72609271523179	-6.13218543046358	-0.30596026490066				0.949827814569536	-0.00127152317880793	-0.21594701986755	-8.67258278145695	-5.45350993377483	-3.56026490066225				0.576529801324503	-0.144529801324503	-0.821721854304636	0.522913907284768	-8.7764238410596	1.06437086092715				0.980026490066225	0.00349668874172187	0.00593377483443711	-0.888211920529802	-8.90807947019868	1.90251655629139				0.719788079470199	-0.302834437086093	-0.628238410596026	-5.29960264900662	-0.122384105960265	-3.27470198675497			
127	2560	0.967841059602649	0.114754966887417	-0.135523178807947	-3.32662251655629	-1.2646357615894	-2.02490066225166				0.976953642384106	0.0157880794701987	-0.0508609271523178	-2.64609271523179	-4.73218543046358	-0.0259602649006601				0.949827814569536	0.0307284768211921	-0.19994701986755	-2.79258278145695	-1.53350993377483	-4.68026490066225				0.560529801324503	-0.144529801324503	-0.773721854304636	-7.59708609271523	-12.6964238410596	-0.0556291390728476				0.964026490066225	0.0194966887417219	0.0539337748344371	-5.6482119205298	-4.70807947019868	0.782516556291392				0.687788079470199	-0.270834437086093	-0.596238410596026	-5.57960264900662	-4.04238410596027	-1.87470198675497			
128	2580	0.967841059602649	0.114754966887417	-0.119523178807947	-1.64662251655629	-0.984635761589404	-2.86490066225166				0.976953642384106	-0.000211920529801304	0.0131390728476822	-0.126092715231788	-5.01218543046358	0.81403973509934				0.933827814569536	0.0307284768211921	-0.18394701986755	5.04741721854305	1.54649006622517	-4.96026490066225				0.528529801324503	-0.0965298013245033	-0.773721854304636	-7.31708609271523	-9.0564238410596	1.34437086092715				0.932026490066225	0.0514966887417219	0.0379337748344371	-5.6482119205298	-3.02807947019868	0.222516556291392				0.687788079470199	-0.254834437086093	-0.596238410596026	-6.41960264900662	-0.402384105960265	-2.43470198675497			
129	2600	0.951841059602649	0.114754966887417	-0.119523178807947	1.15337748344371	-2.9446357615894	-1.74490066225166				0.960953642384106	-0.0162119205298013	-0.0188609271523178	3.51390728476821	-5.01218543046358	0.81403973509934				0.949827814569536	-0.00127152317880793	-0.18394701986755	9.24741721854305	0.426490066225167	-3.28026490066225				0.544529801324503	-0.0805298013245033	-0.741721854304636	-0.597086092715232	-1.2164238410596	1.62437086092715				0.964026490066225	0.0194966887417219	0.0219337748344371	-1.1682119205298	-0.228079470198675	0.502516556291392				0.671788079470199	-0.270834437086093	-0.628238410596026	-1.65960264900662	-1.52238410596026	-1.03470198675497			
130	2620	0.967841059602649	0.0827549668874172	-0.135523178807947	3.11337748344371	-2.6646357615894	-2.30490066225166				0.976953642384106	-0.0322119205298013	-0.0188609271523178	6.03390728476821	-3.61218543046358	-0.30596026490066				0.949827814569536	-0.0172715231788079	-0.18394701986755	11.207417218543	0.986490066225167	-3.00026490066225				0.544529801324503	-0.0805298013245033	-0.725721854304636	1.36291390728477	3.5435761589404	0.784370860927152				0.948026490066225	0.00349668874172187	0.0379337748344371	1.3517880794702	1.17192052980133	2.18251655629139				0.671788079470199	-0.270834437086093	-0.612238410596026	-5.57960264900662	-1.24238410596026	-0.194701986754968			
131	2640	0.967841059602649	0.0987549668874172	-0.119523178807947	2.55337748344371	-0.984635761589404	-2.02490066225166				0.976953642384106	-0.0322119205298013	-0.0188609271523178	7.43390728476821	-3.05218543046358	-0.30596026490066				0.933827814569536	-0.0332715231788079	-0.18394701986755	6.44741721854305	1.26649006622517	-3.00026490066225				0.560529801324503	-0.0805298013245033	-0.773721854304636	2.76291390728477	1.5835761589404	1.06437086092715				0.948026490066225	0.00349668874172187	0.0219337748344371	3.0317880794702	0.891920529801325	1.06251655629139				0.639788079470199	-0.238834437086093	-0.612238410596026	-1.37960264900662	-0.682384105960265	-0.754701986754968			
132	2660	0.951841059602649	0.0827549668874172	-0.135523178807947	2.83337748344371	-0.704635761589404	-2.30490066225166				0.960953642384106	-0.0162119205298013	-0.0348609271523178	6.03390728476821	-1.65218543046358	-0.86596026490066				0.949827814569536	-0.0492715231788079	-0.16794701986755	3.92741721854305	2.38649006622517	-1.60026490066225				0.592529801324503	-0.128529801324503	-0.805721854304636	3.60291390728477	-0.0964238410596001	-0.895629139072848				0.964026490066225	-0.0125033112582781	0.0379337748344371	4.7117880794702	-0.228079470198675	1.06251655629139				0.687788079470199	-0.254834437086093	-0.628238410596026	1.70039735099338	0.997615894039735	-3.27470198675497			
133	2680	0.951841059602649	0.0667549668874172	-0.167523178807947	3.39337748344371	-0.144635761589404	-0.904900662251656				0.992953642384106	-0.0482119205298013	0.0291390728476822	7.43390728476821	5.34781456953642	-0.86596026490066				0.965827814569536	-0.0332715231788079	-0.21594701986755	-1.39258278145695	-2.09350993377483	-1.04026490066225				0.608529801324503	-0.176529801324503	-0.853721854304636	1.64291390728477	2.1435761589404	-3.13562913907285				0.996026490066225	-0.0285033112582781	0.0539337748344371	7.5117880794702	-2.74807947019868	-0.337483443708608				0.687788079470199	-0.254834437086093	-0.612238410596026	9.54039735099338	0.997615894039735	-3.83470198675497			
134	2700	0.951841059602649	0.0827549668874172	-0.167523178807947	0.593377483443709	-3.2246357615894	-0.624900662251656				0.992953642384106	-0.0322119205298013	0.0131390728476822	9.11390728476821	7.02781456953642	-2.26596026490066				0.965827814569536	-0.0172715231788079	-0.19994701986755	-1.95258278145695	-3.49350993377483	-1.32026490066225				0.576529801324503	-0.144529801324503	-0.837721854304636	-6.75708609271523	2.4235761589404	-6.21562913907285				0.964026490066225	-0.0285033112582781	0.00593377483443711	6.3917880794702	-1.06807947019868	-1.45748344370861				0.671788079470199	-0.318834437086093	-0.580238410596026	7.30039735099338	9.95761589403974	-2.99470198675497			
135	2720	0.935841059602649	0.0827549668874172	-0.167523178807947	0.873377483443709	-1.2646357615894	-0.344900662251656				0.976953642384106	-0.000211920529801304	-0.0188609271523178	8.27390728476821	6.18781456953642	-1.42596026490066				0.949827814569536	-0.00127152317880793	-0.21594701986755	-3.91258278145695	-3.21350993377483	-1.60026490066225				0.544529801324503	-0.128529801324503	-0.757721854304636	-8.43708609271523	-2.0564238410596	-10.1356291390728				0.932026490066225	-0.0285033112582781	0.0219337748344371	4.9917880794702	-1.90807947019868	-2.85748344370861				0.671788079470199	-0.334834437086093	-0.580238410596026	6.46039735099338	10.5176158940397	-2.71470198675497			
136	2740	0.951841059602649	0.0667549668874172	-0.199523178807947	1.71337748344371	-1.2646357615894	-0.624900662251656				0.944953642384106	-0.000211920529801304	-0.0508609271523178	7.15390728476821	6.74781456953642	-5.06596026490066				0.933827814569536	0.0147284768211921	-0.21594701986755	-6.99258278145695	-3.49350993377483	-1.32026490066225				0.528529801324503	-0.112529801324503	-0.773721854304636	-7.59708609271523	-2.8964238410596	-10.4156291390728				0.932026490066225	-0.0125033112582781	0.0539337748344371	3.3117880794702	-3.30807947019868	-5.65748344370861				0.655788079470199	-0.302834437086093	-0.548238410596027	-4.45960264900662	9.39761589403974	-0.474701986754968			
137	2760	0.935841059602649	0.0827549668874172	-0.199523178807947	1.15337748344371	-1.5446357615894	-1.74490066225166				0.992953642384106	-0.000211920529801304	-0.0188609271523178	11.0739072847682	3.94781456953642	-7.58596026490066				0.949827814569536	-0.00127152317880793	-0.19994701986755	-5.31258278145695	-5.17350993377483	-1.04026490066225				0.512529801324503	-0.112529801324503	-0.773721854304636	-5.63708609271523	1.8635761589404	-7.33562913907285				0.964026490066225	0.00349668874172187	0.0219337748344371	1.0717880794702	-5.54807947019868	-5.93748344370861				0.703788079470199	-0.270834437086093	-0.564238410596026	-1.65960264900662	7.43761589403974	-1.59470198675497			
138	2780	0.951841059602649	0.0987549668874172	-0.199523178807947	1.99337748344371	-5.4646357615894	0.215099337748344				0.960953642384106	-0.000211920529801304	-0.0668609271523178	8.55390728476821	-4.17218543046358	-6.74596026490066				0.933827814569536	-0.0172715231788079	-0.21594701986755	-1.67258278145695	-6.29350993377483	-0.20026490066225				0.592529801324503	-0.0965298013245033	-0.757721854304636	-3.11708609271523	7.1835761589404	-7.05562913907285				0.948026490066225	0.0354966887417219	0.00593377483443711	3.0317880794702	-2.18807947019868	-7.61748344370861				0.767788079470199	-0.270834437086093	-0.564238410596026	5.62039735099338	9.11761589403974	-8.31470198675497			
139	2800	0.951841059602649	0.0667549668874172	-0.199523178807947	1.71337748344371	-7.4246357615894	1.33509933774834				0.976953642384106	-0.000211920529801304	-0.114860927152318	7.43390728476821	-3.61218543046358	-6.18596026490066				0.949827814569536	-0.0332715231788079	-0.21594701986755	-1.95258278145695	-7.41350993377483	1.75973509933775				0.592529801324503	-0.0325298013245033	-0.741721854304636	-4.23708609271523	5.2235761589404	-8.45562913907285				0.996026490066225	0.0674966887417219	0.00593377483443711	4.9917880794702	2.57192052980133	-5.93748344370861				0.751788079470199	-0.302834437086093	-0.580238410596026	4.22039735099338	10.7976158940397	-9.99470198675497			
140	2820	0.951841059602649	0.0507549668874172	-0.151523178807947	3.39337748344371	-4.3446357615894	1.33509933774834				1.00895364238411	-0.0322119205298013	-0.0828609271523179	6.03390728476821	-0.532185430463576	-5.06596026490066				0.965827814569536	-0.0492715231788079	-0.21594701986755	-4.75258278145695	-7.69350993377483	3.71973509933775				0.544529801324503	-0.000529801324503289	-0.789721854304636	1.36291390728477	2.9835761589404	-7.61562913907285				0.996026490066225	0.0514966887417219	0.0539337748344371	3.8717880794702	0.331920529801325	-6.49748344370861				0.703788079470199	-0.254834437086093	-0.612238410596026	0.300397350993377	5.19761589403974	-8.59470198675497			
141	2840	0.951841059602649	0.0347549668874172	-0.183523178807947	1.71337748344371	-2.3846357615894	1.05509933774834				0.992953642384106	-0.0482119205298013	-0.0348609271523178	3.51390728476821	-1.65218543046358	-3.94596026490066				0.949827814569536	-0.0332715231788079	-0.21594701986755	-8.39258278145695	-7.97350993377484	4.27973509933775				0.544529801324503	-0.0645298013245033	-0.789721854304636	3.04291390728477	-1.2164238410596	-6.49562913907285				0.964026490066225	0.0194966887417219	0.0539337748344371	3.0317880794702	-4.42807947019868	-3.97748344370861				0.751788079470199	-0.238834437086093	-0.596238410596026	8.14039735099338	0.717615894039735	-10.274701986755			
142	2860	0.951841059602649	0.0187549668874172	-0.151523178807947	0.873377483443709	-1.5446357615894	0.495099337748344				0.992953642384106	-0.0482119205298013	-0.00286092715231785	0.153907284768212	1.42781456953642	-2.82596026490066				0.933827814569536	-0.0172715231788079	-0.18394701986755	-5.87258278145695	-2.93350993377483	3.43973509933775				0.528529801324503	-0.0805298013245033	-0.805721854304636	3.88291390728477	-0.9364238410596	-5.93562913907285				0.980026490066225	0.0194966887417219	0.00593377483443711	3.8717880794702	-4.70807947019868	-3.97748344370861				0.767788079470199	-0.302834437086093	-0.628238410596026	3.10039735099338	-2.64238410596027	-13.914701986755			
143	2880	0.951841059602649	0.0187549668874172	-0.167523178807947	-2.20662251655629	-3.7846357615894	-0.624900662251656				0.976953642384106	-0.0322119205298013	-0.00286092715231785	-1.52609271523179	-5.57218543046358	-1.42596026490066				0.949827814569536	-0.0332715231788079	-0.18394701986755	-6.15258278145695	-3.49350993377483	2.87973509933775				0.528529801324503	-0.0805298013245033	-0.789721854304636	3.32291390728477	3.2635761589404	-6.49562913907285				0.980026490066225	0.0194966887417219	-0.0100662251655629	4.9917880794702	-1.06807947019868	-3.97748344370861				0.783788079470199	-0.286834437086093	-0.644238410596026	0.580397350993377	-4.60238410596027	-11.394701986755			
144	2900	0.951841059602649	0.0347549668874172	-0.167523178807947	-3.88662251655629	-4.0646357615894	-0.0649006622516557				0.960953642384106	-0.0322119205298013	-0.0508609271523178	-0.686092715231788	-6.97218543046358	-0.86596026490066				0.949827814569536	-0.0492715231788079	-0.19994701986755	-5.87258278145695	-3.77350993377483	2.59973509933775				0.528529801324503	-0.0485298013245033	-0.741721854304636	1.64291390728477	2.9835761589404	-4.53562913907285				0.980026490066225	0.0194966887417219	0.00593377483443711	3.0317880794702	-0.508079470198675	-1.73748344370861				0.735788079470199	-0.254834437086093	-0.612238410596026	-1.09960264900662	-8.24238410596027	-7.47470198675497			
145	2920	0.951841059602649	0.0187549668874172	-0.135523178807947	-1.64662251655629	-1.8246357615894	1.05509933774834				0.992953642384106	-0.0482119205298013	-0.0508609271523178	-2.08609271523179	-2.77218543046358	-0.585960264900661				0.933827814569536	-0.0332715231788079	-0.21594701986755	-5.03258278145695	-2.09350993377483	0.0797350993377501				0.512529801324503	-0.0965298013245033	-0.789721854304636	5.84291390728477	1.8635761589404	0.784370860927152				0.948026490066225	0.0194966887417219	0.00593377483443711	3.8717880794702	-3.30807947019868	1.34251655629139				0.703788079470199	-0.270834437086093	-0.580238410596026	2.82039735099338	-6.28238410596027	-5.23470198675497			
146	2940	0.967841059602649	0.0187549668874172	-0.135523178807947	-1.08662251655629	-2.1046357615894	0.495099337748344				1.00895364238411	-0.0642119205298013	0.0131390728476822	-1.52609271523179	-3.33218543046358	1.09403973509934				0.949827814569536	-0.0172715231788079	-0.23194701986755	-6.43258278145695	-3.77350993377483	-1.88026490066225				0.496529801324503	-0.144529801324503	-0.821721854304636	5.84291390728477	6.0635761589404	1.06437086092715				0.932026490066225	-0.0285033112582781	-0.0100662251655629	4.9917880794702	-2.46807947019868	1.62251655629139				0.703788079470199	-0.286834437086093	-0.596238410596026	2.26039735099338	-3.76238410596027	-5.79470198675497			
147	2960	0	0	0	0	0	0				0.976953642384106	-0.0642119205298013	0.0451390728476822	-3.20609271523179	-8.09218543046358	0.53403973509934				0.933827814569536	-0.0332715231788079	-0.24794701986755	-5.31258278145695	-4.33350993377483	-2.44026490066225				0	0	0	0	0	0				0	0	0	0	0	0				0	0	0	0	0	0			
148	2980	0.951841059602649	0.0507549668874172	-0.183523178807947	-1.08662251655629	-4.6246357615894	-0.344900662251656				0.944953642384106	-0.000211920529801304	-0.0348609271523178	-2.92609271523179	-14.8121854304636	1.37403973509934				0.933827814569536	-0.0652715231788079	-0.24794701986755	-3.63258278145695	-6.01350993377483	-2.44026490066225				0	0	0	0	0	0				0	0	0	0	0	0				0	0	0	0	0	0			
149	3000	0.935841059602649	0.0667549668874172	-0.183523178807947	-0.806622516556291	-7.9846357615894	-0.624900662251656				0.928953642384106	-0.000211920529801304	-0.0828609271523179	2.67390728476821	-8.37218543046358	3.05403973509934				0.917827814569536	-0.0652715231788079	-0.24794701986755	-1.95258278145695	-7.13350993377484	-0.76026490066225				0.592529801324503	-0.128529801324503	-0.789721854304636	0.522913907284768	1.3035761589404	0.784370860927152				0.948026490066225	0.0194966887417219	0.0219337748344371	3.3117880794702	7.89192052980133	1.62251655629139				0.671788079470199	-0.270834437086093	-0.580238410596026	5.90039735099338	-1.52238410596026	-4.39470198675497			
150	3020	0.935841059602649	0.0667549668874172	-0.183523178807947	-1.08662251655629	-8.26463576158941	-0.344900662251656				0.976953642384106	-0.0162119205298013	-0.0828609271523179	5.47390728476821	-1.37218543046358	2.77403973509934				0.917827814569536	-0.00127152317880793	-0.26394701986755	-4.19258278145695	-4.33350993377483	-2.16026490066225				0.592529801324503	-0.0965298013245033	-0.773721854304636	-4.23708609271523	2.1435761589404	2.18437086092715				0.964026490066225	0.00349668874172187	0.0219337748344371	2.7517880794702	4.81192052980133	2.46251655629139				0.719788079470199	-0.286834437086093	-0.596238410596026	7.86039735099338	-2.92238410596027	-4.39470198675497			
151	3040	0.951841059602649	0.0667549668874172	-0.215523178807947	2.27337748344371	-6.3046357615894	0.775099337748344				1.00895364238411	-0.0322119205298013	-0.0508609271523178	4.35390728476821	-3.05218543046358	1.65403973509934				0.949827814569536	0.0147284768211921	-0.26394701986755	-0.552582781456954	-4.05350993377483	-1.88026490066225				0.560529801324503	-0.0965298013245033	-0.757721854304636	-1.71708609271523	2.1435761589404	3.30437086092715				0.980026490066225	0.00349668874172187	0.0219337748344371	3.0317880794702	3.97192052980133	2.18251655629139				0.719788079470199	-0.286834437086093	-0.644238410596026	1.42039735099338	-2.64238410596027	-2.99470198675497			
152	3060	0.935841059602649	0.0347549668874172	-0.199523178807947	4.51337748344371	-5.1846357615894	-0.0649006622516557				0.992953642384106	-0.0482119205298013	-0.0988609271523179	6.59390728476821	-6.13218543046358	1.65403973509934				0.933827814569536	0.0307284768211921	-0.27994701986755	3.64741721854305	-0.693509933774834	-1.04026490066225				0.576529801324503	-0.128529801324503	-0.757721854304636	5.56291390728477	2.7035761589404	4.42437086092715				0.980026490066225	-0.0125033112582781	0.0379337748344371	3.3117880794702	5.09192052980133	3.02251655629139				0.703788079470199	-0.270834437086093	-0.612238410596026	-0.819602649006623	-5.72238410596027	-0.194701986754968			
153	3080	0.935841059602649	0.0187549668874172	-0.215523178807947	3.95337748344371	-2.6646357615894	-1.74490066225166				0.992953642384106	-0.0482119205298013	-0.130860927152318	6.87390728476821	-5.01218543046358	0.53403973509934				0.933827814569536	-0.00127152317880793	-0.27994701986755	7.28741721854305	0.706490066225167	-2.72026490066225				0.592529801324503	-0.128529801324503	-0.741721854304636	2.20291390728477	4.6635761589404	2.46437086092715				0.948026490066225	-0.0125033112582781	0.0539337748344371	4.1517880794702	8.17192052980133	3.30251655629139				0.687788079470199	-0.286834437086093	-0.580238410596026	2.82039735099338	-5.16238410596027	-1.87470198675497			
154	3100	0.935841059602649	0.0347549668874172	-0.199523178807947	3.39337748344371	-1.5446357615894	-0.904900662251656				0.992953642384106	-0.0162119205298013	-0.0508609271523178	4.63390728476821	-1.93218543046358	1.65403973509934				0.933827814569536	-0.0332715231788079	-0.26394701986755	4.76741721854305	-0.413509933774833	-2.72026490066225				0.624529801324503	-0.0965298013245033	-0.789721854304636	0.522913907284768	5.2235761589404	-0.0556291390728476				1.01202649006623	0.00349668874172187	-0.0100662251655629	5.2717880794702	0.891920529801325	3.30251655629139				0.703788079470199	-0.286834437086093	-0.628238410596026	4.50039735099338	-3.76238410596027	-5.23470198675497			
155	3120	0.935841059602649	0.0507549668874172	-0.183523178807947	1.15337748344371	-2.6646357615894	-0.904900662251656				0.976953642384106	-0.0322119205298013	-0.0988609271523179	2.67390728476821	-5.57218543046358	2.49403973509934				0.933827814569536	-0.0492715231788079	-0.27994701986755	-1.11258278145695	-1.81350993377483	-1.88026490066225				0.592529801324503	-0.112529801324503	-0.789721854304636	5.84291390728477	4.9435761589404	0.784370860927152				0.964026490066225	-0.0285033112582781	0.0539337748344371	5.2717880794702	3.13192052980133	3.02251655629139				0.671788079470199	-0.270834437086093	-0.612238410596026	2.82039735099338	-6.84238410596027	-2.99470198675497			
156	3140	0.935841059602649	0.0347549668874172	-0.215523178807947	3.11337748344371	-2.3846357615894	-1.46490066225166				0.976953642384106	-0.0322119205298013	-0.0668609271523178	2.11390728476821	-1.09218543046358	1.37403973509934				0.933827814569536	-0.0332715231788079	-0.24794701986755	-2.79258278145695	-2.09350993377483	-1.32026490066225				0.576529801324503	-0.128529801324503	-0.805721854304636	7.80291390728477	-0.3764238410596	0.504370860927152				0.964026490066225	-0.0285033112582781	0.0379337748344371	4.9917880794702	1.17192052980133	2.46251655629139				0.671788079470199	-0.270834437086093	-0.596238410596026	1.98039735099338	-4.04238410596027	-2.99470198675497			
157	3160	0.935841059602649	0.0347549668874172	-0.215523178807947	3.95337748344371	-3.7846357615894	-1.18490066225166				0.976953642384106	-0.0322119205298013	-0.0988609271523179	2.95390728476821	-4.17218543046358	1.09403973509934				0.917827814569536	-0.0332715231788079	-0.24794701986755	-1.67258278145695	-4.33350993377483	-1.60026490066225				0.608529801324503	-0.144529801324503	-0.789721854304636	0.802913907284768	-2.0564238410596	-0.895629139072848				0.996026490066225	-0.0125033112582781	0.0219337748344371	4.9917880794702	-0.228079470198675	1.62251655629139				0.719788079470199	-0.302834437086093	-0.612238410596026	3.10039735099338	-2.92238410596027	-4.11470198675497			
158	3180	0.935841059602649	0.0347549668874172	-0.215523178807947	3.95337748344371	-1.2646357615894	-1.46490066225166				0.976953642384106	-0.0322119205298013	-0.0988609271523179	2.95390728476821	0.0278145695364242	1.65403973509934				0.933827814569536	-0.00127152317880793	-0.24794701986755	-1.39258278145695	-4.61350993377483	-0.48026490066225				0.576529801324503	-0.0965298013245033	-0.741721854304636	1.64291390728477	-0.6564238410596	-1.17562913907285				0.980026490066225	0.00349668874172187	0.0379337748344371	6.1117880794702	-1.34807947019868	2.18251655629139				0.735788079470199	-0.318834437086093	-0.628238410596026	2.82039735099338	-5.16238410596027	-6.35470198675497			
159	3200	0.951841059602649	0.0507549668874172	-0.183523178807947	3.39337748344371	-2.1046357615894	-0.624900662251656				1.00895364238411	-0.0642119205298013	-0.0668609271523178	2.67390728476821	-0.812185430463576	3.05403973509934				0.933827814569536	-0.00127152317880793	-0.23194701986755	2.80741721854305	-1.25350993377483	-0.76026490066225				0.560529801324503	-0.0805298013245033	-0.741721854304636	8.64291390728477	1.0235761589404	-0.615629139072848				0.980026490066225	-0.0125033112582781	0.0539337748344371	5.5517880794702	-1.62807947019868	2.74251655629139				0.687788079470199	-0.302834437086093	-0.612238410596026	3.66039735099338	-8.24238410596027	-4.67470198675497			
160	3220	0.951841059602649	0.0347549668874172	-0.199523178807947	3.67337748344371	-1.5446357615894	-1.18490066225166				0.992953642384106	-0.0962119205298013	-0.0508609271523178	2.39390728476821	-1.93218543046358	3.89403973509934				0.949827814569536	-0.0332715231788079	-0.24794701986755	6.16741721854305	-0.413509933774833	-1.88026490066225				0.560529801324503	-0.112529801324503	-0.757721854304636	8.92291390728477	0.7435761589404	-0.335629139072848				0.948026490066225	-0.0125033112582781	0.0539337748344371	4.1517880794702	-2.18807947019868	2.74251655629139				0.687788079470199	-0.302834437086093	-0.612238410596026	3.10039735099338	-10.7623841059603	-0.194701986754968			
161	3240	0.951841059602649	0.0187549668874172	-0.183523178807947	4.79337748344371	-1.5446357615894	-2.02490066225166				0.992953642384106	-0.0642119205298013	-0.0188609271523178	-1.24609271523179	0.0278145695364242	3.89403973509934				0.933827814569536	-0.0492715231788079	-0.23194701986755	4.20741721854305	0.706490066225167	-2.16026490066225				0.576529801324503	-0.128529801324503	-0.757721854304636	7.52291390728477	1.3035761589404	-0.615629139072848				0.964026490066225	-0.0285033112582781	0.0379337748344371	4.7117880794702	-4.14807947019868	3.58251655629139				0.703788079470199	-0.302834437086093	-0.596238410596026	3.94039735099338	-9.92238410596027	0.645298013245032			
162	3260	0.935841059602649	0.0187549668874172	-0.167523178807947	1.15337748344371	-1.2646357615894	-2.58490066225166				0.976953642384106	-0.0802119205298013	-0.0348609271523178	-3.48609271523179	-0.532185430463576	3.61403973509934				0.949827814569536	-0.0812715231788079	-0.23194701986755	1.12741721854305	-1.25350993377483	-2.44026490066225				0.560529801324503	-0.128529801324503	-0.773721854304636	6.68291390728477	2.9835761589404	-2.85562913907285				0.964026490066225	-0.0285033112582781	0.0379337748344371	5.8317880794702	-1.62807947019868	4.98251655629139				0.687788079470199	-0.318834437086093	-0.580238410596026	5.06039735099338	-5.16238410596027	-0.754701986754968			
163	3280	0.951841059602649	0.0187549668874172	-0.167523178807947	0.873377483443709	0.135364238410596	-2.86490066225166				0.960953642384106	-0.0802119205298013	-0.0188609271523178	-4.60609271523179	-0.812185430463576	3.61403973509934				0.949827814569536	-0.0972715231788079	-0.23194701986755	0.287417218543046	0.426490066225167	-2.44026490066225				0.576529801324503	-0.128529801324503	-0.741721854304636	5.84291390728477	3.5435761589404	-4.25562913907285				0.964026490066225	-0.0285033112582781	0.0539337748344371	4.7117880794702	0.331920529801325	3.86251655629139				0.671788079470199	-0.286834437086093	-0.564238410596026	4.78039735099338	-4.04238410596027	-1.59470198675497			
164	3300	0.951841059602649	0.00275496688741723	-0.167523178807947	0.313377483443709	-1.2646357615894	-2.86490066225166				0.960953642384106	-0.0482119205298013	-0.0348609271523178	-6.84609271523179	-0.252185430463576	4.73403973509934				0.933827814569536	-0.0972715231788079	-0.18394701986755	-2.23258278145695	-1.25350993377483	-3.28026490066225				0.576529801324503	-0.144529801324503	-0.757721854304636	5.28291390728477	2.9835761589404	-4.25562913907285				0.932026490066225	-0.0285033112582781	0.0699337748344371	3.5917880794702	-0.788079470198675	3.86251655629139				0.655788079470199	-0.302834437086093	-0.532238410596027	5.06039735099338	-2.36238410596027	-0.754701986754968			
165	3320	0.951841059602649	0.0187549668874172	-0.183523178807947	-1.64662251655629	-1.8246357615894	-3.14490066225166				0.976953642384106	-0.112211920529801	-0.00286092715231785	-9.64609271523179	-0.532185430463576	4.73403973509934				0.949827814569536	-0.0492715231788079	-0.19994701986755	-7.55258278145695	-2.37350993377483	-4.96026490066225				0.592529801324503	-0.144529801324503	-0.757721854304636	2.76291390728477	2.9835761589404	-3.97562913907285				0.932026490066225	-0.0445033112582781	0.0699337748344371	2.7517880794702	-1.06807947019868	3.02251655629139				0.655788079470199	-0.350834437086093	-0.532238410596027	6.46039735099338	2.11761589403974	-1.31470198675497			
166	3340	0.935841059602649	0.0347549668874172	-0.167523178807947	-2.48662251655629	-1.5446357615894	-3.42490066225166				0.976953642384106	-0.0962119205298013	0.0291390728476822	-10.2060927152318	-5.29218543046358	3.33403973509934				0.933827814569536	-0.0172715231788079	-0.21594701986755	-5.03258278145695	-3.49350993377483	-5.80026490066225				0.576529801324503	-0.160529801324503	-0.741721854304636	3.32291390728477	4.9435761589404	-3.13562913907285				0.948026490066225	-0.0285033112582781	0.0699337748344371	0.231788079470198	-1.34807947019868	1.34251655629139				0.687788079470199	-0.334834437086093	-0.548238410596027	1.14039735099338	6.31761589403974	-1.31470198675497			
167	3360	0.951841059602649	0.0347549668874172	-0.199523178807947	-4.44662251655629	-4.6246357615894	-2.86490066225166				0.944953642384106	-0.0162119205298013	-0.0348609271523178	-9.64609271523179	-5.57218543046358	1.37403973509934				0.933827814569536	-0.0332715231788079	-0.21594701986755	-1.39258278145695	-2.37350993377483	-5.80026490066225				0.592529801324503	-0.144529801324503	-0.741721854304636	-0.597086092715232	3.5435761589404	-1.73562913907285				0.932026490066225	-0.0445033112582781	0.0859337748344371	-0.0482119205298018	0.891920529801325	1.34251655629139				0.687788079470199	-0.302834437086093	-0.548238410596027	0.0203973509933773	7.15761589403974	-2.43470198675497			
168	3380	0.951841059602649	0.0347549668874172	-0.183523178807947	-4.72662251655629	-4.9046357615894	-2.86490066225166				0.976953642384106	-0.0162119205298013	-0.00286092715231785	-8.52609271523179	-7.25218543046358	2.21403973509934				0.933827814569536	-0.0172715231788079	-0.19994701986755	0.567417218543046	-4.05350993377483	-6.08026490066225				0.624529801324503	-0.0965298013245033	-0.757721854304636	-3.39708609271523	3.8235761589404	0.784370860927152				0.948026490066225	0.0194966887417219	0.0859337748344371	-4.5282119205298	-0.508079470198675	1.06251655629139				0.703788079470199	-0.270834437086093	-0.596238410596026	0.580397350993377	4.91761589403974	-6.63470198675497			
169	3400	0.935841059602649	0.0347549668874172	-0.167523178807947	-5.84662251655629	-6.3046357615894	-2.58490066225166				0.960953642384106	-0.0322119205298013	-0.0828609271523179	-5.44609271523179	-11.7321854304636	2.77403973509934				0.933827814569536	-0.0492715231788079	-0.21594701986755	0.00741721854304636	-4.89350993377483	-4.12026490066225				0.624529801324503	-0.0965298013245033	-0.773721854304636	3.88291390728477	4.1035761589404	0.224370860927152				0.980026490066225	0.00349668874172187	0.0539337748344371	-1.1682119205298	-1.90807947019868	1.06251655629139				0.719788079470199	-0.270834437086093	-0.580238410596026	2.54039735099338	2.39761589403974	-11.394701986755			
170	3420	0.967841059602649	0.0507549668874172	-0.167523178807947	-6.12662251655629	-6.0246357615894	-2.58490066225166				0.976953642384106	-0.0322119205298013	-0.0668609271523178	-3.20609271523179	-3.33218543046358	1.37403973509934				0.949827814569536	-0.0652715231788079	-0.23194701986755	-2.23258278145695	-3.21350993377483	-4.12026490066225				0.624529801324503	-0.0805298013245033	-0.773721854304636	2.20291390728477	1.3035761589404	-3.97562913907285				0.980026490066225	0.00349668874172187	0.0699337748344371	0.231788079470198	0.891920529801325	0.782516556291392				0.719788079470199	-0.302834437086093	-0.612238410596026	3.38039735099338	-1.80238410596026	-11.394701986755			
171	3440	0.951841059602649	0.0827549668874172	-0.167523178807947	-2.76662251655629	-6.5846357615894	-2.58490066225166				0.992953642384106	0.0157880794701987	-0.0668609271523178	0.153907284768212	-8.65218543046358	2.21403973509934				0.949827814569536	-0.00127152317880793	-0.23194701986755	-2.23258278145695	-6.01350993377483	-3.56026490066225				0.640529801324503	-0.0805298013245033	-0.709721854304636	-2.55708609271523	-3.7364238410596	-4.25562913907285				0.980026490066225	0.0514966887417219	0.0379337748344371	-0.328211920529802	-2.74807947019868	1.34251655629139				0.719788079470199	-0.254834437086093	-0.628238410596026	-0.539602649006623	-1.80238410596026	-10.834701986755			
172	3460	0.951841059602649	0.0667549668874172	-0.183523178807947	-2.76662251655629	-6.5846357615894	-2.58490066225166				0.976953642384106	-0.000211920529801304	-0.0988609271523179	0.433907284768212	-7.53218543046358	3.05403973509934				0.933827814569536	0.0307284768211921	-0.24794701986755	-4.75258278145695	-3.49350993377483	-3.56026490066225				0.592529801324503	-0.112529801324503	-0.741721854304636	-1.15708609271523	-2.0564238410596	-0.895629139072848				0.948026490066225	0.00349668874172187	0.0219337748344371	2.1917880794702	-2.46807947019868	1.90251655629139				0.703788079470199	-0.238834437086093	-0.612238410596026	6.18039735099338	-2.64238410596027	-11.114701986755			
173	3480	0.935841059602649	0.0347549668874172	-0.231523178807947	1.99337748344371	-0.424635761589404	-2.86490066225166				0.992953642384106	-0.000211920529801304	-0.114860927152318	6.03390728476821	-6.97218543046358	-1.70596026490066				0.933827814569536	0.0147284768211921	-0.24794701986755	-2.23258278145695	-3.21350993377483	-0.76026490066225				0.560529801324503	-0.112529801324503	-0.757721854304636	-1.43708609271523	3.2635761589404	-4.53562913907285				0.964026490066225	-0.0125033112582781	0.0219337748344371	4.4317880794702	-0.508079470198675	0.782516556291392				0.703788079470199	-0.318834437086093	-0.628238410596026	6.46039735099338	-6.28238410596027	-13.074701986755			
174	3500	0.951841059602649	0.114754966887417	-0.215523178807947	3.11337748344371	-6.8646357615894	-3.14490066225166				0.992953642384106	-0.0162119205298013	-0.0988609271523179	7.71390728476821	-4.17218543046358	1.37403973509934				0.933827814569536	0.0627284768211921	-0.26394701986755	3.08741721854305	0.706490066225167	-2.16026490066225				0.544529801324503	-0.0805298013245033	-0.741721854304636	1.64291390728477	6.6235761589404	-5.37562913907285				0.980026490066225	-0.0125033112582781	0.0379337748344371	5.2717880794702	-0.788079470198675	1.62251655629139				0.655788079470199	-0.286834437086093	-0.580238410596026	2.26039735099338	-1.52238410596026	-10.554701986755			
175	3520	0.935841059602649	0.130754966887417	-0.183523178807947	3.11337748344371	-8.26463576158941	-2.30490066225166				0.960953642384106	0.0157880794701987	-0.0988609271523179	14.7139072847682	-0.812185430463576	0.81403973509934				0.917827814569536	0.0467284768211921	-0.29594701986755	7.84741721854305	-1.81350993377483	-2.72026490066225				0.592529801324503	-0.128529801324503	-0.725721854304636	0.802913907284768	6.0635761589404	-2.85562913907285				0.948026490066225	-0.0125033112582781	0.00593377483443711	7.2317880794702	-4.70807947019868	1.34251655629139				0.655788079470199	-0.270834437086093	-0.596238410596026	5.90039735099338	1.55761589403974	-4.95470198675497			
176	3540	0.951841059602649	0.0827549668874172	-0.215523178807947	10.1133774834437	-6.0246357615894	-2.86490066225166				0.960953642384106	-0.0322119205298013	-0.0668609271523178	13.0339072847682	0.0278145695364242	0.53403973509934				0.917827814569536	0.0467284768211921	-0.31194701986755	9.24741721854305	-2.37350993377483	-3.28026490066225				0.592529801324503	-0.160529801324503	-0.741721854304636	8.92291390728477	9.7035761589404	-3.97562913907285				0.948026490066225	-0.0285033112582781	-0.0260662251655629	7.7917880794702	-3.30807947019868	1.62251655629139				0.687788079470199	-0.238834437086093	-0.628238410596026	2.26039735099338	6.03761589403974	-7.75470198675497			
177	3560	0.951841059602649	0.0667549668874172	-0.231523178807947	11.5133774834437	-6.5846357615894	-3.42490066225166				0.992953642384106	-0.0802119205298013	-0.114860927152318	11.3539072847682	0.587814569536424	-1.98596026490066				0.917827814569536	0.0307284768211921	-0.29594701986755	10.367417218543	-1.81350993377483	-3.84026490066225				0.560529801324503	-0.112529801324503	-0.757721854304636	8.36291390728477	13.9035761589404	-8.73562913907285				0.932026490066225	-0.0285033112582781	0.0379337748344371	6.6717880794702	0.891920529801325	-0.337483443708608				0.639788079470199	-0.238834437086093	-0.596238410596026	4.78039735099338	2.39761589403974	-10.554701986755			
178	3580	0.919841059602649	0.0667549668874172	-0.199523178807947	8.43337748344371	-6.3046357615894	-3.98490066225166				0.976953642384106	-0.0482119205298013	-0.0188609271523178	11.9139072847682	-0.812185430463576	-3.38596026490066				0.933827814569536	0.0147284768211921	-0.27994701986755	12.327417218543	-4.05350993377483	-4.96026490066225				0.576529801324503	-0.112529801324503	-0.741721854304636	10.0429139072848	13.0635761589404	-6.49562913907285				0.948026490066225	0.00349668874172187	0.0219337748344371	7.5117880794702	-0.508079470198675	-0.897483443708608				0.671788079470199	-0.222834437086093	-0.644238410596026	4.50039735099338	5.75761589403974	-11.114701986755			
