No	Time	12-AccX	12-AccY	12-AccZ	12-GyroX	12-GyroY	12-GyroZ	13-AccX	13-AccY	13-AccZ	13-GyroX	13-GyroY	13-GyroZ	14-AccX	14-AccY	14-AccZ	14-GyroX	14-GyroY	14-GyroZ	15-AccX	15-AccY	15-AccZ	15-GyroX	15-GyroY	15-GyroZ	16-AccX	16-AccY	16-AccZ	16-GyroX	16-GyroY	16-GyroZ	17-AccX	17-AccY	17-AccZ	17-GyroX	17-GyroY	17-GyroZ
0	20	-0.264158940397351	0.0987549668874172	-0.935523178807947	1.43337748344371	-0.424635761589404	-0.624900662251656				0.960953642384106	0.0477880794701987	0.269139072847682	-0.686092715231788	2.54781456953642	1.93403973509934				-0.234172185430464	-0.177271523178808	-0.87194701986755	1.40741721854305	-0.413509933774833	0.0797350993377501				0.592529801324503	-0.272529801324503	-0.677721854304636	1.36291390728477	1.5835761589404	1.62437086092715				0.964026490066225	0.0514966887417219	0.181933774834437	-0.888211920529802	-3.02807947019868	-0.617483443708608				0.399788079470199	-0.206834437086093	-0.852238410596026	-2.49960264900662	1.83761589403974	-0.474701986754968			
1	40	-0.264158940397351	0.0987549668874172	-0.935523178807947	0.593377483443709	0.135364238410596	-0.344900662251656				0.960953642384106	0.0477880794701987	0.269139072847682	-1.24609271523179	5.06781456953642	1.93403973509934				-0.266172185430464	-0.161271523178808	-0.87194701986755	1.12741721854305	0.706490066225167	-0.20026490066225				0.608529801324503	-0.288529801324503	-0.693721854304636	4.72291390728477	2.4235761589404	2.18437086092715				0.948026490066225	0.0514966887417219	0.181933774834437	1.6317880794702	-3.86807947019868	0.782516556291392				0.399788079470199	-0.190834437086093	-0.852238410596026	-2.21960264900662	2.11761589403974	0.365298013245032			
2	60	-0.248158940397351	0.114754966887417	-0.935523178807947	-0.526622516556291	-0.144635761589404	-0.904900662251656				0.960953642384106	0.0477880794701987	0.285139072847682	-0.966092715231788	5.62781456953642	2.21403973509934				-0.250172185430464	-0.161271523178808	-0.87194701986755	-0.832582781456954	-2.09350993377483	-0.48026490066225				0.592529801324503	-0.288529801324503	-0.693721854304636	3.88291390728477	1.3035761589404	1.34437086092715				0.948026490066225	0.0514966887417219	0.197933774834437	1.6317880794702	-4.42807947019868	0.782516556291392				0.399788079470199	-0.174834437086093	-0.852238410596026	0.580397350993377	0.717615894039735	0.365298013245032			
3	80	-0.248158940397351	0.0987549668874172	-0.935523178807947	-0.526622516556291	-0.704635761589404	-0.624900662251656				0.960953642384106	0.0637880794701987	0.285139072847682	-0.966092715231788	3.94781456953642	1.65403973509934				-0.234172185430464	-0.161271523178808	-0.87194701986755	1.12741721854305	1.26649006622517	-0.48026490066225				0.608529801324503	-0.288529801324503	-0.677721854304636	3.88291390728477	0.4635761589404	0.784370860927152				0.948026490066225	0.0354966887417219	0.181933774834437	1.0717880794702	-5.54807947019868	1.34251655629139				0.415788079470199	-0.190834437086093	-0.852238410596026	2.82039735099338	-0.122384105960265	-1.31470198675497			
4	100	-0.232158940397351	0.114754966887417	-0.935523178807947	0.313377483443709	-0.704635761589404	-0.904900662251656				0.960953642384106	0.0637880794701987	0.285139072847682	-0.966092715231788	1.70781456953642	0.81403973509934				-0.250172185430464	-0.161271523178808	-0.87194701986755	0.567417218543046	-0.973509933774833	-0.48026490066225				0.592529801324503	-0.304529801324503	-0.693721854304636	3.04291390728477	-0.0964238410596001	0.504370860927152				0.948026490066225	0.0514966887417219	0.181933774834437	1.3517880794702	-4.70807947019868	1.34251655629139				0.415788079470199	-0.206834437086093	-0.820238410596026	1.98039735099338	-0.122384105960265	-1.03470198675497			
5	120	-0.248158940397351	0.0987549668874172	-0.887523178807947	-0.526622516556291	-0.144635761589404	-1.46490066225166				0.960953642384106	0.0477880794701987	0.269139072847682	-0.406092715231788	1.14781456953642	0.81403973509934				-0.250172185430464	-0.161271523178808	-0.87194701986755	0.287417218543046	-0.133509933774833	-0.20026490066225				0.592529801324503	-0.288529801324503	-0.693721854304636	3.32291390728477	-0.9364238410596	-0.0556291390728476				0.948026490066225	0.0514966887417219	0.181933774834437	2.7517880794702	-4.98807947019868	1.06251655629139				0.415788079470199	-0.206834437086093	-0.852238410596026	-0.259602649006623	0.717615894039735	-0.474701986754968			
6	140	-0.264158940397351	0.0987549668874172	-0.951523178807947	-0.526622516556291	-0.424635761589404	-1.74490066225166				0.960953642384106	0.0637880794701987	0.269139072847682	-0.686092715231788	1.98781456953642	-0.30596026490066				-0.250172185430464	-0.161271523178808	-0.88794701986755	0.00741721854304636	0.986490066225167	-0.20026490066225				0.592529801324503	-0.304529801324503	-0.693721854304636	2.76291390728477	-1.4964238410596	-0.615629139072848				0.964026490066225	0.0514966887417219	0.165933774834437	1.6317880794702	-5.26807947019868	1.34251655629139				0.399788079470199	-0.190834437086093	-0.836238410596026	-0.259602649006623	-0.402384105960265	-0.754701986754968			
7	160	-0.248158940397351	0.114754966887417	-0.935523178807947	-0.246622516556291	0.415364238410596	-0.0649006622516557				0.960953642384106	0.0637880794701987	0.285139072847682	-1.24609271523179	3.10781456953642	-0.0259602649006601				-0.250172185430464	-0.161271523178808	-0.87194701986755	0.567417218543046	-0.413509933774833	0.0797350993377501				0.592529801324503	-0.304529801324503	-0.693721854304636	1.92291390728477	-1.7764238410596	-0.615629139072848				0.948026490066225	0.0514966887417219	0.181933774834437	1.3517880794702	-4.14807947019868	1.90251655629139				0.415788079470199	-0.190834437086093	-0.836238410596026	0.860397350993377	-0.962384105960265	-0.474701986754968			
8	180	-0.248158940397351	0.114754966887417	-0.935523178807947	-0.246622516556291	0.135364238410596	-1.18490066225166				0.944953642384106	0.0637880794701987	0.301139072847682	-0.126092715231788	1.14781456953642	0.53403973509934				-0.250172185430464	-0.145271523178808	-0.87194701986755	1.12741721854305	-0.133509933774833	-0.20026490066225				0.592529801324503	-0.288529801324503	-0.693721854304636	2.48291390728477	-1.4964238410596	-0.895629139072848				0.948026490066225	0.0354966887417219	0.165933774834437	1.9117880794702	-4.42807947019868	1.06251655629139				0.399788079470199	-0.206834437086093	-0.836238410596026	1.98039735099338	-0.962384105960265	-1.03470198675497			
9	200	-0.248158940397351	0.114754966887417	-0.935523178807947	-0.246622516556291	-0.424635761589404	-1.18490066225166				0.960953642384106	0.0637880794701987	0.285139072847682	0.993907284768212	-1.09218543046358	0.25403973509934				-0.250172185430464	-0.145271523178808	-0.85594701986755	0.847417218543046	-0.693509933774834	0.35973509933775				0.592529801324503	-0.288529801324503	-0.693721854304636	3.04291390728477	-0.6564238410596	-0.0556291390728476				0.948026490066225	0.0514966887417219	0.197933774834437	2.7517880794702	-1.62807947019868	0.222516556291392				0.415788079470199	-0.206834437086093	-0.836238410596026	0.300397350993377	-0.402384105960265	-0.754701986754968			
10	220	-0.248158940397351	0.0987549668874172	-0.951523178807947	-0.246622516556291	-0.424635761589404	-0.344900662251656				0.960953642384106	0.0637880794701987	0.285139072847682	0.713907284768212	0.0278145695364242	-0.86596026490066				-0.250172185430464	-0.161271523178808	-0.88794701986755	0.567417218543046	0.146490066225167	-0.48026490066225				0.576529801324503	-0.304529801324503	-0.693721854304636	2.76291390728477	-0.0964238410596001	-0.615629139072848				0.948026490066225	0.0354966887417219	0.133933774834437	1.9117880794702	-6.94807947019868	1.34251655629139				0.399788079470199	-0.190834437086093	-0.836238410596026	-0.819602649006623	0.157615894039735	-0.754701986754968			
11	240	-0.248158940397351	0.114754966887417	-0.951523178807947	-0.526622516556291	-0.144635761589404	-0.904900662251656				0.960953642384106	0.0637880794701987	0.269139072847682	-0.686092715231788	-1.65218543046358	0.25403973509934				-0.266172185430464	-0.161271523178808	-0.87194701986755	0.00741721854304636	-0.413509933774833	0.35973509933775				0.576529801324503	-0.304529801324503	-0.693721854304636	2.76291390728477	-0.3764238410596	-0.895629139072848				0.948026490066225	0.0514966887417219	0.165933774834437	-1.1682119205298	-1.34807947019868	0.222516556291392				0.399788079470199	-0.190834437086093	-0.836238410596026	0.0203973509933773	0.437615894039735	-0.754701986754968			
12	260	-0.248158940397351	0.0987549668874172	-0.919523178807947	-0.246622516556291	-0.144635761589404	-1.46490066225166				0.960953642384106	0.0637880794701987	0.285139072847682	-1.24609271523179	-0.532185430463576	1.09403973509934				-0.250172185430464	-0.161271523178808	-0.87194701986755	0.567417218543046	0.146490066225167	-0.76026490066225				0.576529801324503	-0.304529801324503	-0.693721854304636	2.76291390728477	-1.4964238410596	0.224370860927152				0.948026490066225	0.0354966887417219	0.165933774834437	-1.7282119205298	-1.34807947019868	-0.337483443708608				0.415788079470199	-0.206834437086093	-0.836238410596026	0.580397350993377	-1.24238410596026	-0.474701986754968			
13	280	-0.248158940397351	0.114754966887417	-0.935523178807947	-0.526622516556291	-0.704635761589404	-1.18490066225166				0.960953642384106	0.0477880794701987	0.285139072847682	-0.966092715231788	-4.17218543046358	0.25403973509934				-0.250172185430464	-0.145271523178808	-0.87194701986755	0.00741721854304636	-2.09350993377483	-1.04026490066225				0.592529801324503	-0.304529801324503	-0.709721854304636	1.92291390728477	-1.7764238410596	-0.615629139072848				0.964026490066225	0.0514966887417219	0.149933774834437	1.0717880794702	-3.02807947019868	0.782516556291392				0.399788079470199	-0.206834437086093	-0.836238410596026	0.300397350993377	-0.682384105960265	-1.31470198675497			
14	300	-0.248158940397351	0.114754966887417	-0.951523178807947	-0.526622516556291	-1.2646357615894	-0.904900662251656				0.944953642384106	0.0637880794701987	0.269139072847682	-0.126092715231788	-3.05218543046358	-1.14596026490066				-0.266172185430464	-0.145271523178808	-0.87194701986755	1.68741721854305	-1.25350993377483	-0.76026490066225				0.592529801324503	-0.304529801324503	-0.693721854304636	1.36291390728477	-2.0564238410596	-1.73562913907285				0.964026490066225	0.0514966887417219	0.149933774834437	1.0717880794702	-3.86807947019868	0.502516556291392				0.399788079470199	-0.206834437086093	-0.852238410596026	0.0203973509933773	0.157615894039735	-1.03470198675497			
15	320	-0.248158940397351	0.114754966887417	-0.951523178807947	0.0333774834437086	-0.144635761589404	-0.904900662251656				0.960953642384106	0.0637880794701987	0.285139072847682	-0.126092715231788	-0.532185430463576	-0.585960264900661				-0.250172185430464	-0.161271523178808	-0.88794701986755	1.68741721854305	0.146490066225167	-0.76026490066225				0.576529801324503	-0.320529801324503	-0.693721854304636	1.92291390728477	-2.0564238410596	-0.615629139072848				0.948026490066225	0.0514966887417219	0.149933774834437	-0.888211920529802	-4.42807947019868	1.06251655629139				0.399788079470199	-0.206834437086093	-0.836238410596026	0.300397350993377	0.157615894039735	-0.194701986754968			
16	340	-0.248158940397351	0.0987549668874172	-0.935523178807947	0.593377483443709	0.695364238410596	-0.904900662251656				0.960953642384106	0.0637880794701987	0.285139072847682	-1.24609271523179	-0.812185430463576	0.25403973509934				-0.250172185430464	-0.177271523178808	-0.87194701986755	0.567417218543046	0.986490066225167	-0.76026490066225				0.592529801324503	-0.304529801324503	-0.693721854304636	1.36291390728477	-1.4964238410596	-1.45562913907285				0.948026490066225	0.0514966887417219	0.165933774834437	0.231788079470198	-1.62807947019868	-0.0574834437086077				0.383788079470199	-0.206834437086093	-0.836238410596026	-0.539602649006623	-0.122384105960265	0.645298013245032			
17	360	-0.248158940397351	0.114754966887417	-0.919523178807947	-0.246622516556291	-0.424635761589404	-0.624900662251656				0.960953642384106	0.0797880794701987	0.269139072847682	0.153907284768212	-3.33218543046358	0.25403973509934				-0.250172185430464	-0.161271523178808	-0.85594701986755	0.00741721854304636	1.26649006622517	-0.48026490066225				0.576529801324503	-0.304529801324503	-0.709721854304636	1.92291390728477	-1.7764238410596	-1.17562913907285				0.948026490066225	0.0354966887417219	0.149933774834437	0.511788079470198	-1.34807947019868	-0.617483443708608				0.399788079470199	-0.190834437086093	-0.852238410596026	-2.77960264900662	-0.962384105960265	2.32529801324503			
18	380	-0.264158940397351	0.114754966887417	-0.919523178807947	-2.20662251655629	-0.144635761589404	-1.18490066225166				0.976953642384106	0.0637880794701987	0.253139072847682	1.27390728476821	-7.53218543046358	0.53403973509934				-0.266172185430464	-0.161271523178808	-0.85594701986755	0.287417218543046	0.146490066225167	-0.48026490066225				0.592529801324503	-0.304529801324503	-0.693721854304636	1.36291390728477	-1.7764238410596	-0.895629139072848				0.980026490066225	0.0514966887417219	0.149933774834437	-0.888211920529802	-1.90807947019868	-0.0574834437086077				0.415788079470199	-0.206834437086093	-0.852238410596026	-1.65960264900662	-2.08238410596027	2.04529801324503			
19	400	-0.264158940397351	0.114754966887417	-0.951523178807947	-1.64662251655629	-0.424635761589404	-0.344900662251656				0.960953642384106	0.0477880794701987	0.253139072847682	1.55390728476821	-6.41218543046358	-0.30596026490066				-0.250172185430464	-0.145271523178808	-0.87194701986755	1.12741721854305	0.426490066225167	0.63973509933775				0.576529801324503	-0.320529801324503	-0.709721854304636	1.36291390728477	-2.6164238410596	-0.615629139072848				0.964026490066225	0.0354966887417219	0.149933774834437	-1.1682119205298	-3.30807947019868	0.502516556291392				0.399788079470199	-0.206834437086093	-0.868238410596026	-2.21960264900662	-1.24238410596026	2.88529801324503			
20	420	-0.248158940397351	0.0987549668874172	-0.935523178807947	-1.64662251655629	0.695364238410596	-0.0649006622516557				0.960953642384106	0.0637880794701987	0.269139072847682	0.153907284768212	-5.01218543046358	-0.30596026490066				-0.250172185430464	-0.161271523178808	-0.87194701986755	1.96741721854305	-0.133509933774833	-0.48026490066225				0.576529801324503	-0.288529801324503	-0.693721854304636	0.802913907284768	-4.2964238410596	-1.17562913907285				0.948026490066225	0.0514966887417219	0.149933774834437	-0.888211920529802	-3.86807947019868	0.222516556291392				0.399788079470199	-0.190834437086093	-0.852238410596026	-1.37960264900662	-0.962384105960265	2.60529801324503			
21	440	-0.248158940397351	0.114754966887417	-0.935523178807947	-2.20662251655629	0.415364238410596	-0.344900662251656				0.960953642384106	0.0477880794701987	0.269139072847682	-0.126092715231788	-8.93218543046358	-0.30596026490066				-0.250172185430464	-0.161271523178808	-0.87194701986755	1.96741721854305	0.146490066225167	-1.04026490066225				0.592529801324503	-0.288529801324503	-0.709721854304636	-0.877086092715232	-6.5364238410596	-2.01562913907285				0.948026490066225	0.0514966887417219	0.165933774834437	-1.7282119205298	-2.18807947019868	1.06251655629139				0.399788079470199	-0.206834437086093	-0.836238410596026	-1.93960264900662	-1.80238410596026	2.32529801324503			
22	460	-0.248158940397351	0.114754966887417	-0.935523178807947	-2.20662251655629	-0.424635761589404	0.215099337748344				0.976953642384106	0.0637880794701987	0.253139072847682	1.55390728476821	-11.7321854304636	-0.30596026490066				-0.250172185430464	-0.161271523178808	-0.87194701986755	0.00741721854304636	-1.25350993377483	-1.04026490066225				0.576529801324503	-0.336529801324503	-0.709721854304636	-1.43708609271523	-7.9364238410596	-1.73562913907285				0.948026490066225	0.0354966887417219	0.133933774834437	-2.0082119205298	-5.54807947019868	0.502516556291392				0.399788079470199	-0.206834437086093	-0.836238410596026	-4.17960264900662	-2.92238410596027	1.76529801324503			
23	480	-0.248158940397351	0.114754966887417	-0.935523178807947	-1.36662251655629	-0.424635761589404	0.495099337748344				0.976953642384106	0.0477880794701987	0.253139072847682	0.433907284768212	-20.4121854304636	-1.14596026490066				-0.266172185430464	-0.161271523178808	-0.87194701986755	0.287417218543046	-0.133509933774833	-0.76026490066225				0.560529801324503	-0.320529801324503	-0.709721854304636	2.20291390728477	-12.4164238410596	-3.69562913907285				0.948026490066225	0.0514966887417219	0.133933774834437	-1.4482119205298	-1.90807947019868	-0.897483443708608				0.399788079470199	-0.206834437086093	-0.836238410596026	-4.17960264900662	-2.92238410596027	4.28529801324503			
24	500	-0.264158940397351	0.114754966887417	-0.935523178807947	-1.64662251655629	0.415364238410596	-0.0649006622516557				0.976953642384106	0.0477880794701987	0.269139072847682	0.713907284768212	-22.3721854304636	-0.0259602649006601				-0.266172185430464	-0.177271523178808	-0.87194701986755	1.40741721854305	0.426490066225167	-1.04026490066225				0.560529801324503	-0.320529801324503	-0.741721854304636	-3.39708609271523	-12.9764238410596	-2.57562913907285				0.964026490066225	0.0514966887417219	0.133933774834437	-2.2882119205298	0.891920529801325	0.222516556291392				0.399788079470199	-0.190834437086093	-0.852238410596026	-8.09960264900662	-0.962384105960265	8.20529801324503			
25	520	-0.264158940397351	0.114754966887417	-0.951523178807947	-0.806622516556291	0.135364238410596	0.215099337748344				0.944953642384106	0.0637880794701987	0.253139072847682	0.993907284768212	-20.1321854304636	-0.0259602649006601				-0.250172185430464	-0.161271523178808	-0.88794701986755	0.847417218543046	-1.25350993377483	-1.32026490066225				0.592529801324503	-0.320529801324503	-0.741721854304636	-9.27708609271523	-13.8164238410596	-3.41562913907285				0.948026490066225	0.0514966887417219	0.133933774834437	-1.1682119205298	0.611920529801325	0.222516556291392				0.351788079470199	-0.206834437086093	-0.852238410596026	-3.89960264900662	-2.92238410596027	9.04529801324503			
26	540	-0.248158940397351	0.114754966887417	-0.951523178807947	-0.806622516556291	0.415364238410596	0.215099337748344				0.976953642384106	0.0477880794701987	0.237139072847682	-0.966092715231788	-17.6121854304636	-0.30596026490066				-0.250172185430464	-0.177271523178808	-0.85594701986755	0.287417218543046	-0.693509933774834	-1.04026490066225				0.592529801324503	-0.304529801324503	-0.725721854304636	-8.99708609271523	-15.4964238410596	-5.37562913907285				0.964026490066225	0.0354966887417219	0.133933774834437	-1.7282119205298	1.45192052980132	-0.897483443708608				0.367788079470199	-0.222834437086093	-0.884238410596026	-6.69960264900662	-0.962384105960265	11.005298013245			
27	560	-0.248158940397351	0.0987549668874172	-0.935523178807947	-1.92662251655629	-0.424635761589404	0.215099337748344				1.02495364238411	0.0317880794701987	0.237139072847682	-3.20609271523179	-27.4121854304636	-0.30596026490066				-0.250172185430464	-0.177271523178808	-0.87194701986755	1.40741721854305	0.706490066225167	-1.32026490066225				0.544529801324503	-0.336529801324503	-0.757721854304636	-0.317086092715232	-19.1364238410596	-7.05562913907285				0.964026490066225	0.0354966887417219	0.133933774834437	-2.8482119205298	2.57192052980133	-0.897483443708608				0.383788079470199	-0.206834437086093	-0.884238410596026	-12.2996026490066	2.39761589403974	16.885298013245			
28	580	-0.248158940397351	0.114754966887417	-0.935523178807947	-2.20662251655629	1.2553642384106	0.215099337748344				0.992953642384106	0.0477880794701987	0.205139072847682	-0.686092715231788	-41.1321854304636	-1.98596026490066				-0.250172185430464	-0.177271523178808	-0.85594701986755	0.847417218543046	0.426490066225167	-2.44026490066225				0.560529801324503	-0.320529801324503	-0.821721854304636	-0.597086092715232	-21.3764238410596	-10.4156291390728				0.948026490066225	0.0354966887417219	0.117933774834437	-2.2882119205298	4.81192052980133	-0.897483443708608				0.383788079470199	-0.206834437086093	-0.884238410596026	-6.69960264900662	2.95761589403974	17.725298013245			
29	600	-0.248158940397351	0.0987549668874172	-0.935523178807947	-1.08662251655629	1.2553642384106	-0.0649006622516557				0.912953642384106	0.0637880794701987	0.189139072847682	4.07390728476821	-34.9721854304636	-1.70596026490066				-0.250172185430464	-0.145271523178808	-0.87194701986755	-1.11258278145695	-0.133509933774833	-1.88026490066225				0.608529801324503	-0.304529801324503	-0.789721854304636	-19.0770860927152	-28.9364238410596	-10.1356291390728				0.948026490066225	0.0354966887417219	0.133933774834437	-2.0082119205298	7.05192052980133	-1.17748344370861				0.351788079470199	-0.254834437086093	-0.852238410596026	-6.97960264900662	-0.402384105960265	19.965298013245			
30	620	-0.248158940397351	0.114754966887417	-0.935523178807947	-1.36662251655629	0.695364238410596	-0.344900662251656				0.944953642384106	0.0637880794701987	0.205139072847682	5.19390728476821	-15.0921854304636	-0.30596026490066				-0.266172185430464	-0.177271523178808	-0.88794701986755	-1.67258278145695	-0.133509933774833	-0.48026490066225				0.576529801324503	-0.320529801324503	-0.757721854304636	-28.8770860927152	-35.6564238410596	-12.3756291390728				0.948026490066225	0.0514966887417219	0.117933774834437	-3.1282119205298	7.61192052980133	-0.897483443708608				0.383788079470199	-0.222834437086093	-0.884238410596026	-4.17960264900662	-7.68238410596027	26.685298013245			
31	640	-0.248158940397351	0.114754966887417	-0.951523178807947	-1.64662251655629	0.975364238410596	-0.0649006622516557				0.976953642384106	0.0637880794701987	0.157139072847682	2.95390728476821	-10.0521854304636	0.81403973509934				-0.234172185430464	-0.193271523178808	-0.87194701986755	0.287417218543046	-0.413509933774833	-1.04026490066225				0.528529801324503	-0.272529801324503	-0.773721854304636	-32.7970860927152	-35.6564238410596	-13.7756291390728				0.964026490066225	0.0354966887417219	0.133933774834437	-1.4482119205298	10.4119205298013	-1.73748344370861				0.383788079470199	-0.222834437086093	-0.884238410596026	-7.53960264900662	-9.64238410596027	33.405298013245			
32	660	-0.248158940397351	0.114754966887417	-0.935523178807947	-1.64662251655629	0.415364238410596	0.775099337748344				0.944953642384106	0.0797880794701987	0.125139072847682	-2.92609271523179	-8.93218543046358	0.53403973509934				-0.234172185430464	-0.161271523178808	-0.83994701986755	0.567417218543046	-0.133509933774833	-1.88026490066225				0.480529801324503	-0.256529801324503	-0.773721854304636	-23.8370860927152	-36.7764238410596	-11.5356291390728				0.964026490066225	0.0354966887417219	0.165933774834437	-1.1682119205298	9.29192052980133	-1.45748344370861				0.351788079470199	-0.174834437086093	-0.884238410596026	-5.29960264900662	-11.0423841059603	31.165298013245			
33	680	-0.232158940397351	0.114754966887417	-0.935523178807947	-2.76662251655629	-0.144635761589404	1.61509933774834				0.944953642384106	0.0797880794701987	0.141139072847682	-0.406092715231788	-4.45218543046358	0.53403973509934				-0.250172185430464	-0.129271523178808	-0.83994701986755	-1.11258278145695	-0.133509933774833	-0.20026490066225				0.496529801324503	-0.224529801324503	-0.773721854304636	-22.9970860927152	-37.8964238410596	-10.1356291390728				0.948026490066225	0.0354966887417219	0.133933774834437	-2.0082119205298	7.33192052980133	-0.617483443708608				0.335788079470199	-0.174834437086093	-0.884238410596026	6.18039735099338	-12.4423841059603	26.685298013245			
34	700	-0.248158940397351	0.114754966887417	-0.935523178807947	-4.16662251655629	0.135364238410596	1.61509933774834				0.992953642384106	0.0797880794701987	0.125139072847682	7.43390728476821	-3.61218543046358	1.09403973509934				-0.266172185430464	-0.161271523178808	-0.87194701986755	-1.11258278145695	-0.413509933774833	1.19973509933775				0.496529801324503	-0.256529801324503	-0.789721854304636	-22.9970860927152	-39.5764238410596	-13.4956291390728				0.964026490066225	0.0354966887417219	0.117933774834437	-2.0082119205298	6.77192052980133	-0.337483443708608				0.351788079470199	-0.190834437086093	-0.868238410596026	7.58039735099338	-12.1623841059603	25.285298013245			
35	720	-0.264158940397351	0.0987549668874172	-0.935523178807947	-1.92662251655629	0.975364238410596	2.45509933774835				1.00895364238411	0.0637880794701987	0.125139072847682	7.43390728476821	-5.85218543046358	0.81403973509934				-0.282172185430464	-0.161271523178808	-0.88794701986755	-0.552582781456954	-0.413509933774833	-0.48026490066225				0.480529801324503	-0.256529801324503	-0.773721854304636	-20.1970860927152	-34.2564238410596	-14.6156291390728				0.996026490066225	0.0354966887417219	0.117933774834437	-0.888211920529802	8.45192052980133	-0.337483443708608				0.367788079470199	-0.190834437086093	-0.868238410596026	0.300397350993377	-10.4823841059603	28.085298013245			
36	740	-0.296158940397351	0.0987549668874172	-0.935523178807947	-3.32662251655629	0.695364238410596	1.33509933774834				0.992953642384106	0.0797880794701987	0.125139072847682	1.27390728476821	-5.01218543046358	0.81403973509934				-0.266172185430464	-0.161271523178808	-0.88794701986755	0.567417218543046	0.146490066225167	-0.76026490066225				0.448529801324503	-0.224529801324503	-0.757721854304636	-19.0770860927152	-25.0164238410596	-10.6956291390728				0.980026490066225	0.0674966887417219	0.181933774834437	-0.328211920529802	10.6919205298013	-0.897483443708608				0.335788079470199	-0.206834437086093	-0.884238410596026	4.22039735099338	-11.6023841059603	27.805298013245			
37	760	-0.296158940397351	0.130754966887417	-0.935523178807947	-6.12662251655629	1.8153642384106	1.61509933774834				0.992953642384106	0.0797880794701987	0.157139072847682	-4.60609271523179	0.587814569536424	2.21403973509934				-0.282172185430464	-0.161271523178808	-0.90394701986755	-0.832582781456954	1.54649006622517	-1.04026490066225				0.480529801324503	-0.208529801324503	-0.741721854304636	-11.5170860927152	-17.7364238410596	-3.69562913907285				0.980026490066225	0.0674966887417219	0.165933774834437	-2.5682119205298	0.331920529801325	-0.337483443708608				0.319788079470199	-0.206834437086093	-0.900238410596026	-3.05960264900662	-4.04238410596027	28.085298013245			
38	780	-0.248158940397351	0.146754966887417	-0.951523178807947	-4.16662251655629	3.7753642384106	2.45509933774835				0.992953642384106	0.0637880794701987	0.173139072847682	-5.16609271523179	5.06781456953642	1.93403973509934				-0.250172185430464	-0.145271523178808	-0.88794701986755	0.00741721854304636	-1.25350993377483	-2.16026490066225				0.464529801324503	-0.224529801324503	-0.805721854304636	-0.877086092715232	-13.8164238410596	-1.45562913907285				0.948026490066225	0.0354966887417219	0.197933774834437	-4.5282119205298	1.45192052980132	-0.897483443708608				0.319788079470199	-0.238834437086093	-0.900238410596026	10.1003973509934	-6.56238410596027	26.965298013245			
39	800	-0.232158940397351	0.146754966887417	-0.935523178807947	-5.56662251655629	4.3353642384106	4.13509933774834				1.00895364238411	0.0797880794701987	0.221139072847682	-6.56609271523179	-4.73218543046358	-0.86596026490066				-0.250172185430464	-0.129271523178808	-0.85594701986755	1.12741721854305	0.706490066225167	-2.72026490066225				0.496529801324503	-0.208529801324503	-0.853721854304636	9.20291390728477	-12.4164238410596	0.784370860927152				0.948026490066225	0.0514966887417219	0.181933774834437	-3.6882119205298	-0.788079470198675	-0.897483443708608				0.351788079470199	-0.254834437086093	-0.932238410596026	19.3403973509934	-14.6823841059603	25.005298013245			
40	820	-0.216158940397351	0.146754966887417	-0.935523178807947	-7.80662251655629	4.0553642384106	4.69509933774834				0.976953642384106	0.0797880794701987	0.221139072847682	-1.80609271523179	-15.6521854304636	-1.42596026490066				-0.218172185430464	-0.145271523178808	-0.87194701986755	1.68741721854305	2.38649006622517	-1.60026490066225				0.560529801324503	-0.256529801324503	-0.917721854304636	15.0829139072848	-15.7764238410596	-1.45562913907285				0.964026490066225	0.0354966887417219	0.165933774834437	-0.328211920529802	-1.90807947019868	-1.45748344370861				0.367788079470199	-0.302834437086093	-0.980238410596026	16.5403973509934	-14.6823841059603	32.285298013245			
41	840	-0.200158940397351	0.146754966887417	-0.967523178807947	-8.64662251655629	3.7753642384106	7.21509933774835				1.00895364238411	0.0797880794701987	0.125139072847682	3.79390728476821	-19.5721854304636	-0.585960264900661				-0.202172185430464	-0.193271523178808	-0.85594701986755	6.16741721854305	0.426490066225167	-0.48026490066225				0.624529801324503	-0.272529801324503	-0.917721854304636	2.48291390728477	-35.9364238410596	-4.25562913907285				0.964026490066225	0.0674966887417219	0.165933774834437	-2.0082119205298	0.611920529801325	-1.17748344370861				0.367788079470199	-0.302834437086093	-0.980238410596026	17.1003973509934	-23.9223841059603	41.525298013245			
42	860	-0.200158940397351	0.130754966887417	-0.935523178807947	-14.5266225165563	2.9353642384106	9.45509933774835				1.12095364238411	0.0477880794701987	0.125139072847682	7.71390728476821	-37.4921854304636	3.33403973509934				-0.202172185430464	-0.241271523178808	-0.83994701986755	2.80741721854305	-2.65350993377483	1.19973509933775				0.624529801324503	-0.288529801324503	-0.997721854304636	-16.5570860927152	-55.2564238410596	-1.17562913907285				1.01202649006623	0.0834966887417219	0.165933774834437	-0.328211920529802	2.57192052980133	1.34251655629139				0.383788079470199	-0.302834437086093	-1.02823841059603	11.5003973509934	-34.8423841059603	44.885298013245			
43	880	-0.232158940397351	0.130754966887417	-0.967523178807947	-18.4466225165563	0.415364238410596	10.0150993377483				1.00895364238411	0.0477880794701987	0.0131390728476822	15.5539072847682	-79.4921854304636	4.17403973509934				-0.202172185430464	-0.305271523178808	-0.83994701986755	-1.95258278145695	-0.693509933774834	5.11973509933775				0.560529801324503	-0.320529801324503	-1.14172185430464	-3.11708609271523	-66.7364238410596	-5.37562913907285				1.01202649006623	0.0674966887417219	0.133933774834437	3.3117880794702	-1.06807947019868	1.34251655629139				0.367788079470199	-0.222834437086093	-1.09223841059603	17.9403973509934	-41.2823841059603	50.205298013245			
44	900	-0.232158940397351	0.162754966887417	-0.967523178807947	-26.2866225165563	2.9353642384106	13.0950993377483				0.960953642384106	-0.000211920529801304	-0.00286092715231785	6.59390728476821	-53.7321854304636	8.65403973509934				-0.234172185430464	-0.257271523178808	-0.82394701986755	-4.75258278145695	-0.973509933774833	7.63973509933775				0.512529801324503	-0.288529801324503	-1.12572185430464	-19.6370860927152	-97.5364238410596	-5.09562913907285				0.980026490066225	0.0514966887417219	0.101933774834437	7.5117880794702	1.17192052980133	-0.617483443708608				0.271788079470199	-0.238834437086093	-1.09223841059603	41.1803973509934	-65.0823841059603	49.085298013245			
45	920	-0.312158940397351	0.114754966887417	-0.951523178807947	-32.4466225165563	3.4953642384106	14.2150993377483				1.08895364238411	0.0477880794701987	0.0931390728476822	2.67390728476821	-52.8921854304636	6.97403973509934				0	0	0	0	0	0				0.480529801324503	-0.320529801324503	-1.09372185430464	-52.6770860927152	-133.65642384106	-11.8156291390728				1.02802649006623	0.0194966887417219	0.0379337748344371	11.9917880794702	7.05192052980133	0.222516556291392				0.191788079470199	-0.334834437086093	-1.09223841059603	42.0203973509934	-86.9223841059603	55.245298013245			
46	940	0	0	0	0	0	0				0	0	0	0	0	0				0	0	0	0	0	0				0.400529801324503	-0.240529801324503	-1.07772185430464	-75.9170860927152	-153.81642384106	-28.3356291390729				1.07602649006623	0.00349668874172187	0.0219337748344371	12.5517880794702	9.57192052980133	-0.897483443708608				0.175788079470199	-0.398834437086093	-1.06023841059603	41.1803973509934	-102.04238410596	77.365298013245			
47	960	0	0	0	0	0	0				0	0	0	0	0	0				-0.394172185430464	-0.0972715231788079	-0.91994701986755	-0.552582781456954	1.82649006622517	4.27973509933775				0.0805298013245033	-0.368529801324503	-1.15772185430464	-63.3170860927152	-154.65642384106	-34.7756291390728				1.18802649006623	-0.0285033112582781	-0.0260662251655629	11.7117880794702	14.3319205298013	0.782516556291392				0.0797880794701987	-0.382834437086093	-1.20423841059603	-5.01960264900662	-86.0823841059603	93.605298013245			
48	980	-0.360158940397351	0.146754966887417	-0.871523178807947	-51.7666225165563	-2.1046357615894	14.7750993377483				0.960953642384106	0.0157880794701987	-0.162860927152318	-16.0860927152318	11.7878145695364	9.49403973509934				-0.362172185430464	-0.0652715231788079	-0.87194701986755	-1.67258278145695	1.82649006622517	0.91973509933775				-0.0314701986754967	-0.352529801324503	-0.997721854304636	-112.317086092715	-164.73642384106	-28.6156291390729				1.10802649006623	-0.0125033112582781	-0.0740662251655629	8.9117880794702	17.1319205298013	4.14251655629139				0.0797880794701987	-0.222834437086093	-1.07623841059603	3.10039735099338	-72.6423841059603	95.005298013245			
49	1000	-0.456158940397351	0.194754966887417	-0.839523178807947	-36.3666225165563	-1.2646357615894	10.2950993377483				0.944953642384106	0.127788079470199	0.0931390728476822	6.59390728476821	28.8678145695364	9.77403973509934				-0.378172185430464	-0.129271523178808	-0.96794701986755	0.287417218543046	2.94649006622517	-4.96026490066225				-0.0634701986754967	-0.0485298013245033	-0.853721854304636	-142.557086092715	-179.85642384106	-52.4156291390729				0.996026490066225	0.0354966887417219	-0.0740662251655629	-10.1282119205298	12.0919205298013	6.38251655629139				-0.0802119205298013	-0.174834437086093	-0.964238410596026	40.3403973509934	-85.2423841059603	105.085298013245			
50	1020	-0.488158940397351	0.178754966887417	-0.903523178807947	-30.7666225165563	11.8953642384106	8.89509933774834				1.00895364238411	0.0637880794701987	-0.0668609271523178	9.95390728476821	32.5078145695364	15.0940397350993				-0.378172185430464	-0.193271523178808	-1.04794701986755	7.84741721854305	6.58649006622517	-5.52026490066225				-0.0794701986754967	0.111470198675497	-0.821721854304636	-108.397086092715	-165.29642384106	-71.4556291390729				0.996026490066225	0.131496688741722	-0.0740662251655629	-13.4882119205298	7.89192052980133	4.14251655629139				-0.224211920529801	-0.318834437086093	-0.916238410596027	62.7403973509934	-93.6423841059603	124.965298013245			
51	1040	-0.344158940397351	0.242754966887417	-0.887523178807947	-35.5266225165563	51.0953642384106	12.5350993377483				1.02495364238411	0.127788079470199	-0.0988609271523179	-14.1260927152318	73.1078145695364	13.4140397350993				-0.314172185430464	-0.241271523178808	-1.06394701986755	12.887417218543	18.6264900662252	-2.16026490066225				-0.143470198675497	-0.0325298013245033	-0.837721854304636	-71.9970860927152	-127.77642384106	-63.3356291390729				1.10802649006623	0.131496688741722	0.0539337748344371	-10.1282119205298	-0.228079470198675	9.74251655629139				-0.240211920529801	-0.318834437086093	-0.996238410596026	37.8203973509934	-75.7223841059603	134.205298013245			
52	1060	-0.232158940397351	0.386754966887417	-0.951523178807947	-22.0866225165563	43.8153642384106	8.33509933774834				1.16895364238411	0.223788079470199	0.109139072847682	-8.80609271523179	94.1078145695364	19.0140397350993				-0.362172185430464	-0.209271523178808	-0.90394701986755	6.44741721854305	25.3464900662252	-2.44026490066225				-0.223470198675497	-0.0645298013245033	-0.933721854304636	-40.0770860927152	-92.2164238410596	-30.2956291390729				1.23602649006623	0.0834966887417219	0.197933774834437	-1.1682119205298	3.13192052980133	8.06251655629139				-0.144211920529801	-0.190834437086093	-0.964238410596026	57.7003973509934	-43.8023841059603	117.125298013245			
53	1080	-0.168158940397351	0.466754966887417	-1.33552317880795	-20.4066225165563	29.2553642384106	17.2950993377483				1.40895364238411	0.0957880794701987	0.381139072847682	9.95390728476821	87.9478145695364	22.9340397350993				-0.634172185430464	-0.0332715231788079	-1.09594701986755	-5.59258278145695	36.5464900662252	-8.32026490066225				-0.143470198675497	0.191470198675497	-1.02972185430464	-10.9570860927152	-57.4964238410596	-9.85562913907285				1.26802649006623	0.0994966887417219	0.341933774834437	2.4717880794702	12.6519205298013	7.78251655629139				-0.176211920529801	-0.414834437086093	-0.836238410596026	71.9803973509934	-41.8423841059603	94.4452980132451			
54	1100	-0.520158940397351	0.0827549668874172	-1.11152317880795	13.1933774834437	52.2153642384106	25.4150993377483				1.53695364238411	-0.128211920529801	0.461139072847682	1.55390728476821	84.3078145695364	12.8540397350993				-0.378172185430464	-0.0332715231788079	-1.06394701986755	-0.832582781456954	45.5064900662252	-4.68026490066225				0.0485298013245033	0.271470198675497	-1.12572185430464	32.4429139072848	-28.0964238410596	-5.65562913907285				1.20402649006623	0.0834966887417219	0.469933774834437	14.2317880794702	18.8119205298013	15.6225165562914				-0.000211920529801336	-0.670834437086093	-0.788238410596027	46.7803973509934	-35.9623841059603	71.765298013245			
55	1120	-0.312158940397351	0.402754966887417	-0.999523178807947	0.0333774834437086	56.9753642384106	36.0550993377484				1.50495364238411	-0.000211920529801304	0.813139072847682	-15.8060927152318	84.8678145695364	-5.06596026490066				-0.218172185430464	-0.241271523178808	-1.12794701986755	2.80741721854305	60.0664900662252	-10.5602649006623				0.272529801324503	0.111470198675497	-1.33372185430464	57.0829139072848	-17.4564238410596	5.26437086092715				1.28402649006623	-0.0445033112582781	0.693933774834437	18.1517880794702	23.5719205298013	13.3825165562914				0.0477880794701987	-0.686834437086093	-0.996238410596026	-16.4996026490066	17.7976158940397	48.805298013245			
56	1140	-0.056158940397351	0.498754966887417	-1.06352317880795	11.5133774834437	64.5353642384106	33.5350993377483				1.39295364238411	-0.0642119205298013	0.669139072847682	-7.12609271523179	33.0678145695364	0.53403973509934				-0.138172185430464	-0.209271523178808	-1.09594701986755	-8.39258278145695	68.7464900662252	-15.6002649006622				0.288529801324503	-0.0165298013245033	-1.47772185430464	37.4829139072848	-15.4964238410596	15.9043708609272				1.18802649006623	0.0514966887417219	0.821933774834437	7.5117880794702	6.49192052980132	4.70251655629139				0.127788079470199	-0.494834437086093	-0.916238410596027	-31.3396026490066	41.3176158940397	36.205298013245			
57	1160	0.055841059602649	0.434754966887417	-1.06352317880795	44.5533774834437	78.2553642384106	28.2150993377483				1.34495364238411	-0.000211920529801304	0.525139072847682	-5.16609271523179	26.3478145695364	-5.62596026490066				-0.0901721854304636	-0.0652715231788079	-1.03194701986755	-12.592582781457	76.8664900662252	-15.6002649006622				0.256529801324503	0.0314701986754967	-1.30172185430464	-26.6370860927152	-5.9764238410596	14.7843708609272				1.20402649006623	0.115496688741722	0.613933774834437	-10.9682119205298	15.7319205298013	0.782516556291392				0.0957880794701987	-0.590834437086093	-0.836238410596026	-16.2196026490066	46.3576158940397	9.88529801324503			
58	1180	0.215841059602649	0.386754966887417	-1.03152317880795	57.9933774834437	87.7753642384106	26.8150993377483				1.28095364238411	0.223788079470199	0.509139072847682	6.03390728476821	10.6678145695364	-1.14596026490066				-0.0421721854304636	-0.161271523178808	-1.12794701986755	9.52741721854305	83.3064900662252	-16.4402649006623				0.208529801324503	0.255470198675497	-1.23772185430464	-50.7170860927152	7.4635761589404	19.5443708609272				1.20402649006623	0.227496688741722	0.517933774834437	-9.0082119205298	8.17192052980133	2.46251655629139				0.207788079470199	-0.910834437086093	-0.804238410596027	13.4603973509934	46.3576158940397	0.0852980132450323			
59	1200	0.311841059602649	0.178754966887417	-1.12752317880795	59.9533774834437	91.4153642384106	25.4150993377483				1.20095364238411	0.0797880794701987	0.589139072847682	-5.72609271523179	7.02781456953642	9.21403973509934				0.0218278145695364	-0.209271523178808	-1.03194701986755	13.167417218543	94.7864900662252	-16.7202649006623				0.160529801324503	0.351470198675497	-1.15772185430464	-25.7970860927152	25.9435761589404	33.8243708609272				1.25202649006623	0.179496688741722	0.549933774834437	-8.1682119205298	12.6519205298013	0.782516556291392				0.175788079470199	-0.942834437086093	-1.06023841059603	-6.97960264900662	56.1576158940397	-12.514701986755			
60	1220	0.199841059602649	0.0827549668874172	-1.14352317880795	24.3933774834437	91.4153642384106	20.0950993377483				1.32895364238411	-0.0642119205298013	0.637139072847682	11.0739072847682	-9.49218543046358	12.8540397350993				0.117827814569536	-0.369271523178808	-1.04794701986755	8.40741721854305	103.746490066225	-20.6402649006623				0.0805298013245033	0.239470198675497	-1.12572185430464	10.0429139072848	42.7435761589404	41.6643708609272				1.20402649006623	0.0674966887417219	0.645933774834437	-2.8482119205298	12.9319205298013	1.62251655629139				0.0957880794701987	-0.686834437086093	-1.23623841059603	-8.37960264900662	68.1976158940397	-11.114701986755			
61	1240	0.199841059602649	0.274754966887417	-1.11152317880795	10.1133774834437	98.4153642384106	15.6150993377483				1.32895364238411	-0.0802119205298013	0.461139072847682	9.11390728476821	-32.1721854304636	15.3740397350993				0.245827814569536	-0.289271523178808	-0.95194701986755	-4.75258278145695	114.106490066225	-26.8002649006623				0.144529801324503	0.0954701986754967	-1.20572185430464	26.2829139072848	60.9435761589404	46.7043708609272				1.25202649006623	0.0354966887417219	0.469933774834437	-9.5682119205298	16.8519205298013	1.06251655629139				0.0637880794701987	-0.510834437086093	-1.28423841059603	9.82039735099338	58.6776158940397	4.84529801324503			
62	1260	0.183841059602649	0.290754966887417	-1.04752317880795	0.873377483443709	112.415364238411	13.0950993377483				1.28095364238411	-0.0802119205298013	0.205139072847682	-5.16609271523179	-35.8121854304636	13.6940397350993				0.165827814569536	-0.0972715231788079	-0.96794701986755	8.68741721854305	119.986490066225	-26.2402649006623				0.112529801324503	-0.0325298013245033	-1.20572185430464	20.4029139072848	78.5835761589404	50.3443708609272				1.26802649006623	-0.0285033112582781	0.293933774834437	0.511788079470198	14.0519205298013	8.62251655629139				0.0797880794701987	-0.574834437086093	-1.07623841059603	5.34039735099338	43.8376158940397	22.765298013245			
63	1280	0.151841059602649	0.226754966887417	-1.04752317880795	-4.44662251655629	129.775364238411	13.6550993377483				1.29695364238411	-0.0802119205298013	0.349139072847682	-2.64609271523179	-30.2121854304636	4.73403973509934				0.117827814569536	-0.209271523178808	-0.91994701986755	19.607417218543	123.906490066225	-20.0802649006623				0.0325298013245033	-0.0325298013245033	-1.07772185430464	8.08291390728477	92.3035761589404	49.5043708609272				1.15602649006623	-0.0285033112582781	0.293933774834437	13.9517880794702	21.0519205298013	12.2625165562914				0.0637880794701987	-0.654834437086093	-0.948238410596026	-12.2996026490066	59.2376158940397	19.965298013245			
64	1300	0.071841059602649	0.258754966887417	-0.983523178807947	1.43337748344371	140.975364238411	15.6150993377483				1.23295364238411	-0.0322119205298013	0.317139072847682	21.4339072847682	-49.5321854304636	3.61403973509934				0.165827814569536	-0.241271523178808	-0.91994701986755	7.84741721854305	127.266490066225	-18.4002649006623				0.0485298013245033	-0.0645298013245033	-1.07772185430464	14.2429139072848	87.2635761589404	46.7043708609272				1.06002649006623	-0.108503311258278	0.309933774834437	5.8317880794702	32.8119205298013	10.5825165562914				-0.0162119205298013	-0.542834437086093	-0.916238410596027	-13.6996026490066	71.8376158940397	-6.91470198675497			
65	1320	0.087841059602649	0.258754966887417	-0.903523178807947	13.7533774834437	144.615364238411	14.4950993377483				1.15295364238411	-0.000211920529801304	0.0611390728476822	20.3139072847682	-46.4521854304636	6.69403973509934				0.149827814569536	-0.193271523178808	-0.87194701986755	1.40741721854305	128.946490066225	-17.0002649006623				0.112529801324503	-0.0965298013245033	-1.04572185430464	20.1229139072848	94.5435761589404	42.7843708609272				1.02802649006623	-0.140503311258278	0.389933774834437	-9.2882119205298	30.5719205298013	0.782516556291392				-0.0642119205298013	-0.318834437086093	-0.772238410596026	3.10039735099338	81.9176158940397	-20.914701986755			
66	1340	0.199841059602649	0.162754966887417	-0.887523178807947	20.7533774834437	146.295364238411	14.2150993377483				1.00895364238411	-0.0322119205298013	0.0451390728476822	-10.2060927152318	-39.4521854304636	1.09403973509934				0.181827814569536	-0.145271523178808	-0.80794701986755	-5.59258278145695	130.626490066225	-15.0402649006623				0.144529801324503	-0.0165298013245033	-0.965721854304636	18.7229139072848	111.62357615894	31.8643708609272				1.04402649006623	-0.0445033112582781	0.277933774834437	-16.5682119205298	15.1719205298013	-3.41748344370861				-0.0802119205298013	-0.238834437086093	-0.708238410596026	10.1003973509934	91.9976158940397	-24.554701986755			
67	1360	0.247841059602649	0.0347549668874172	-0.871523178807947	17.6733774834437	144.335364238411	16.1750993377483				0.848953642384106	-0.0802119205298013	0.0131390728476822	-10.7660927152318	-47.2921854304636	0.81403973509934				0.261827814569536	-0.0812715231788079	-0.74394701986755	-2.51258278145695	131.186490066225	-11.9602649006623				0.144529801324503	0.0314701986754967	-0.837721854304636	20.4029139072848	121.14357615894	23.4643708609272				0.964026490066225	0.00349668874172187	0.181933774834437	-18.5282119205298	1.45192052980132	-2.57748344370861				0.0157880794701987	-0.286834437086093	-0.628238410596026	22.7003973509934	104.59761589404	-39.674701986755			
68	1380	0.295841059602649	0.00275496688741723	-0.839523178807947	17.3933774834437	139.855364238411	15.6150993377483				0.912953642384106	0.0157880794701987	0.0131390728476822	-8.52609271523179	-36.3721854304636	1.93403973509934				0.277827814569536	-0.113271523178808	-0.72794701986755	-1.95258278145695	136.506490066225	-11.4002649006623				0.208529801324503	0.0794701986754967	-0.741721854304636	40.0029139072848	129.82357615894	17.3043708609272				0.836026490066225	0.0194966887417219	0.149933774834437	-10.9682119205298	9.29192052980133	-0.897483443708608				0.159788079470199	-0.286834437086093	-0.612238410596026	36.1403973509934	106.27761589404	-62.634701986755			
69	1400	0.327841059602649	0.0347549668874172	-0.791523178807947	11.7933774834437	133.695364238411	15.0550993377483				0.896953642384106	0.111788079470199	-0.0508609271523178	-11.8860927152318	-41.9721854304636	-2.82596026490066				0.341827814569536	-0.113271523178808	-0.75994701986755	-2.51258278145695	141.546490066225	-10.0002649006623				0.288529801324503	0.0794701986754967	-0.629721854304636	47.5629139072848	135.42357615894	8.90437086092715				0.836026490066225	-0.0125033112582781	0.197933774834437	-5.6482119205298	2.01192052980133	0.782516556291392				0.191788079470199	-0.366834437086093	-0.564238410596026	29.1403973509934	112.43761589404	-73.274701986755			
70	1420	0.343841059602649	0.0507549668874172	-0.791523178807947	7.31337748344371	126.415364238411	14.2150993377483				0.784953642384106	0.111788079470199	-0.0988609271523179	-11.6060927152318	-50.3721854304636	-3.10596026490066				0.309827814569536	-0.193271523178808	-0.69594701986755	-6.15258278145695	147.986490066225	-11.6802649006622				0.288529801324503	0.0154701986754967	-0.581721854304636	53.4429139072848	136.82357615894	5.82437086092715				0.804026490066225	0.00349668874172187	0.213933774834437	-20.2082119205298	-12.2680794701987	-3.97748344370861				0.159788079470199	-0.366834437086093	-0.644238410596026	10.9403973509934	111.87761589404	-81.954701986755			
71	1440	0.343841059602649	0.178754966887417	-0.743523178807947	-3.88662251655629	117.175364238411	20.0950993377483				0.736953642384106	-0.0482119205298013	-0.0348609271523178	-12.1660927152318	-56.8121854304636	6.97403973509934				0.405827814569536	-0.193271523178808	-0.58394701986755	-26.032582781457	155.826490066225	-3.56026490066225				0.304529801324503	-0.0485298013245033	-0.613721854304636	65.7629139072848	134.58357615894	7.78437086092715				0.740026490066225	0.0354966887417219	0.245933774834437	-16.0082119205298	-32.1480794701987	-0.897483443708608				0.271788079470199	-0.318834437086093	-0.740238410596026	12.9003973509934	128.67761589404	-75.514701986755			
72	1460	0.343841059602649	0.130754966887417	-0.727523178807947	-8.36662251655629	124.455364238411	21.4950993377483				0.704953642384106	-0.0642119205298013	-0.0988609271523179	-14.1260927152318	-52.8921854304636	-1.70596026490066				0.501827814569536	-0.145271523178808	-0.56794701986755	-50.672582781457	154.986490066225	3.43973509933775				0.320529801324503	-0.0805298013245033	-0.629721854304636	83.6829139072848	129.54357615894	6.10437086092715				0.740026490066225	0.0354966887417219	0.133933774834437	-28.8882119205298	-29.3480794701987	4.70251655629139				0.415788079470199	-0.414834437086093	-0.740238410596026	2.54039735099338	112.99761589404	-56.194701986755			
73	1480	0.471841059602649	0.130754966887417	-0.647523178807947	-5.56662251655629	131.455364238411	18.9750993377483				0.736953642384106	0.0157880794701987	-0.178860927152318	-16.0860927152318	-49.2521854304636	-8.98596026490066				0.549827814569536	-0.0332715231788079	-0.51994701986755	-49.832582781457	156.386490066225	2.59973509933775				0.384529801324503	-0.128529801324503	-0.645721854304636	89.8429139072848	125.90357615894	1.34437086092715				0.772026490066225	-0.0285033112582781	0.0699337748344371	-18.8082119205298	-38.5880794701987	12.2625165562914				0.511788079470199	-0.334834437086093	-0.788238410596027	9.82039735099338	80.2376158940397	-47.794701986755			
74	1500	0.567841059602649	0.162754966887417	-0.551523178807947	-5.56662251655629	133.415364238411	18.9750993377483				0.720953642384106	-0.0322119205298013	-0.0508609271523178	-18.0460927152318	-40.5721854304636	-0.86596026490066				0.501827814569536	-0.0332715231788079	-0.61594701986755	-43.392582781457	149.106490066225	-1.60026490066225				0.352529801324503	-0.208529801324503	-0.645721854304636	85.9229139072848	114.14357615894	5.82437086092715				0.740026490066225	-0.0125033112582781	0.133933774834437	-9.2882119205298	-48.9480794701987	14.5025165562914				0.415788079470199	-0.318834437086093	-0.628238410596026	-12.0196026490066	67.9176158940397	-50.314701986755			
75	1520	0.503841059602649	0.194754966887417	-0.615523178807947	-15.6466225165563	127.535364238411	20.6550993377483				0.624953642384106	-0.0162119205298013	-0.00286092715231785	-14.1260927152318	-58.4921854304636	-2.82596026490066				0.581827814569536	0.0787284768211921	-0.61594701986755	-46.192582781457	142.946490066225	-1.04026490066225				0.288529801324503	-0.352529801324503	-0.613721854304636	68.8429139072848	95.3835761589404	10.0243708609272				0.644026490066225	-0.0765033112582781	0.101933774834437	-16.2882119205298	-66.8680794701987	18.9825165562914				0.335788079470199	-0.318834437086093	-0.596238410596026	-19.0196026490066	71.5576158940397	-43.874701986755			
76	1540	0.567841059602649	0.242754966887417	-0.471523178807947	-12.2866225165563	122.775364238411	15.6150993377483				0.560953642384106	0.0957880794701987	-0.162860927152318	-5.44609271523179	-51.2121854304636	-7.58596026490066				0.533827814569536	-0.00127152317880793	-0.51994701986755	-46.472582781457	143.226490066225	-8.32026490066225				0.256529801324503	-0.272529801324503	-0.629721854304636	58.7629139072848	79.7035761589404	3.30437086092715				0.644026490066225	-0.0605033112582781	0.00593377483443711	-29.1682119205298	-69.9480794701987	21.2225165562914				0.255788079470199	-0.238834437086093	-0.548238410596027	-16.4996026490066	57.2776158940397	-37.434701986755			
77	1560	0.615841059602649	0.258754966887417	-0.407523178807947	-2.76662251655629	126.695364238411	7.77509933774834				0.608953642384106	0.0637880794701987	-0.0508609271523178	-3.20609271523179	-21.5321854304636	-2.54596026490066				0.501827814569536	0.0147284768211921	-0.47194701986755	-45.352582781457	142.946490066225	-5.24026490066225				0.288529801324503	-0.192529801324503	-0.629721854304636	58.4829139072848	69.3435761589404	0.504370860927152				0.628026490066225	0.00349668874172187	-0.0260662251655629	-23.5682119205298	-58.7480794701987	17.5825165562914				0.207788079470199	-0.206834437086093	-0.548238410596027	-21.8196026490066	47.7576158940397	-46.394701986755			
78	1580	0.695841059602649	0.226754966887417	-0.455523178807947	5.63337748344371	122.495364238411	5.53509933774834				0.592953642384106	-0.128211920529801	0.0451390728476822	-14.1260927152318	-24.8921854304636	3.61403973509934				0.581827814569536	-0.00127152317880793	-0.50394701986755	-55.152582781457	140.426490066225	-5.80026490066225				0.368529801324503	-0.256529801324503	-0.661721854304636	57.6429139072848	58.7035761589404	-0.0556291390728476				0.548026490066225	0.0354966887417219	0.00593377483443711	-22.4482119205298	-52.3080794701987	15.6225165562914				0.223788079470199	-0.158834437086093	-0.612238410596026	-43.9396026490066	57.8376158940397	-46.394701986755			
79	1600	0.695841059602649	0.194754966887417	-0.391523178807947	18.5133774834437	115.495364238411	3.57509933774835				0.592953642384106	0.0477880794701987	-0.0348609271523178	-7.96609271523179	-20.9721854304636	-2.82596026490066				0.677827814569536	-0.0332715231788079	-0.47194701986755	-47.032582781457	127.266490066225	0.0797350993377501				0.432529801324503	-0.320529801324503	-0.613721854304636	47.8429139072848	55.3435761589404	1.34437086092715				0.596026490066225	-0.0765033112582781	-0.0100662251655629	-8.4482119205298	-53.4280794701987	15.9025165562914				0.271788079470199	-0.0948344370860927	-0.676238410596026	-34.1396026490066	55.0376158940397	-34.634701986755			
80	1620	0.695841059602649	0.178754966887417	-0.359523178807947	20.1933774834437	105.135364238411	-1.46490066225166				0.608953642384106	0.159788079470199	-0.0508609271523178	0.993907284768212	-17.3321854304636	-5.90596026490066				0.629827814569536	-0.0332715231788079	-0.45594701986755	-47.312582781457	117.466490066225	-5.80026490066225				0.480529801324503	-0.320529801324503	-0.517721854304636	31.8829139072848	42.7435761589404	-4.53562913907285				0.596026490066225	-0.0605033112582781	-0.0580662251655629	-10.9682119205298	-39.7080794701987	12.2625165562914				0.223788079470199	-0.110834437086093	-0.644238410596026	-11.1796026490066	40.4776158940397	-27.634701986755			
81	1640	0.727841059602649	0.178754966887417	-0.375523178807947	14.3133774834437	90.8553642384106	-3.14490066225166				0.496953642384106	-0.0162119205298013	-0.00286092715231785	5.19390728476821	-17.0521854304636	1.09403973509934				0.677827814569536	0.0467284768211921	-0.48794701986755	-39.472582781457	107.386490066225	-9.72026490066225				0.464529801324503	-0.288529801324503	-0.485721854304636	18.7229139072848	29.5835761589404	-6.77562913907285				0.564026490066225	0.0834966887417219	-0.0260662251655629	-9.2882119205298	-23.1880794701987	7.78251655629139				0.191788079470199	-0.174834437086093	-0.660238410596027	-6.41960264900662	31.5176158940397	-26.234701986755			
82	1660	0.679841059602649	0.162754966887417	-0.439523178807947	10.9533774834437	76.5753642384106	-1.18490066225166				0.592953642384106	0.0157880794701987	0.0611390728476822	9.95390728476821	2.26781456953642	2.21403973509934				0.901827814569536	0.0947284768211921	-0.56794701986755	-6.71258278145695	78.2664900662252	-10.8402649006623				0.480529801324503	-0.256529801324503	-0.485721854304636	14.8029139072848	19.2235761589404	1.06437086092715				0.564026490066225	-0.0605033112582781	0.00593377483443711	9.1917880794702	-21.5080794701987	8.90251655629139				0.239788079470199	-0.222834437086093	-0.596238410596026	-5.29960264900662	27.0376158940397	-24.834701986755			
83	1680	0.759841059602649	0.0827549668874172	-0.487523178807947	26.6333774834437	69.2953642384106	-3.42490066225166				0.640953642384106	0.0797880794701987	0.0131390728476822	11.9139072847682	-2.49218543046358	-2.82596026490066				0.773827814569536	0.0947284768211921	-0.56794701986755	34.7274172185431	43.2664900662252	-13.0802649006623				0.512529801324503	-0.272529801324503	-0.469721854304636	19.0029139072848	11.6635761589404	4.70437086092715				0.660026490066225	-0.108503311258278	0.00593377483443711	12.8317880794702	-9.46807947019868	6.66251655629139				0.319788079470199	-0.318834437086093	-0.612238410596026	-17.3396026490066	19.1976158940397	-11.394701986755			
84	1700	0.775841059602649	0.0827549668874172	-0.471523178807947	18.2333774834437	49.6953642384106	-1.74490066225166				0.608953642384106	0.0317880794701987	-0.0988609271523179	-3.20609271523179	5.06781456953642	-4.78596026490066				0.693827814569536	-0.00127152317880793	-0.59994701986755	42.8474172185431	19.7464900662252	-5.24026490066225				0.560529801324503	-0.256529801324503	-0.517721854304636	25.4429139072848	6.3435761589404	4.70437086092715				0.676026490066225	-0.0605033112582781	0.133933774834437	12.5517880794702	-6.10807947019868	0.782516556291392				0.399788079470199	-0.350834437086093	-0.644238410596026	-17.0596026490066	6.31761589403974	-6.07470198675497			
85	1720	0.743841059602649	0.0507549668874172	-0.503523178807947	10.3933774834437	32.3353642384106	1.05509933774834				0.720953642384106	-0.0322119205298013	0.0771390728476822	-3.20609271523179	20.1878145695364	-4.22596026490066				0.821827814569536	-0.0972715231788079	-0.50394701986755	33.0474172185431	16.1064900662252	3.99973509933775				0.576529801324503	-0.320529801324503	-0.549721854304636	19.8429139072848	5.2235761589404	7.78437086092715				0.676026490066225	-0.0445033112582781	0.117933774834437	6.3917880794702	-20.6680794701987	-1.17748344370861				0.447788079470199	-0.254834437086093	-0.612238410596026	-18.1796026490066	7.99761589403974	-6.07470198675497			
86	1740	0.791841059602649	0.0347549668874172	-0.519523178807947	8.43337748344371	22.8153642384106	-0.624900662251656				0.864953642384106	-0.0322119205298013	0.0771390728476822	19.1939072847682	8.98781456953643	-4.78596026490066				0.885827814569536	-0.145271523178808	-0.35994701986755	36.6874172185431	10.7864900662252	0.63973509933775				0.608529801324503	-0.336529801324503	-0.549721854304636	10.6029139072848	-5.1364238410596	9.74437086092715				0.756026490066225	-0.124503311258278	0.0379337748344371	14.2317880794702	-10.5880794701987	-0.337483443708608				0.479788079470199	-0.222834437086093	-0.644238410596026	-15.0996026490066	5.19761589403974	-0.754701986754968			
87	1760	0.855841059602649	0.0667549668874172	-0.583523178807947	14.5933774834437	18.6153642384106	-5.38490066225166				0.992953642384106	0.0157880794701987	-0.0348609271523178	27.0339072847682	-2.77218543046358	-8.14596026490066				0.821827814569536	-0.241271523178808	-0.31194701986755	33.327417218543	9.10649006622517	-3.28026490066225				0.656529801324503	-0.272529801324503	-0.597721854304636	3.60291390728477	-16.8964238410596	6.38437086092715				0.852026490066225	-0.108503311258278	0.149933774834437	20.1117880794702	9.85192052980133	-3.13748344370861				0.511788079470199	-0.286834437086093	-0.676238410596026	5.06039735099338	-9.08238410596027	0.365298013245032			
88	1780	0.919841059602649	0.00275496688741723	-0.503523178807947	24.3933774834437	12.1753642384106	-9.02490066225166				1.04095364238411	-0.0482119205298013	-0.0348609271523178	4.63390728476821	5.90781456953642	-6.46596026490066				0.853827814569536	-0.241271523178808	-0.16794701986755	8.40741721854305	10.2264900662252	-0.20026490066225				0.688529801324503	-0.256529801324503	-0.645721854304636	-2.27708609271523	-18.0164238410596	1.34437086092715				0.996026490066225	0.00349668874172187	0.213933774834437	12.5517880794702	5.93192052980133	-4.25748344370861				0.607788079470199	-0.350834437086093	-0.724238410596026	4.50039735099338	-13.2823841059603	-2.99470198675497			
89	1800	0.775841059602649	-0.0932450331125828	-0.455523178807947	19.0733774834437	2.6553642384106	-3.14490066225166				1.05695364238411	-0.144211920529801	0.0451390728476822	2.39390728476821	9.82781456953643	1.65403973509934				1.06182781456954	-0.193271523178808	-0.10394701986755	3.64741721854305	11.6264900662252	-0.76026490066225				0.736529801324503	-0.240529801324503	-0.677721854304636	-4.51708609271523	-9.3364238410596	-2.57562913907285				1.09202649006623	-0.0445033112582781	0.133933774834437	12.5517880794702	1.73192052980133	-0.897483443708608				0.671788079470199	-0.334834437086093	-0.740238410596026	-2.21960264900662	-7.12238410596027	-4.67470198675497			
90	1820	0.823841059602649	-0.157245033112583	-0.343523178807947	10.3933774834437	11.8953642384106	0.775099337748344				1.05695364238411	-0.000211920529801304	0.141139072847682	11.0739072847682	-3.89218543046358	2.21403973509934				1.01382781456954	-0.193271523178808	-0.21594701986755	3.92741721854305	15.2664900662252	-1.60026490066225				0.688529801324503	-0.224529801324503	-0.645721854304636	1.64291390728477	-0.9364238410596	-7.05562913907285				1.09202649006623	-0.124503311258278	0.117933774834437	17.8717880794702	-3.86807947019868	1.62251655629139				0.703788079470199	-0.334834437086093	-0.692238410596026	-11.4596026490066	7.71761589403974	2.60529801324503			
91	1840	1.07984105960265	-0.189245033112583	-0.391523178807947	-4.16662251655629	20.0153642384106	-0.0649006622516557				1.18495364238411	-0.0802119205298013	0.0771390728476822	-4.04609271523179	-7.25218543046358	6.69403973509934				0.965827814569536	-0.0652715231788079	-0.24794701986755	-2.23258278145695	19.4664900662252	-4.68026490066225				0.640529801324503	-0.256529801324503	-0.677721854304636	8.36291390728477	1.0235761589404	-12.0956291390728				1.10802649006623	-0.0285033112582781	0.0699337748344371	11.7117880794702	-8.62807947019868	1.06251655629139				0.623788079470199	-0.318834437086093	-0.676238410596026	-3.33960264900662	13.0376158940397	-1.31470198675497			
92	1860	0.887841059602649	-0.0772450331125828	-0.327523178807947	-19.2866225165563	24.2153642384106	3.57509933774835				1.08895364238411	-0.128211920529801	0.0131390728476822	-17.7660927152318	-9.49218543046358	11.4540397350993				0.933827814569536	-0.0812715231788079	-0.26394701986755	-9.51258278145695	28.4264900662252	-3.00026490066225				0.592529801324503	-0.288529801324503	-0.741721854304636	13.1229139072848	4.9435761589404	-15.4556291390728				1.02802649006623	-0.0925033112582781	0.117933774834437	4.4317880794702	-11.1480794701987	0.222516556291392				0.607788079470199	-0.302834437086093	-0.660238410596027	10.6603973509934	15.8376158940397	-9.43470198675497			
93	1880	0.791841059602649	0.0187549668874172	-0.295523178807947	-24.0466225165563	31.2153642384106	4.13509933774834				0.912953642384106	-0.0962119205298013	0.0131390728476822	-19.1660927152318	-6.13218543046358	11.1740397350993				0.869827814569536	-0.0332715231788079	-0.27994701986755	-17.352582781457	30.1064900662252	-4.40026490066225				0.528529801324503	-0.320529801324503	-0.709721854304636	12.5629139072848	11.1035761589404	-20.2156291390728				0.916026490066225	-0.156503311258278	0.101933774834437	1.0717880794702	-16.1880794701987	1.90251655629139				0.639788079470199	-0.286834437086093	-0.692238410596026	14.5803973509934	16.3976158940397	-4.39470198675497			
94	1900	0.871841059602649	0.162754966887417	-0.263523178807947	-30.2066225165563	31.4953642384106	7.21509933774835				0.864953642384106	0.0957880794701987	0.0131390728476822	-9.64609271523179	4.50781456953642	3.89403973509934				0.821827814569536	0.0627284768211921	-0.31194701986755	-21.832582781457	28.4264900662252	-6.92026490066225				0.512529801324503	-0.320529801324503	-0.693721854304636	5.56291390728477	10.5435761589404	-24.1356291390729				0.868026490066225	-0.0765033112582781	0.0699337748344371	-5.3682119205298	-12.8280794701987	1.62251655629139				0.623788079470199	-0.318834437086093	-0.660238410596027	14.8603973509934	16.6776158940397	-5.51470198675497			
95	1920	0.967841059602649	0.306754966887417	-0.327523178807947	-30.4866225165563	28.9753642384106	6.93509933774835				0.944953642384106	0.0637880794701987	0.0131390728476822	2.95390728476821	1.70781456953642	5.57403973509934				0.821827814569536	0.110728476821192	-0.34394701986755	-16.232582781457	21.7064900662252	-7.48026490066225				0.576529801324503	-0.304529801324503	-0.661721854304636	-3.67708609271523	7.1835761589404	-22.4556291390729				0.884026490066225	0.0194966887417219	0.0379337748344371	-9.2882119205298	-5.82807947019868	2.46251655629139				0.575788079470199	-0.302834437086093	-0.644238410596026	9.82039735099338	17.7976158940397	-7.75470198675497			
96	1940	0.903841059602649	0.322754966887417	-0.375523178807947	-19.2866225165563	23.6553642384106	6.37509933774834				0.912953642384106	-0.0162119205298013	-0.0188609271523178	-1.24609271523179	5.90781456953642	6.41403973509934				0.885827814569536	0.0467284768211921	-0.37594701986755	0.567417218543046	18.0664900662252	-9.72026490066225				0.624529801324503	-0.272529801324503	-0.613721854304636	-5.35708609271523	3.5435761589404	-16.8556291390729				0.868026490066225	-0.0125033112582781	0.0539337748344371	-0.608211920529802	3.41192052980132	4.14251655629139				0.559788079470199	-0.286834437086093	-0.676238410596026	3.94039735099338	16.1176158940397	-6.07470198675497			
97	1960	0.839841059602649	0.322754966887417	-0.279523178807947	-5.84662251655629	20.5753642384106	-0.0649006622516557				0.912953642384106	0.111788079470199	0.0611390728476822	0.993907284768212	9.26781456953642	-0.30596026490066				0.949827814569536	0.110728476821192	-0.39194701986755	10.647417218543	20.0264900662252	-10.8402649006623				0	0	0	0	0	0				0	0	0	0	0	0				0	0	0	0	0	0			
98	1980	0	0	0	0	0	0				0.960953642384106	0.223788079470199	-0.00286092715231785	9.95390728476821	8.98781456953643	-3.10596026490066				0.917827814569536	0.126728476821192	-0.35994701986755	10.927417218543	13.3064900662252	-8.88026490066225				0	0	0	0	0	0				0.916026490066225	0.00349668874172187	0.117933774834437	-2.5682119205298	7.33192052980133	0.782516556291392				0	0	0	0	0	0			
99	2000	0.919841059602649	0.274754966887417	-0.327523178807947	13.4733774834437	10.7753642384106	-5.66490066225166				1.00895364238411	0.0637880794701987	0.0131390728476822	18.6339072847682	9.26781456953642	-0.0259602649006601				0.917827814569536	0.0147284768211921	-0.37594701986755	21.287417218543	3.78649006622517	-3.56026490066225				0.752529801324503	-0.208529801324503	-0.629721854304636	-1.43708609271523	-4.0164238410596	-17.4156291390728				0.932026490066225	0.0514966887417219	0.117933774834437	-1.4482119205298	7.33192052980133	-0.337483443708608				0.575788079470199	-0.302834437086093	-0.660238410596027	10.3803973509934	3.79761589403974	-4.11470198675497			
100	2020	0.871841059602649	0.162754966887417	-0.263523178807947	21.0333774834437	10.4953642384106	-4.82490066225166				1.00895364238411	0.0317880794701987	0.0771390728476822	12.4739072847682	12.3478145695364	-0.30596026490066				0.949827814569536	-0.0492715231788079	-0.34394701986755	20.727417218543	4.06649006622517	-0.48026490066225				0.768529801324503	-0.208529801324503	-0.613721854304636	2.76291390728477	2.7035761589404	-16.5756291390728				0.916026490066225	0.00349668874172187	0.117933774834437	7.2317880794702	8.73192052980133	-2.85748344370861				0.575788079470199	-0.270834437086093	-0.692238410596026	1.98039735099338	6.59761589403974	-4.67470198675497			
101	2040	0.887841059602649	0.0827549668874172	-0.279523178807947	23.5533774834437	9.3753642384106	-5.66490066225166				0.912953642384106	0.127788079470199	0.0931390728476822	18.6339072847682	7.30781456953642	-4.22596026490066				0.917827814569536	-0.0492715231788079	-0.31194701986755	10.367417218543	4.90649006622517	1.75973509933775				0.736529801324503	-0.192529801324503	-0.613721854304636	2.20291390728477	4.3835761589404	-17.1356291390729				0.964026490066225	0.00349668874172187	0.117933774834437	11.4317880794702	10.9719205298013	-3.97748344370861				0.591788079470199	-0.238834437086093	-0.676238410596026	10.1003973509934	5.75761589403974	-6.07470198675497			
102	2060	0.951841059602649	0.0827549668874172	-0.311523178807947	20.7533774834437	9.0953642384106	-5.10490066225166				1.04095364238411	0.0477880794701987	0.0291390728476822	21.4339072847682	13.1878145695364	-1.14596026490066				0.917827814569536	0.0147284768211921	-0.26394701986755	2.52741721854305	4.62649006622517	1.19973509933775				0.752529801324503	-0.160529801324503	-0.629721854304636	-0.877086092715232	2.4235761589404	-17.6956291390729				0.996026490066225	0.0354966887417219	0.133933774834437	13.6717880794702	10.1319205298013	-4.81748344370861				0.607788079470199	-0.302834437086093	-0.628238410596026	14.8603973509934	1.27761589403974	-4.11470198675497			
103	2080	0.887841059602649	0.0667549668874172	-0.279523178807947	15.7133774834437	7.1353642384106	-2.58490066225166				0.976953642384106	-0.000211920529801304	-0.00286092715231785	15.5539072847682	8.42781456953642	-0.585960264900661				0.933827814569536	0.0147284768211921	-0.23194701986755	6.72741721854305	4.90649006622517	-1.04026490066225				0.736529801324503	-0.176529801324503	-0.645721854304636	6.12291390728477	3.8235761589404	-15.4556291390728				0.996026490066225	-0.0125033112582781	0.117933774834437	17.0317880794702	3.41192052980132	-5.37748344370861				0.639788079470199	-0.350834437086093	-0.644238410596026	1.14039735099338	2.67761589403974	-0.194701986754968			
104	2100	0.871841059602649	0.0507549668874172	-0.327523178807947	13.7533774834437	8.8153642384106	-1.18490066225166				0.944953642384106	0.0317880794701987	-0.0348609271523178	18.0739072847682	10.9478145695364	0.25403973509934				0.933827814569536	-0.00127152317880793	-0.23194701986755	15.967417218543	3.50649006622517	-1.60026490066225				0.672529801324503	-0.256529801324503	-0.677721854304636	12.0029139072848	6.3435761589404	-9.01562913907285				0.996026490066225	-0.0445033112582781	0.101933774834437	16.1917880794702	-1.62807947019868	-3.41748344370861				0.671788079470199	-0.302834437086093	-0.692238410596026	-3.33960264900662	2.95761589403974	-2.15470198675497			
105	2120	0.903841059602649	0.0667549668874172	-0.311523178807947	4.23337748344371	11.0553642384106	0.495099337748344				0.976953642384106	-0.000211920529801304	0.0131390728476822	19.1939072847682	22.9878145695364	-0.0259602649006601				0.901827814569536	-0.0332715231788079	-0.26394701986755	15.407417218543	2.66649006622517	-1.60026490066225				0.640529801324503	-0.256529801324503	-0.693721854304636	8.36291390728477	6.6235761589404	-9.29562913907285				0.996026490066225	-0.0605033112582781	0.0699337748344371	12.8317880794702	-4.70807947019868	-3.69748344370861				0.687788079470199	-0.286834437086093	-0.660238410596027	4.50039735099338	3.23761589403974	-5.23470198675497			
106	2140	0.951841059602649	0.0667549668874172	-0.311523178807947	8.15337748344371	18.3353642384106	0.495099337748344				1.04095364238411	-0.0802119205298013	0.0771390728476822	8.27390728476821	23.8278145695364	0.53403973509934				0.917827814569536	-0.0652715231788079	-0.24794701986755	6.16741721854305	4.34649006622517	1.47973509933775				0.608529801324503	-0.224529801324503	-0.693721854304636	2.48291390728477	4.1035761589404	-11.5356291390728				0.964026490066225	-0.0445033112582781	0.0859337748344371	13.1117880794702	-1.90807947019868	-2.57748344370861				0.687788079470199	-0.318834437086093	-0.676238410596026	4.22039735099338	3.51761589403974	-4.67470198675497			
107	2160	0.871841059602649	0.0347549668874172	-0.263523178807947	3.95337748344371	23.3753642384106	3.57509933774835				1.10495364238411	-0.0962119205298013	0.0771390728476822	2.67390728476821	5.90781456953642	1.37403973509934				0.965827814569536	-0.0652715231788079	-0.26394701986755	7.56741721854305	11.0664900662252	0.35973509933775				0.560529801324503	-0.272529801324503	-0.661721854304636	3.60291390728477	1.0235761589404	-6.21562913907285				0.980026490066225	-0.108503311258278	0.101933774834437	11.4317880794702	-0.228079470198675	0.222516556291392				0.671788079470199	-0.350834437086093	-0.676238410596026	7.02039735099338	4.07761589403974	-2.43470198675497			
108	2180	0.903841059602649	0.0347549668874172	-0.295523178807947	-2.48662251655629	25.6153642384106	3.29509933774834				0.992953642384106	0.0477880794701987	-0.0508609271523178	-0.966092715231788	-1.37218543046358	-4.78596026490066				0.917827814569536	-0.0492715231788079	-0.29594701986755	-2.51258278145695	10.2264900662252	-0.76026490066225				0.576529801324503	-0.336529801324503	-0.677721854304636	6.96291390728477	-0.0964238410596001	-3.41562913907285				0.996026490066225	-0.140503311258278	0.101933774834437	3.3117880794702	-3.30807947019868	1.06251655629139				0.687788079470199	-0.366834437086093	-0.676238410596026	5.62039735099338	3.51761589403974	-0.754701986754968			
109	2200	0.951841059602649	0.0987549668874172	-0.311523178807947	-9.76662251655629	29.5353642384106	2.17509933774834				0.928953642384106	-0.0162119205298013	-0.0348609271523178	6.59390728476821	7.86781456953642	-1.70596026490066				0.869827814569536	0.0147284768211921	-0.31194701986755	-7.27258278145696	9.38649006622517	-2.16026490066225				0.624529801324503	-0.288529801324503	-0.709721854304636	3.60291390728477	3.2635761589404	-5.65562913907285				0.964026490066225	-0.0285033112582781	0.0539337748344371	-4.2482119205298	-1.06807947019868	0.782516556291392				0.687788079470199	-0.350834437086093	-0.676238410596026	2.26039735099338	1.83761589403974	1.20529801324503			
110	2220	0.871841059602649	0.162754966887417	-0.295523178807947	-7.52662251655629	31.2153642384106	2.17509933774834				0.976953642384106	-0.0162119205298013	0.0451390728476822	8.83390728476821	9.54781456953642	-1.42596026490066				0.917827814569536	0.0147284768211921	-0.34394701986755	-1.95258278145695	7.14649006622517	-3.28026490066225				0.640529801324503	-0.256529801324503	-0.677721854304636	-3.95708609271523	5.5035761589404	-6.21562913907285				0.948026490066225	-0.0605033112582781	0.0539337748344371	-2.8482119205298	4.53192052980133	1.06251655629139				0.639788079470199	-0.318834437086093	-0.660238410596027	1.98039735099338	0.717615894039735	2.04529801324503			
111	2240	0.855841059602649	0.178754966887417	-0.295523178807947	-1.08662251655629	28.1353642384106	1.61509933774834				0.976953642384106	0.0637880794701987	-0.00286092715231785	-2.64609271523179	6.18781456953642	-4.78596026490066				0.949827814569536	-0.0172715231788079	-0.32794701986755	2.52741721854305	6.86649006622517	-0.48026490066225				0.640529801324503	-0.224529801324503	-0.629721854304636	-5.63708609271523	0.1835761589404	-5.37562913907285				0.964026490066225	-0.0765033112582781	0.117933774834437	-2.5682119205298	4.81192052980133	3.02251655629139				0.591788079470199	-0.318834437086093	-0.644238410596026	0.580397350993377	0.157615894039735	4.00529801324503			
112	2260	0.951841059602649	0.0987549668874172	-0.359523178807947	3.39337748344371	28.6953642384106	-0.0649006622516557				0.960953642384106	0.127788079470199	-0.0188609271523178	-4.04609271523179	15.9878145695364	-6.74596026490066				0.901827814569536	-0.0172715231788079	-0.35994701986755	2.52741721854305	3.22649006622517	1.19973509933775				0.672529801324503	-0.192529801324503	-0.629721854304636	1.08291390728477	-3.7364238410596	-3.41562913907285				0.932026490066225	-0.0125033112582781	0.101933774834437	-6.2082119205298	-2.18807947019868	3.02251655629139				0.591788079470199	-0.302834437086093	-0.644238410596026	3.10039735099338	-2.64238410596027	2.88529801324503			
113	2280	0.935841059602649	0.0827549668874172	-0.327523178807947	3.39337748344371	23.0953642384106	-0.0649006622516557				1.02495364238411	0.0157880794701987	0.0131390728476822	11.0739072847682	12.9078145695364	1.09403973509934				0.901827814569536	-0.00127152317880793	-0.32794701986755	7.28741721854305	1.82649006622517	-0.48026490066225				0.720529801324503	-0.208529801324503	-0.661721854304636	5.28291390728477	-2.8964238410596	-0.335629139072848				0.948026490066225	0.0354966887417219	0.0699337748344371	-5.9282119205298	-1.06807947019868	2.18251655629139				0.623788079470199	-0.270834437086093	-0.660238410596027	-1.65960264900662	-2.64238410596027	4.84529801324503			
114	2300	0.887841059602649	0.0347549668874172	-0.343523178807947	3.95337748344371	21.9753642384106	1.89509933774834				1.00895364238411	0.0157880794701987	0.0291390728476822	9.95390728476821	4.50781456953642	1.09403973509934				0.933827814569536	-0.0172715231788079	-0.26394701986755	9.80741721854305	6.58649006622517	0.63973509933775				0.736529801324503	-0.224529801324503	-0.645721854304636	1.64291390728477	-0.0964238410596001	2.74437086092715				0.948026490066225	-0.0285033112582781	0.0859337748344371	3.0317880794702	2.01192052980133	1.62251655629139				0.607788079470199	-0.270834437086093	-0.676238410596026	-0.539602649006623	0.997615894039735	6.52529801324503			
115	2320	0.903841059602649	0.0347549668874172	-0.327523178807947	0.313377483443709	18.6153642384106	2.17509933774834				0.992953642384106	0.111788079470199	0.0451390728476822	-0.406092715231788	3.94781456953642	-2.54596026490066				0.917827814569536	-0.0332715231788079	-0.27994701986755	7.00741721854305	7.98649006622517	2.03973509933775				0.704529801324503	-0.224529801324503	-0.645721854304636	-0.877086092715232	-1.7764238410596	2.18437086092715				0.996026490066225	-0.0125033112582781	0.101933774834437	3.0317880794702	0.0519205298013249	2.18251655629139				0.607788079470199	-0.286834437086093	-0.660238410596027	0.860397350993377	0.157615894039735	5.96529801324503			
116	2340	0.967841059602649	0.0667549668874172	-0.327523178807947	1.15337748344371	15.8153642384106	0.775099337748344				0.992953642384106	0.0317880794701987	0.0771390728476822	-0.966092715231788	8.98781456953643	1.93403973509934				0.917827814569536	-0.0492715231788079	-0.32794701986755	6.16741721854305	6.02649006622517	2.87973509933775				0.672529801324503	-0.208529801324503	-0.661721854304636	-0.317086092715232	-1.2164238410596	0.784370860927152				0.964026490066225	0.00349668874172187	0.101933774834437	2.7517880794702	-2.46807947019868	2.46251655629139				0.607788079470199	-0.302834437086093	-0.644238410596026	-1.65960264900662	-1.52238410596026	4.28529801324503			
117	2360	0.935841059602649	0.0987549668874172	-0.311523178807947	2.55337748344371	10.7753642384106	0.775099337748344				0.976953642384106	-0.0322119205298013	0.0771390728476822	10.5139072847682	5.06781456953642	6.97403973509934				0.917827814569536	-0.0492715231788079	-0.27994701986755	8.96741721854305	6.58649006622517	3.15973509933775				0.640529801324503	-0.208529801324503	-0.645721854304636	2.76291390728477	4.1035761589404	0.224370860927152				0.932026490066225	-0.0285033112582781	0.101933774834437	8.3517880794702	0.0519205298013249	1.90251655629139				0.607788079470199	-0.318834437086093	-0.644238410596026	-8.93960264900662	2.11761589403974	7.08529801324503			
118	2380	0.919841059602649	0.114754966887417	-0.295523178807947	7.31337748344371	4.0553642384106	-1.74490066225166				0.976953642384106	-0.000211920529801304	0.0611390728476822	4.07390728476821	2.54781456953642	7.81403973509934				0.933827814569536	-0.0812715231788079	-0.26394701986755	5.04741721854305	8.82649006622517	2.59973509933775				0.640529801324503	-0.224529801324503	-0.613721854304636	6.40291390728477	7.4635761589404	-0.335629139072848				0.932026490066225	-0.0765033112582781	0.0699337748344371	7.2317880794702	-3.86807947019868	1.90251655629139				0.591788079470199	-0.318834437086093	-0.644238410596026	-4.73960264900662	3.51761589403974	8.76529801324503			
119	2400	0.935841059602649	0.0667549668874172	-0.247523178807947	7.31337748344371	0.975364238410596	-2.58490066225166				0.976953642384106	0.0317880794701987	0.125139072847682	-9.64609271523179	0.0278145695364242	7.53403973509934				0.933827814569536	-0.0492715231788079	-0.24794701986755	0.00741721854304636	7.42649006622517	4.27973509933775				0.624529801324503	-0.240529801324503	-0.597721854304636	4.44291390728477	5.7835761589404	-0.895629139072848				0.932026490066225	-0.0445033112582781	0.117933774834437	-0.328211920529802	0.611920529801325	1.62251655629139				0.591788079470199	-0.286834437086093	-0.660238410596027	0.300397350993377	2.39761589403974	7.92529801324503			
120	2420	0.935841059602649	0.0507549668874172	-0.231523178807947	5.07337748344371	5.7353642384106	-1.18490066225166				0.944953642384106	0.0157880794701987	0.0451390728476822	-4.88609271523179	2.54781456953642	5.57403973509934				0.933827814569536	-0.0172715231788079	-0.24794701986755	4.48741721854305	5.18649006622517	2.31973509933775				0.640529801324503	-0.240529801324503	-0.629721854304636	3.32291390728477	6.6235761589404	-1.17562913907285				0.916026490066225	-0.0285033112582781	0.117933774834437	0.791788079470198	2.85192052980133	1.90251655629139				0.607788079470199	-0.286834437086093	-0.628238410596026	0.300397350993377	4.35761589403974	7.08529801324503			
121	2440	0.935841059602649	0.0507549668874172	-0.151523178807947	4.79337748344371	6.0153642384106	-0.904900662251656				0.976953642384106	-0.0962119205298013	0.0771390728476822	9.39390728476821	-0.532185430463576	10.0540397350993				0.917827814569536	-0.0172715231788079	-0.24794701986755	8.12741721854305	6.02649006622517	0.0797350993377501				0.656529801324503	-0.240529801324503	-0.629721854304636	8.08291390728477	11.1035761589404	1.34437086092715				0.948026490066225	-0.0605033112582781	0.117933774834437	6.1117880794702	5.65192052980133	1.90251655629139				0.607788079470199	-0.334834437086093	-0.644238410596026	7.30039735099338	2.95761589403974	5.68529801324503			
122	2460	0.903841059602649	0.0827549668874172	-0.167523178807947	-0.246622516556291	2.9353642384106	-1.18490066225166				0.976953642384106	-0.0162119205298013	0.0771390728476822	2.67390728476821	-8.09218543046358	7.25403973509934				0.933827814569536	-0.0492715231788079	-0.24794701986755	6.44741721854305	5.46649006622517	-0.20026490066225				0.704529801324503	-0.240529801324503	-0.613721854304636	9.48291390728477	13.0635761589404	3.30437086092715				0.980026490066225	-0.140503311258278	0.117933774834437	7.5117880794702	3.41192052980132	3.02251655629139				0.623788079470199	-0.366834437086093	-0.660238410596027	5.62039735099338	2.39761589403974	3.72529801324503			
123	2480	0.967841059602649	0.130754966887417	-0.199523178807947	-0.526622516556291	5.4553642384106	-2.30490066225166				0.944953642384106	0.0317880794701987	0.0931390728476822	-4.60609271523179	0.307814569536424	4.73403973509934				0.933827814569536	-0.0812715231788079	-0.23194701986755	3.36741721854305	4.06649006622517	1.19973509933775				0.720529801324503	-0.256529801324503	-0.597721854304636	8.36291390728477	10.8235761589404	3.30437086092715				0.964026490066225	-0.0765033112582781	0.101933774834437	1.9117880794702	-1.34807947019868	3.58251655629139				0.607788079470199	-0.366834437086093	-0.708238410596026	4.50039735099338	3.23761589403974	0.645298013245032			
124	2500	0.951841059602649	0.114754966887417	-0.183523178807947	0.313377483443709	6.5753642384106	-1.18490066225166				0.976953642384106	-0.0482119205298013	0.0771390728476822	-2.36609271523179	8.14781456953643	5.29403973509934				0.933827814569536	-0.0332715231788079	-0.23194701986755	3.36741721854305	2.94649006622517	0.91973509933775				0.736529801324503	-0.256529801324503	-0.629721854304636	8.92291390728477	6.6235761589404	0.504370860927152				0.948026490066225	-0.0605033112582781	0.101933774834437	2.4717880794702	-0.228079470198675	3.02251655629139				0.623788079470199	-0.350834437086093	-0.660238410596027	2.26039735099338	0.157615894039735	0.925298013245032			
125	2520	0.919841059602649	0.0827549668874172	-0.167523178807947	0.0333774834437086	7.1353642384106	-1.18490066225166				0.992953642384106	-0.0162119205298013	0.0771390728476822	4.91390728476821	5.90781456953642	4.17403973509934				0.917827814569536	-0.0172715231788079	-0.23194701986755	2.52741721854305	4.90649006622517	0.0797350993377501				0.736529801324503	-0.256529801324503	-0.613721854304636	5.56291390728477	3.8235761589404	-0.895629139072848				0.948026490066225	-0.0765033112582781	0.133933774834437	4.7117880794702	0.331920529801325	3.30251655629139				0.575788079470199	-0.350834437086093	-0.660238410596027	1.42039735099338	-1.24238410596026	3.16529801324503			
126	2540	0.903841059602649	0.0987549668874172	-0.215523178807947	-0.246622516556291	6.5753642384106	-1.18490066225166				0.960953642384106	-0.000211920529801304	0.0931390728476822	6.59390728476821	1.70781456953642	4.45403973509934				0.917827814569536	-0.0492715231788079	-0.23194701986755	-1.11258278145695	3.50649006622517	0.63973509933775				0.736529801324503	-0.272529801324503	-0.613721854304636	1.64291390728477	0.7435761589404	-1.73562913907285				0.916026490066225	-0.0765033112582781	0.117933774834437	5.8317880794702	2.01192052980133	2.74251655629139				0.559788079470199	-0.334834437086093	-0.660238410596027	-0.819602649006623	0.997615894039735	4.28529801324503			
127	2560	0.919841059602649	0.0987549668874172	-0.215523178807947	-1.36662251655629	7.4153642384106	0.215099337748344				0.944953642384106	0.0317880794701987	0.109139072847682	2.67390728476821	4.78781456953642	1.65403973509934				0.901827814569536	-0.0492715231788079	-0.24794701986755	0.567417218543046	2.10649006622517	0.0797350993377501				0.704529801324503	-0.288529801324503	-0.613721854304636	-1.43708609271523	-1.2164238410596	-2.85562913907285				0.932026490066225	-0.0765033112582781	0.117933774834437	4.9917880794702	3.41192052980132	0.502516556291392				0.591788079470199	-0.334834437086093	-0.660238410596027	5.90039735099338	-0.122384105960265	4.00529801324503			
128	2580	0.951841059602649	0.0667549668874172	-0.199523178807947	-1.08662251655629	10.2153642384106	1.33509933774834				0.992953642384106	-0.0162119205298013	0.109139072847682	-1.24609271523179	6.74781456953642	1.65403973509934				0.949827814569536	0.0147284768211921	-0.24794701986755	1.40741721854305	3.22649006622517	-1.60026490066225				0.688529801324503	-0.240529801324503	-0.613721854304636	-1.71708609271523	0.1835761589404	-4.53562913907285				0.932026490066225	-0.0605033112582781	0.117933774834437	4.1517880794702	4.81192052980133	-0.337483443708608				0.591788079470199	-0.350834437086093	-0.660238410596027	9.26039735099338	-1.24238410596026	2.60529801324503			
129	2600	0.919841059602649	0.0507549668874172	-0.151523178807947	-1.92662251655629	12.7353642384106	4.13509933774834				1.04095364238411	-0.0642119205298013	0.0611390728476822	1.55390728476821	0.867814569536424	3.89403973509934				0.949827814569536	-0.0332715231788079	-0.24794701986755	1.12741721854305	1.26649006622517	-2.16026490066225				0.704529801324503	-0.240529801324503	-0.613721854304636	-1.71708609271523	-1.7764238410596	-5.37562913907285				0.964026490066225	-0.0765033112582781	0.133933774834437	5.2717880794702	7.05192052980133	-1.17748344370861				0.591788079470199	-0.366834437086093	-0.628238410596026	7.86039735099338	-0.962384105960265	2.88529801324503			
130	2620	0.919841059602649	0.0667549668874172	-0.199523178807947	-5.00662251655629	11.3353642384106	1.33509933774834				0.944953642384106	0.0157880794701987	0.0611390728476822	-0.126092715231788	0.307814569536424	0.53403973509934				0.901827814569536	-0.0652715231788079	-0.24794701986755	-2.23258278145695	0.146490066225167	-1.04026490066225				0.720529801324503	-0.256529801324503	-0.629721854304636	1.08291390728477	-2.6164238410596	-4.53562913907285				0.996026490066225	-0.108503311258278	0.117933774834437	2.7517880794702	3.69192052980133	-1.17748344370861				0.607788079470199	-0.382834437086093	-0.644238410596026	7.58039735099338	-0.122384105960265	2.60529801324503			
131	2640	0.967841059602649	0.0827549668874172	-0.199523178807947	-6.96662251655629	9.0953642384106	0.775099337748344				0.976953642384106	-0.000211920529801304	0.0771390728476822	2.95390728476821	8.42781456953642	0.81403973509934				0.933827814569536	-0.0652715231788079	-0.24794701986755	-0.552582781456954	0.986490066225167	-1.88026490066225				0.704529801324503	-0.256529801324503	-0.629721854304636	3.04291390728477	-1.2164238410596	-5.09562913907285				0.964026490066225	-0.0445033112582781	0.133933774834437	-0.0482119205298018	3.41192052980132	-1.73748344370861				0.623788079470199	-0.382834437086093	-0.660238410596027	9.54039735099338	0.157615894039735	0.365298013245032			
132	2660	0.919841059602649	0.0667549668874172	-0.199523178807947	-1.64662251655629	9.6553642384106	2.45509933774835				0.928953642384106	-0.0162119205298013	0.0611390728476822	6.31390728476821	7.02781456953642	0.81403973509934				0.949827814569536	-0.0172715231788079	-0.23194701986755	-1.95258278145695	0.426490066225167	-2.16026490066225				0.688529801324503	-0.240529801324503	-0.629721854304636	-0.317086092715232	-0.0964238410596001	-5.37562913907285				0.932026490066225	-0.0605033112582781	0.0859337748344371	4.9917880794702	2.85192052980133	-0.897483443708608				0.607788079470199	-0.398834437086093	-0.644238410596026	4.50039735099338	0.437615894039735	1.48529801324503			
133	2680	0.967841059602649	0.0507549668874172	-0.215523178807947	-1.36662251655629	5.1753642384106	0.215099337748344				0.960953642384106	0.0157880794701987	0.0771390728476822	7.99390728476821	7.30781456953642	0.81403973509934				0.933827814569536	-0.0172715231788079	-0.23194701986755	-2.79258278145695	-1.25350993377483	-1.04026490066225				0.688529801324503	-0.240529801324503	-0.613721854304636	1.64291390728477	-2.0564238410596	-5.65562913907285				0.948026490066225	-0.0445033112582781	0.101933774834437	6.3917880794702	3.41192052980132	-0.897483443708608				0.591788079470199	-0.350834437086093	-0.644238410596026	2.54039735099338	1.27761589403974	4.56529801324503			
134	2700	0.951841059602649	0.0987549668874172	-0.247523178807947	-5.56662251655629	-2.1046357615894	-0.624900662251656				0.992953642384106	0.0157880794701987	0.109139072847682	5.47390728476821	8.98781456953643	2.49403973509934				0.917827814569536	-0.0332715231788079	-0.27994701986755	3.08741721854305	-0.133509933774833	-3.00026490066225				0.688529801324503	-0.224529801324503	-0.629721854304636	1.36291390728477	-4.5764238410596	-5.93562913907285				0.916026490066225	-0.0445033112582781	0.133933774834437	6.3917880794702	5.37192052980133	-0.897483443708608				0.575788079470199	-0.318834437086093	-0.644238410596026	-1.93960264900662	1.83761589403974	6.24529801324503			
135	2720	0.919841059602649	0.0987549668874172	-0.247523178807947	0.313377483443709	0.975364238410596	1.33509933774834				0.960953642384106	-0.000211920529801304	0.141139072847682	2.67390728476821	9.26781456953642	1.37403973509934				0.869827814569536	-0.0652715231788079	-0.24794701986755	5.60741721854305	-1.53350993377483	-2.44026490066225				0.688529801324503	-0.240529801324503	-0.629721854304636	-2.55708609271523	-4.8564238410596	-5.37562913907285				0.900026490066225	-0.0285033112582781	0.149933774834437	4.7117880794702	7.33192052980133	-2.57748344370861				0.591788079470199	-0.318834437086093	-0.644238410596026	2.26039735099338	0.437615894039735	5.96529801324503			
136	2740	0.951841059602649	0.0507549668874172	-0.183523178807947	3.95337748344371	0.975364238410596	0.495099337748344				1.04095364238411	-0.0642119205298013	0.125139072847682	6.59390728476821	6.74781456953642	3.61403973509934				0.933827814569536	0.0147284768211921	-0.24794701986755	2.24741721854305	0.706490066225167	-1.88026490066225				0.704529801324503	-0.240529801324503	-0.629721854304636	-3.39708609271523	-4.0164238410596	-5.09562913907285				0.932026490066225	-0.0445033112582781	0.149933774834437	5.5517880794702	9.85192052980133	-3.13748344370861				0.607788079470199	-0.350834437086093	-0.644238410596026	7.30039735099338	-1.52238410596026	4.00529801324503			
137	2760	0.935841059602649	0.0507549668874172	-0.199523178807947	1.71337748344371	0.695364238410596	-0.344900662251656				1.04095364238411	-0.0322119205298013	0.0771390728476822	7.99390728476821	-4.45218543046358	3.05403973509934				0.965827814569536	-0.0332715231788079	-0.26394701986755	3.64741721854305	1.26649006622517	-2.44026490066225				0.704529801324503	-0.224529801324503	-0.613721854304636	-3.95708609271523	-4.2964238410596	-4.53562913907285				0.996026490066225	-0.0925033112582781	0.165933774834437	7.5117880794702	12.0919205298013	-1.73748344370861				0.607788079470199	-0.382834437086093	-0.628238410596026	9.82039735099338	-3.20238410596026	1.20529801324503			
138	2780	0.935841059602649	0.0667549668874172	-0.183523178807947	-2.76662251655629	3.2153642384106	0.495099337748344				0.928953642384106	0.0157880794701987	0.109139072847682	3.51390728476821	-1.09218543046358	0.53403973509934				0.901827814569536	-0.0332715231788079	-0.26394701986755	4.76741721854305	0.146490066225167	-4.40026490066225				0.720529801324503	-0.208529801324503	-0.629721854304636	-3.67708609271523	-4.0164238410596	-7.33562913907285				0.996026490066225	-0.0765033112582781	0.149933774834437	4.1517880794702	8.17192052980133	-2.57748344370861				0.639788079470199	-0.398834437086093	-0.628238410596026	8.14039735099338	0.997615894039735	-0.194701986754968			
139	2800	0.951841059602649	0.0827549668874172	-0.151523178807947	-0.526622516556291	4.0553642384106	1.05509933774834				0.976953642384106	-0.0162119205298013	0.109139072847682	0.433907284768212	3.66781456953642	1.37403973509934				0.933827814569536	-0.00127152317880793	-0.21594701986755	5.60741721854305	1.82649006622517	-4.68026490066225				0.720529801324503	-0.224529801324503	-0.613721854304636	-1.15708609271523	-3.1764238410596	-7.33562913907285				0.964026490066225	-0.0445033112582781	0.149933774834437	3.3117880794702	5.37192052980133	-2.29748344370861				0.623788079470199	-0.398834437086093	-0.628238410596026	6.74039735099338	0.717615894039735	-1.31470198675497			
140	2820	0.935841059602649	0.0827549668874172	-0.151523178807947	-0.246622516556291	4.3353642384106	0.215099337748344				0.960953642384106	-0.000211920529801304	0.0611390728476822	5.75390728476821	0.587814569536424	0.53403973509934				0.949827814569536	-0.0492715231788079	-0.19994701986755	6.16741721854305	0.426490066225167	-4.12026490066225				0.672529801324503	-0.256529801324503	-0.629721854304636	-0.317086092715232	-2.3364238410596	-5.65562913907285				0.964026490066225	-0.0765033112582781	0.133933774834437	4.7117880794702	3.69192052980133	-2.29748344370861				0.607788079470199	-0.366834437086093	-0.644238410596026	2.82039735099338	0.157615894039735	-0.754701986754968			
141	2840	0.951841059602649	0.130754966887417	-0.183523178807947	-4.72662251655629	1.5353642384106	-0.344900662251656				0.944953642384106	0.0157880794701987	0.0771390728476822	7.43390728476821	3.38781456953642	0.25403973509934				0.917827814569536	-0.0812715231788079	-0.21594701986755	3.92741721854305	1.82649006622517	-3.56026490066225				0.672529801324503	-0.240529801324503	-0.613721854304636	-2.55708609271523	-2.6164238410596	-6.21562913907285				0.948026490066225	-0.0605033112582781	0.133933774834437	3.8717880794702	3.41192052980132	-2.01748344370861				0.575788079470199	-0.366834437086093	-0.644238410596026	3.94039735099338	0.997615894039735	-1.59470198675497			
142	2860	0.935841059602649	0.114754966887417	-0.199523178807947	-1.36662251655629	0.415364238410596	0.495099337748344				0.976953642384106	-0.0162119205298013	0.125139072847682	7.43390728476821	10.1078145695364	-0.30596026490066				0.917827814569536	-0.0652715231788079	-0.26394701986755	0.00741721854304636	-0.133509933774833	-4.68026490066225				0.656529801324503	-0.224529801324503	-0.629721854304636	-5.63708609271523	-4.5764238410596	-8.17562913907285				0.916026490066225	-0.0445033112582781	0.117933774834437	3.5917880794702	6.21192052980133	-2.85748344370861				0.591788079470199	-0.366834437086093	-0.644238410596026	3.66039735099338	1.55761589403974	-1.87470198675497			
143	2880	0.935841059602649	0.0667549668874172	-0.199523178807947	0.593377483443709	0.695364238410596	0.215099337748344				1.00895364238411	-0.0642119205298013	0.157139072847682	4.35390728476821	6.18781456953642	1.37403973509934				0.949827814569536	-0.0172715231788079	-0.24794701986755	-3.63258278145695	-0.133509933774833	-4.40026490066225				0.656529801324503	-0.224529801324503	-0.645721854304636	-4.51708609271523	-2.8964238410596	-7.61562913907285				0.932026490066225	-0.0605033112582781	0.133933774834437	4.4317880794702	9.29192052980133	-3.41748344370861				0.591788079470199	-0.382834437086093	-0.628238410596026	1.70039735099338	0.717615894039735	2.60529801324503			
144	2900	0.951841059602649	0.0187549668874172	-0.215523178807947	-1.36662251655629	3.7753642384106	0.215099337748344				1.00895364238411	-0.0482119205298013	0.109139072847682	0.993907284768212	-0.532185430463576	-0.30596026490066				0.949827814569536	-0.00127152317880793	-0.26394701986755	-1.11258278145695	0.986490066225167	-3.28026490066225				0.672529801324503	-0.240529801324503	-0.629721854304636	1.08291390728477	-0.9364238410596	-3.69562913907285				0.964026490066225	-0.0765033112582781	0.181933774834437	4.4317880794702	11.2519205298013	-3.97748344370861				0.623788079470199	-0.366834437086093	-0.660238410596027	-1.93960264900662	-0.962384105960265	0.925298013245032			
145	2920	0.967841059602649	0.0507549668874172	-0.231523178807947	-8.08662251655629	3.4953642384106	-0.0649006622516557				0.960953642384106	0.0317880794701987	0.0931390728476822	-1.52609271523179	5.06781456953642	-2.26596026490066				0.917827814569536	-0.00127152317880793	-0.24794701986755	-3.35258278145695	0.146490066225167	-4.68026490066225				0.704529801324503	-0.240529801324503	-0.661721854304636	0.802913907284768	-2.0564238410596	-2.57562913907285				0.980026490066225	-0.0605033112582781	0.149933774834437	-3.9682119205298	4.25192052980133	-3.69748344370861				0.655788079470199	-0.382834437086093	-0.676238410596026	2.54039735099338	-2.92238410596027	-4.39470198675497			
146	2940	0.951841059602649	0.114754966887417	-0.215523178807947	-8.92662251655629	0.975364238410596	1.05509933774834				0.976953642384106	0.0157880794701987	0.0771390728476822	9.39390728476821	3.94781456953642	0.81403973509934				0.917827814569536	-0.0172715231788079	-0.24794701986755	-3.35258278145695	-1.25350993377483	-5.80026490066225				0.704529801324503	-0.224529801324503	-0.693721854304636	-1.99708609271523	-4.0164238410596	-3.97562913907285				0	0	0	0	0	0				0.655788079470199	-0.382834437086093	-0.660238410596027	5.34039735099338	-4.60238410596027	-4.95470198675497			
147	2960	0.919841059602649	0.114754966887417	-0.199523178807947	-3.32662251655629	-0.704635761589404	-0.0649006622516557				1.00895364238411	-0.000211920529801304	0.0451390728476822	10.5139072847682	3.10781456953642	-0.30596026490066				0.917827814569536	0.0147284768211921	-0.27994701986755	1.68741721854305	-0.973509933774833	-5.52026490066225				0	0	0	0	0	0				0	0	0	0	0	0				0	0	0	0	0	0			
148	2980	0.951841059602649	0.0987549668874172	-0.167523178807947	0.313377483443709	-0.984635761589404	-0.0649006622516557				0.976953642384106	0.0317880794701987	0.0771390728476822	7.15390728476821	0.867814569536424	-0.585960264900661				0.933827814569536	0.0147284768211921	-0.31194701986755	0.847417218543046	-1.53350993377483	-2.44026490066225				0	0	0	0	0	0				0.964026490066225	-0.0445033112582781	0.149933774834437	1.6317880794702	9.01192052980133	-2.57748344370861				0	0	0	0	0	0			
149	3000	0.935841059602649	0.114754966887417	-0.167523178807947	1.99337748344371	-0.424635761589404	0.775099337748344				0.992953642384106	-0.000211920529801304	0.0611390728476822	5.19390728476821	4.22781456953642	-0.30596026490066				0.933827814569536	-0.0332715231788079	-0.29594701986755	1.12741721854305	-1.81350993377483	-1.60026490066225				0.688529801324503	-0.208529801324503	-0.645721854304636	-7.31708609271523	-7.6564238410596	-4.25562913907285				0.948026490066225	-0.0125033112582781	0.165933774834437	0.511788079470198	7.05192052980133	-1.73748344370861				0.607788079470199	-0.366834437086093	-0.676238410596026	5.06039735099338	-4.88238410596027	3.16529801324503			
150	3020	0.919841059602649	0.0827549668874172	-0.183523178807947	1.99337748344371	0.975364238410596	1.05509933774834				0.976953642384106	0.0157880794701987	0.125139072847682	6.03390728476821	5.06781456953642	0.53403973509934				0.917827814569536	-0.0332715231788079	-0.26394701986755	1.12741721854305	-0.133509933774833	-0.48026490066225				0.672529801324503	-0.192529801324503	-0.645721854304636	-7.59708609271523	-7.3764238410596	-3.13562913907285				0.948026490066225	-0.0125033112582781	0.149933774834437	0.511788079470198	6.77192052980133	-1.73748344370861				0.607788079470199	-0.366834437086093	-0.660238410596027	2.82039735099338	-5.16238410596027	4.28529801324503			
151	3040	0.935841059602649	0.0827549668874172	-0.215523178807947	2.83337748344371	0.695364238410596	-0.0649006622516557				0.992953642384106	0.0157880794701987	0.0931390728476822	9.67390728476821	-0.532185430463576	0.53403973509934				0.933827814569536	0.0147284768211921	-0.27994701986755	0.00741721854304636	-0.973509933774833	-1.04026490066225				0.672529801324503	-0.192529801324503	-0.629721854304636	-3.95708609271523	-4.0164238410596	-2.01562913907285				0.964026490066225	-0.0285033112582781	0.165933774834437	2.1917880794702	7.89192052980133	-1.45748344370861				0.591788079470199	-0.366834437086093	-0.644238410596026	2.82039735099338	-4.60238410596027	4.84529801324503			
152	3060	0.951841059602649	0.0827549668874172	-0.215523178807947	4.51337748344371	-2.3846357615894	-0.344900662251656				0.976953642384106	0.0157880794701987	0.0611390728476822	9.11390728476821	-3.33218543046358	1.93403973509934				0.933827814569536	0.0307284768211921	-0.26394701986755	0.567417218543046	-0.973509933774833	-0.48026490066225				0.688529801324503	-0.192529801324503	-0.629721854304636	0.522913907284768	-0.6564238410596	-0.895629139072848				0.980026490066225	-0.0285033112582781	0.165933774834437	4.1517880794702	5.93192052980133	-0.897483443708608				0.591788079470199	-0.366834437086093	-0.644238410596026	3.38039735099338	-1.80238410596026	2.88529801324503			
153	3080	0.919841059602649	0.0507549668874172	-0.199523178807947	1.15337748344371	-2.9446357615894	-0.0649006622516557				0.976953642384106	-0.000211920529801304	0.0771390728476822	8.55390728476821	0.587814569536424	1.09403973509934				0.917827814569536	0.0147284768211921	-0.24794701986755	4.76741721854305	0.146490066225167	-0.76026490066225				0.704529801324503	-0.208529801324503	-0.629721854304636	2.20291390728477	1.5835761589404	0.784370860927152				0.964026490066225	-0.0285033112582781	0.165933774834437	4.9917880794702	1.73192052980133	-0.337483443708608				0.591788079470199	-0.350834437086093	-0.660238410596027	3.10039735099338	-1.24238410596026	-1.87470198675497			
154	3100	0.951841059602649	0.0827549668874172	-0.199523178807947	1.15337748344371	0.695364238410596	0.495099337748344				0.992953642384106	-0.0162119205298013	0.0771390728476822	9.67390728476821	1.14781456953642	1.09403973509934				0.933827814569536	-0.0332715231788079	-0.27994701986755	5.60741721854305	-1.81350993377483	-0.20026490066225				0.688529801324503	-0.208529801324503	-0.645721854304636	3.60291390728477	0.1835761589404	1.06437086092715				0.948026490066225	-0.0445033112582781	0.149933774834437	4.7117880794702	0.611920529801325	0.222516556291392				0.575788079470199	-0.366834437086093	-0.660238410596027	1.70039735099338	-0.122384105960265	-2.43470198675497			
155	3120	0.935841059602649	0.114754966887417	-0.199523178807947	2.83337748344371	0.695364238410596	-0.344900662251656				0.976953642384106	-0.0162119205298013	0.0931390728476822	7.15390728476821	3.10781456953642	1.09403973509934				0.917827814569536	-0.0172715231788079	-0.26394701986755	3.64741721854305	-2.65350993377483	0.0797350993377501				0.672529801324503	-0.192529801324503	-0.661721854304636	3.88291390728477	-0.3764238410596	-0.895629139072848				0.948026490066225	-0.0445033112582781	0.149933774834437	5.2717880794702	0.331920529801325	-0.337483443708608				0.575788079470199	-0.414834437086093	-0.644238410596026	1.14039735099338	0.157615894039735	0.645298013245032			
156	3140	0.951841059602649	0.0827549668874172	-0.215523178807947	3.11337748344371	-1.8246357615894	-0.904900662251656				0	0	0	0	0	0				0	0	0	0	0	0				0.656529801324503	-0.224529801324503	-0.661721854304636	4.44291390728477	-0.3764238410596	-2.01562913907285				0.964026490066225	-0.0605033112582781	0.165933774834437	5.5517880794702	0.891920529801325	-0.617483443708608				0.575788079470199	-0.382834437086093	-0.660238410596027	-4.17960264900662	3.23761589403974	0.645298013245032			
157	3160	0	0	0	0	0	0				0	0	0	0	0	0				0	0	0	0	0	0				0.688529801324503	-0.240529801324503	-0.645721854304636	2.48291390728477	-1.4964238410596	-2.01562913907285				0.948026490066225	-0.0605033112582781	0.133933774834437	2.7517880794702	-4.70807947019868	0.222516556291392				0.607788079470199	-0.334834437086093	-0.676238410596026	0.580397350993377	4.35761589403974	-2.99470198675497			
158	3180	0	0	0	0	0	0				0	0	0	0	0	0				0	0	0	0	0	0				0.688529801324503	-0.208529801324503	-0.661721854304636	-0.0370860927152318	-2.6164238410596	-4.25562913907285				0.948026490066225	-0.0445033112582781	0.165933774834437	3.3117880794702	1.73192052980133	-0.337483443708608				0.607788079470199	-0.366834437086093	-0.676238410596026	7.02039735099338	0.997615894039735	-3.55470198675497			
159	3200	0	0	0	0	0	0				0	0	0	0	0	0				0	0	0	0	0	0				0.656529801324503	-0.192529801324503	-0.645721854304636	1.36291390728477	-2.3364238410596	-3.97562913907285				0.948026490066225	-0.0445033112582781	0.165933774834437	4.1517880794702	0.891920529801325	-0.337483443708608				0.575788079470199	-0.398834437086093	-0.660238410596027	6.18039735099338	-0.402384105960265	-1.59470198675497			
160	3220	0	0	0	0	0	0				0	0	0	0	0	0				0	0	0	0	0	0				0.672529801324503	-0.208529801324503	-0.629721854304636	1.64291390728477	0.4635761589404	-4.25562913907285				0.948026490066225	-0.0605033112582781	0.149933774834437	4.9917880794702	0.891920529801325	-0.0574834437086077				0.591788079470199	-0.398834437086093	-0.644238410596026	0.860397350993377	0.157615894039735	-0.194701986754968			
