No	Time	12-AccX	12-AccY	12-AccZ	12-GyroX	12-GyroY	12-GyroZ	13-AccX	13-AccY	13-AccZ	13-GyroX	13-GyroY	13-GyroZ	14-AccX	14-AccY	14-AccZ	14-GyroX	14-GyroY	14-GyroZ	15-AccX	15-AccY	15-AccZ	15-GyroX	15-GyroY	15-GyroZ	16-AccX	16-AccY	16-AccZ	16-GyroX	16-GyroY	16-GyroZ	17-AccX	17-AccY	17-AccZ	17-GyroX	17-GyroY	17-GyroZ
0	0	0	0	0	0	0	0				0	0	0	0	0	0				-0.218172185430464	-0.177271523178808	-0.87194701986755	1.68741721854305	0.426490066225167	-0.76026490066225				0	0	0	0	0	0				0.980026490066225	0.0674966887417219	0.0859337748344371	1.0717880794702	0.331920529801325	0.782516556291392				0.671788079470199	-0.0628344370860927	-0.692238410596026	-2.49960264900662	0.437615894039735	0.365298013245032			
1	20	-0.264158940397351	0.114754966887417	-0.951523178807947	-0.526622516556291	-0.144635761589404	-1.18490066225166				0.896953642384106	0.0157880794701987	0.509139072847682	-0.686092715231788	1.42781456953642	0.53403973509934				-0.218172185430464	-0.161271523178808	-0.88794701986755	1.40741721854305	0.426490066225167	-0.48026490066225				0.704529801324503	-0.224529801324503	-0.645721854304636	-0.0370860927152318	1.3035761589404	2.18437086092715				0.980026490066225	0.0674966887417219	0.0859337748344371	0.791788079470198	0.611920529801325	0.502516556291392				0.671788079470199	-0.0628344370860927	-0.692238410596026	-2.77960264900662	1.55761589403974	0.365298013245032			
2	40	-0.264158940397351	0.0987549668874172	-0.919523178807947	0.313377483443709	0.695364238410596	-0.344900662251656				0.896953642384106	0.0157880794701987	0.509139072847682	-0.126092715231788	0.0278145695364242	1.37403973509934				-0.218172185430464	-0.161271523178808	-0.87194701986755	0.567417218543046	1.26649006622517	0.35973509933775				0.672529801324503	-0.224529801324503	-0.661721854304636	1.92291390728477	2.1435761589404	1.90437086092715				0.964026490066225	0.0674966887417219	0.0859337748344371	-1.1682119205298	-1.06807947019868	1.06251655629139				0.671788079470199	-0.0468344370860927	-0.692238410596026	-1.09960264900662	0.437615894039735	-0.754701986754968			
3	60	-0.264158940397351	0.0987549668874172	-0.919523178807947	0.0333774834437086	0.695364238410596	-1.18490066225166				0.896953642384106	0.0157880794701987	0.509139072847682	0.153907284768212	-1.09218543046358	1.37403973509934				-0.202172185430464	-0.177271523178808	-0.88794701986755	-0.272582781456954	0.426490066225167	-0.76026490066225				0.688529801324503	-0.224529801324503	-0.645721854304636	3.04291390728477	2.4235761589404	2.18437086092715				0.964026490066225	0.0674966887417219	0.101933774834437	0.511788079470198	-1.06807947019868	1.62251655629139				0.687788079470199	-0.0468344370860927	-0.692238410596026	0.580397350993377	0.157615894039735	-0.194701986754968			
4	80	-0.264158940397351	0.114754966887417	-0.935523178807947	-0.526622516556291	0.415364238410596	-0.904900662251656				0.880953642384106	-0.000211920529801304	0.493139072847682	0.433907284768212	-2.77218543046358	1.65403973509934				-0.202172185430464	-0.177271523178808	-0.88794701986755	0.287417218543046	0.146490066225167	-0.76026490066225				0.688529801324503	-0.224529801324503	-0.645721854304636	2.20291390728477	1.8635761589404	2.18437086092715				0.948026490066225	0.0674966887417219	0.0859337748344371	0.511788079470198	-0.508079470198675	0.782516556291392				0.687788079470199	-0.0628344370860927	-0.692238410596026	0.580397350993377	-1.80238410596026	-0.194701986754968			
5	100	-0.264158940397351	0.114754966887417	-0.935523178807947	-0.806622516556291	0.135364238410596	-1.18490066225166				0.880953642384106	-0.000211920529801304	0.509139072847682	-0.126092715231788	-3.33218543046358	0.81403973509934				-0.218172185430464	-0.161271523178808	-0.87194701986755	0.567417218543046	0.426490066225167	-0.48026490066225				0.672529801324503	-0.224529801324503	-0.661721854304636	0.802913907284768	0.4635761589404	1.34437086092715				0.964026490066225	0.0514966887417219	0.0859337748344371	0.231788079470198	-0.228079470198675	1.62251655629139				0.671788079470199	-0.0628344370860927	-0.692238410596026	0.580397350993377	-2.08238410596027	0.0852980132450323			
6	120	-0.264158940397351	0.0987549668874172	-0.935523178807947	-0.526622516556291	0.695364238410596	-0.904900662251656				0.896953642384106	-0.000211920529801304	0.509139072847682	0.433907284768212	-2.49218543046358	0.81403973509934				-0.218172185430464	-0.161271523178808	-0.88794701986755	1.96741721854305	1.26649006622517	-0.76026490066225				0.672529801324503	-0.240529801324503	-0.645721854304636	1.92291390728477	0.4635761589404	1.62437086092715				0.964026490066225	0.0674966887417219	0.0859337748344371	-0.0482119205298018	-1.06807947019868	1.06251655629139				0.671788079470199	-0.0468344370860927	-0.692238410596026	0.580397350993377	-1.24238410596026	0.0852980132450323			
7	140	-0.264158940397351	0.0987549668874172	-0.935523178807947	-0.526622516556291	0.975364238410596	-0.904900662251656				0.880953642384106	0.0157880794701987	0.509139072847682	0.993907284768212	-3.05218543046358	0.81403973509934				-0.202172185430464	-0.193271523178808	-0.87194701986755	-0.552582781456954	0.146490066225167	-0.20026490066225				0.688529801324503	-0.240529801324503	-0.645721854304636	0.802913907284768	-0.9364238410596	2.18437086092715				0.948026490066225	0.0674966887417219	0.0859337748344371	-0.888211920529802	-2.18807947019868	1.06251655629139				0.655788079470199	-0.0468344370860927	-0.676238410596026	1.14039735099338	-2.36238410596027	-0.194701986754968			
8	160	-0.248158940397351	0.0987549668874172	-0.935523178807947	-0.806622516556291	0.415364238410596	-0.624900662251656				0.880953642384106	-0.000211920529801304	0.493139072847682	1.83390728476821	-5.01218543046358	1.65403973509934				-0.202172185430464	-0.177271523178808	-0.87194701986755	0.00741721854304636	0.706490066225167	-0.76026490066225				0.672529801324503	-0.240529801324503	-0.645721854304636	0.242913907284768	-0.0964238410596001	2.18437086092715				0.964026490066225	0.0514966887417219	0.0859337748344371	-1.1682119205298	-1.62807947019868	0.502516556291392				0.671788079470199	-0.0628344370860927	-0.676238410596026	1.14039735099338	-3.20238410596026	0.0852980132450323			
9	180	-0.264158940397351	0.0987549668874172	-0.935523178807947	0.313377483443709	0.415364238410596	-0.624900662251656				0.880953642384106	-0.000211920529801304	0.477139072847682	1.55390728476821	-3.89218543046358	1.09403973509934				-0.218172185430464	-0.177271523178808	-0.87194701986755	0.287417218543046	0.426490066225167	-0.20026490066225				0.672529801324503	-0.224529801324503	-0.645721854304636	0.802913907284768	0.4635761589404	2.18437086092715				0.948026490066225	0.0514966887417219	0.101933774834437	-1.7282119205298	-0.788079470198675	1.34251655629139				0.655788079470199	-0.0468344370860927	-0.660238410596027	0.580397350993377	-2.36238410596027	0.0852980132450323			
10	200	-0.264158940397351	0.114754966887417	-0.935523178807947	0.0333774834437086	0.415364238410596	-0.904900662251656				0.880953642384106	0.0157880794701987	0.493139072847682	2.11390728476821	-1.09218543046358	0.81403973509934				-0.202172185430464	-0.177271523178808	-0.88794701986755	1.40741721854305	0.146490066225167	-1.04026490066225				0.672529801324503	-0.224529801324503	-0.645721854304636	0.242913907284768	-0.9364238410596	2.46437086092715				0.948026490066225	0.0514966887417219	0.0859337748344371	-1.1682119205298	-0.508079470198675	-0.0574834437086077				0.655788079470199	-0.0628344370860927	-0.676238410596026	1.98039735099338	-1.80238410596026	0.645298013245032			
11	220	-0.264158940397351	0.114754966887417	-0.935523178807947	-0.526622516556291	0.415364238410596	-0.344900662251656				0.896953642384106	0.0157880794701987	0.493139072847682	2.11390728476821	-0.252185430463576	1.37403973509934				-0.218172185430464	-0.161271523178808	-0.87194701986755	1.40741721854305	-0.133509933774833	-0.76026490066225				0.688529801324503	-0.240529801324503	-0.645721854304636	-1.71708609271523	-1.2164238410596	1.62437086092715				0.948026490066225	0.0514966887417219	0.0699337748344371	-0.888211920529802	-0.788079470198675	-0.0574834437086077				0.655788079470199	-0.0788344370860927	-0.676238410596026	0.860397350993377	-0.682384105960265	0.645298013245032			
12	240	-0.264158940397351	0.114754966887417	-0.935523178807947	-0.246622516556291	-0.144635761589404	-0.344900662251656				0.896953642384106	0.0157880794701987	0.493139072847682	0.993907284768212	0.0278145695364242	0.25403973509934				-0.202172185430464	-0.177271523178808	-0.88794701986755	-0.552582781456954	0.426490066225167	0.0797350993377501				0.688529801324503	-0.224529801324503	-0.645721854304636	-3.39708609271523	-1.7764238410596	1.06437086092715				0.948026490066225	0.0514966887417219	0.0859337748344371	-0.328211920529802	0.611920529801325	1.06251655629139				0.655788079470199	-0.0628344370860927	-0.676238410596026	0.580397350993377	-0.962384105960265	1.76529801324503			
13	260	-0.248158940397351	0.114754966887417	-0.935523178807947	-0.246622516556291	0.135364238410596	-0.624900662251656				0.880953642384106	0.0157880794701987	0.493139072847682	1.27390728476821	0.587814569536424	0.53403973509934				-0.202172185430464	-0.161271523178808	-0.88794701986755	-0.832582781456954	-0.133509933774833	-0.20026490066225				0.672529801324503	-0.224529801324503	-0.645721854304636	-2.27708609271523	-1.2164238410596	0.784370860927152				0.948026490066225	0.0514966887417219	0.0859337748344371	-0.888211920529802	0.611920529801325	-0.897483443708608				0.655788079470199	-0.0628344370860927	-0.676238410596026	0.580397350993377	-1.52238410596026	1.20529801324503			
14	280	-0.264158940397351	0.0987549668874172	-0.935523178807947	-0.526622516556291	-0.144635761589404	-0.904900662251656				0.864953642384106	0.0157880794701987	0.509139072847682	1.55390728476821	0.867814569536424	0.53403973509934				-0.218172185430464	-0.177271523178808	-0.87194701986755	0.287417218543046	-0.693509933774834	-0.76026490066225				0.672529801324503	-0.224529801324503	-0.645721854304636	-0.0370860927152318	-0.9364238410596	-0.0556291390728476				0.964026490066225	0.0514966887417219	0.0859337748344371	-0.608211920529802	0.0519205298013249	-0.897483443708608				0.655788079470199	-0.0628344370860927	-0.692238410596026	1.14039735099338	-0.402384105960265	1.48529801324503			
15	300	-0.264158940397351	0.114754966887417	-0.935523178807947	0.313377483443709	-0.424635761589404	-0.904900662251656				0.880953642384106	0.0157880794701987	0.525139072847682	1.83390728476821	3.10781456953642	0.53403973509934				-0.202172185430464	-0.177271523178808	-0.87194701986755	1.40741721854305	-0.133509933774833	-0.76026490066225				0.672529801324503	-0.224529801324503	-0.645721854304636	-0.317086092715232	-1.2164238410596	-0.895629139072848				0.948026490066225	0.0514966887417219	0.0859337748344371	-1.1682119205298	0.331920529801325	-1.17748344370861				0.655788079470199	-0.0628344370860927	-0.676238410596026	1.14039735099338	0.717615894039735	2.88529801324503			
16	320	-0.248158940397351	0.0987549668874172	-0.935523178807947	0.593377483443709	-0.704635761589404	-0.624900662251656				0.896953642384106	0.0157880794701987	0.493139072847682	2.67390728476821	0.307814569536424	1.09403973509934				-0.202172185430464	-0.177271523178808	-0.88794701986755	-0.832582781456954	-1.53350993377483	0.0797350993377501				0.672529801324503	-0.224529801324503	-0.645721854304636	0.242913907284768	-0.9364238410596	-1.73562913907285				0.932026490066225	0.0514966887417219	0.0859337748344371	-0.328211920529802	1.45192052980132	-0.897483443708608				0.639788079470199	-0.0628344370860927	-0.676238410596026	-0.819602649006623	0.437615894039735	4.00529801324503			
17	340	-0.248158940397351	0.0987549668874172	-0.919523178807947	-0.246622516556291	-0.984635761589404	-0.624900662251656				0.880953642384106	0.0157880794701987	0.477139072847682	2.11390728476821	-1.09218543046358	0.25403973509934				-0.170172185430464	-0.177271523178808	-0.87194701986755	-0.552582781456954	-1.81350993377483	-1.32026490066225				0.672529801324503	-0.224529801324503	-0.645721854304636	-1.71708609271523	-0.6564238410596	-2.57562913907285				0.932026490066225	0.0674966887417219	0.0859337748344371	-0.328211920529802	1.17192052980133	-0.897483443708608				0.655788079470199	-0.0628344370860927	-0.676238410596026	-0.259602649006623	1.27761589403974	3.72529801324503			
18	360	-0.264158940397351	0.0987549668874172	-0.935523178807947	-0.806622516556291	-0.984635761589404	0.215099337748344				0.864953642384106	-0.000211920529801304	0.477139072847682	2.95390728476821	-0.532185430463576	0.81403973509934				-0.202172185430464	-0.161271523178808	-0.87194701986755	0.287417218543046	-1.25350993377483	-0.48026490066225				0.672529801324503	-0.224529801324503	-0.645721854304636	-3.39708609271523	-1.2164238410596	-3.41562913907285				0.964026490066225	0.0674966887417219	0.0699337748344371	-1.1682119205298	0.891920529801325	-0.897483443708608				0.655788079470199	-0.0468344370860927	-0.660238410596027	-0.259602649006623	2.67761589403974	2.60529801324503			
19	380	-0.264158940397351	0.0827549668874172	-0.935523178807947	-0.526622516556291	-1.5446357615894	0.215099337748344				0.880953642384106	-0.000211920529801304	0.509139072847682	3.23390728476821	4.22781456953642	0.53403973509934				-0.234172185430464	-0.177271523178808	-0.88794701986755	0.567417218543046	-1.25350993377483	-1.04026490066225				0.640529801324503	-0.224529801324503	-0.645721854304636	-3.67708609271523	0.7435761589404	-3.41562913907285				0.948026490066225	0.0514966887417219	0.0699337748344371	-0.888211920529802	1.17192052980133	-1.45748344370861				0.655788079470199	-0.0468344370860927	-0.676238410596026	-1.93960264900662	5.75761589403974	2.60529801324503			
20	400	-0.264158940397351	0.0987549668874172	-0.935523178807947	-0.806622516556291	-1.2646357615894	-0.344900662251656				0.928953642384106	0.0317880794701987	0.477139072847682	4.63390728476821	7.30781456953642	1.37403973509934				-0.234172185430464	-0.177271523178808	-0.87194701986755	2.24741721854305	-0.133509933774833	-1.32026490066225				0.640529801324503	-0.240529801324503	-0.661721854304636	-2.27708609271523	1.8635761589404	-1.73562913907285				0.948026490066225	0.0674966887417219	0.0859337748344371	-0.888211920529802	2.29192052980133	-0.897483443708608				0.639788079470199	-0.0468344370860927	-0.692238410596026	-2.77960264900662	6.87761589403974	3.16529801324503			
21	420	-0.280158940397351	0.0987549668874172	-0.935523178807947	-1.64662251655629	-1.2646357615894	0.775099337748344				0.928953642384106	0.0317880794701987	0.445139072847682	4.35390728476821	1.98781456953642	0.81403973509934				-0.234172185430464	-0.161271523178808	-0.85594701986755	0.567417218543046	-2.93350993377483	-1.32026490066225				0.640529801324503	-0.224529801324503	-0.645721854304636	-0.317086092715232	4.1035761589404	-2.01562913907285				0.948026490066225	0.0514966887417219	0.0699337748344371	-0.888211920529802	4.25192052980133	-0.337483443708608				0.639788079470199	-0.0468344370860927	-0.676238410596026	-2.77960264900662	7.15761589403974	5.12529801324503			
22	440	-0.280158940397351	0.114754966887417	-0.935523178807947	-1.08662251655629	-0.984635761589404	1.05509933774834				0.896953642384106	0.0317880794701987	0.477139072847682	3.23390728476821	1.42781456953642	1.65403973509934				-0.234172185430464	-0.177271523178808	-0.88794701986755	1.40741721854305	-1.25350993377483	0.35973509933775				0.640529801324503	-0.224529801324503	-0.661721854304636	-1.43708609271523	4.1035761589404	-3.69562913907285				0.964026490066225	0.0674966887417219	0.0699337748344371	-2.0082119205298	5.09192052980133	-0.897483443708608				0.671788079470199	-0.0628344370860927	-0.692238410596026	-1.37960264900662	7.71761589403974	5.12529801324503			
23	460	-0.280158940397351	0.114754966887417	-0.919523178807947	-1.64662251655629	-0.144635761589404	0.495099337748344				0.896953642384106	0.0317880794701987	0.509139072847682	5.19390728476821	5.34781456953642	2.49403973509934				-0.218172185430464	-0.177271523178808	-0.88794701986755	1.96741721854305	0.426490066225167	0.91973509933775				0.672529801324503	-0.224529801324503	-0.661721854304636	-1.71708609271523	6.0635761589404	-4.53562913907285				0.980026490066225	0.0674966887417219	0.0699337748344371	-2.2882119205298	4.81192052980133	-1.45748344370861				0.655788079470199	-0.0628344370860927	-0.692238410596026	-1.09960264900662	10.2376158940397	5.96529801324503			
24	480	-0.280158940397351	0.130754966887417	-0.935523178807947	-1.92662251655629	-0.144635761589404	-0.0649006622516557				0.896953642384106	-0.000211920529801304	0.493139072847682	3.51390728476821	4.78781456953642	0.53403973509934				-0.218172185430464	-0.177271523178808	-0.88794701986755	1.40741721854305	0.426490066225167	1.47973509933775				0.672529801324503	-0.240529801324503	-0.677721854304636	-0.597086092715232	8.3035761589404	-4.25562913907285				0.980026490066225	0.0674966887417219	0.101933774834437	-0.0482119205298018	9.85192052980133	-1.45748344370861				0.655788079470199	-0.0628344370860927	-0.692238410596026	-2.21960264900662	11.3576158940397	6.80529801324503			
25	500	-0.280158940397351	0.130754966887417	-0.951523178807947	-0.806622516556291	-0.704635761589404	0.215099337748344				0.896953642384106	0.0157880794701987	0.493139072847682	1.55390728476821	2.82781456953642	-0.86596026490066				-0.218172185430464	-0.193271523178808	-0.87194701986755	1.68741721854305	0.426490066225167	2.87973509933775				0.672529801324503	-0.240529801324503	-0.677721854304636	-1.71708609271523	10.2635761589404	-4.81562913907285				0.964026490066225	0.0674966887417219	0.0379337748344371	-2.5682119205298	4.81192052980133	-1.45748344370861				0.655788079470199	-0.0468344370860927	-0.708238410596026	-6.13960264900662	13.5976158940397	8.76529801324503			
26	520	-0.280158940397351	0.0987549668874172	-0.887523178807947	-1.36662251655629	1.5353642384106	0.775099337748344				0.880953642384106	0.0157880794701987	0.477139072847682	-0.406092715231788	5.06781456953642	0.53403973509934				-0.218172185430464	-0.177271523178808	-0.87194701986755	0.287417218543046	1.82649006622517	2.59973509933775				0.656529801324503	-0.224529801324503	-0.677721854304636	-1.15708609271523	9.7035761589404	-4.53562913907285				0.964026490066225	0.0514966887417219	0.0859337748344371	-5.3682119205298	7.33192052980133	-2.85748344370861				0.655788079470199	-0.0468344370860927	-0.708238410596026	-2.77960264900662	14.1576158940397	10.445298013245			
27	540	-0.264158940397351	0.0987549668874172	-0.935523178807947	-1.64662251655629	1.5353642384106	-0.624900662251656				0.896953642384106	0.0157880794701987	0.493139072847682	-1.52609271523179	8.42781456953642	1.37403973509934				-0.218172185430464	-0.193271523178808	-0.90394701986755	0.00741721854304636	-0.693509933774834	0.35973509933775				0.640529801324503	-0.240529801324503	-0.693721854304636	-1.15708609271523	11.6635761589404	-5.37562913907285				0.948026490066225	0.0674966887417219	0.0699337748344371	-6.7682119205298	10.6919205298013	-2.85748344370861				0.655788079470199	-0.0628344370860927	-0.692238410596026	0.860397350993377	14.4376158940397	11.565298013245			
28	560	-0.248158940397351	0.114754966887417	-0.935523178807947	-2.76662251655629	0.135364238410596	-0.344900662251656				0.912953642384106	0.0157880794701987	0.477139072847682	0.713907284768212	2.26781456953642	1.09403973509934				-0.202172185430464	-0.145271523178808	-0.87194701986755	-1.11258278145695	0.706490066225167	-0.48026490066225				0.640529801324503	-0.224529801324503	-0.693721854304636	-1.99708609271523	13.3435761589404	-6.21562913907285				0.964026490066225	0.0674966887417219	0.0699337748344371	-5.0882119205298	12.0919205298013	-2.85748344370861				0.655788079470199	-0.0628344370860927	-0.692238410596026	-0.819602649006623	15.8376158940397	12.965298013245			
29	580	-0.280158940397351	0.130754966887417	-0.935523178807947	-2.76662251655629	0.135364238410596	0.495099337748344				0.896953642384106	0.0157880794701987	0.445139072847682	1.27390728476821	-5.29218543046358	-0.0259602649006601				-0.234172185430464	-0.113271523178808	-0.87194701986755	-0.552582781456954	0.706490066225167	-1.88026490066225				0.672529801324503	-0.240529801324503	-0.693721854304636	-4.23708609271523	11.6635761589404	-6.21562913907285				0.964026490066225	0.0674966887417219	0.0699337748344371	-2.2882119205298	14.8919205298013	-2.29748344370861				0.671788079470199	-0.0468344370860927	-0.692238410596026	-8.65960264900662	18.6376158940397	15.765298013245			
30	600	-0.280158940397351	0.0987549668874172	-0.919523178807947	-2.76662251655629	1.2553642384106	1.05509933774834				0.896953642384106	0.0317880794701987	0.445139072847682	0.993907284768212	-3.05218543046358	-0.0259602649006601				-0.266172185430464	-0.129271523178808	-0.87194701986755	5.32741721854305	2.10649006622517	-1.32026490066225				0.672529801324503	-0.256529801324503	-0.661721854304636	-7.03708609271523	12.5035761589404	-4.81562913907285				0.980026490066225	0.0834966887417219	0.0539337748344371	-5.9282119205298	14.6119205298013	-2.57748344370861				0.671788079470199	-0.0628344370860927	-0.692238410596026	-3.33960264900662	18.0776158940397	16.325298013245			
31	620	-0.296158940397351	0.0987549668874172	-0.919523178807947	-2.20662251655629	2.3753642384106	1.05509933774834				0.912953642384106	0.0157880794701987	0.477139072847682	1.27390728476821	4.50781456953642	0.25403973509934				-0.250172185430464	-0.177271523178808	-0.88794701986755	6.72741721854305	2.94649006622517	-3.00026490066225				0.672529801324503	-0.240529801324503	-0.677721854304636	-9.55708609271523	10.2635761589404	-4.81562913907285				0.964026490066225	0.0514966887417219	0.0539337748344371	-5.0882119205298	14.0519205298013	-2.57748344370861				0.655788079470199	-0.0628344370860927	-0.708238410596026	0.300397350993377	15.2776158940397	18.565298013245			
32	640	-0.280158940397351	0.0987549668874172	-0.919523178807947	-3.32662251655629	1.5353642384106	0.495099337748344				0.912953642384106	0.0157880794701987	0.461139072847682	-1.52609271523179	3.10781456953642	-0.585960264900661				-0.234172185430464	-0.177271523178808	-0.87194701986755	6.72741721854305	0.146490066225167	-3.56026490066225				0.656529801324503	-0.256529801324503	-0.677721854304636	-10.9570860927152	9.9835761589404	-3.13562913907285				0.948026490066225	0.0514966887417219	0.0539337748344371	-4.8082119205298	14.6119205298013	-2.57748344370861				0.655788079470199	-0.0628344370860927	-0.692238410596026	-4.73960264900662	14.7176158940397	19.405298013245			
33	660	-0.280158940397351	0.114754966887417	-0.919523178807947	-6.68662251655629	0.695364238410596	1.05509933774834				0.912953642384106	0.0317880794701987	0.413139072847682	-3.48609271523179	-8.09218543046358	-2.54596026490066				-0.234172185430464	-0.161271523178808	-0.83994701986755	5.32741721854305	1.26649006622517	-1.32026490066225				0.640529801324503	-0.272529801324503	-0.677721854304636	-15.7170860927152	12.2235761589404	-2.29562913907285				0.948026490066225	0.0834966887417219	0.0539337748344371	-5.9282119205298	16.5719205298013	-2.85748344370861				0.655788079470199	-0.0308344370860927	-0.692238410596026	-5.57960264900662	12.7576158940397	19.965298013245			
34	680	-0.296158940397351	0.114754966887417	-0.919523178807947	-8.08662251655629	2.3753642384106	3.29509933774834				0.912953642384106	0.0637880794701987	0.317139072847682	5.47390728476821	-13.1321854304636	0.53403973509934				-0.266172185430464	-0.177271523178808	-0.83994701986755	7.56741721854305	1.54649006622517	-0.48026490066225				0.608529801324503	-0.256529801324503	-0.661721854304636	-17.1170860927152	12.7835761589404	-1.73562913907285				0.964026490066225	0.0674966887417219	0.0539337748344371	-7.6082119205298	18.2519205298013	-3.97748344370861				0.639788079470199	-0.0468344370860927	-0.692238410596026	-0.539602649006623	14.1576158940397	20.525298013245			
35	700	-0.296158940397351	0.0987549668874172	-0.903523178807947	-8.36662251655629	3.2153642384106	2.45509933774835				0.944953642384106	0.0637880794701987	0.365139072847682	12.4739072847682	-14.5321854304636	5.01403973509934				-0.266172185430464	-0.225271523178808	-0.88794701986755	11.487417218543	3.22649006622517	-0.48026490066225				0.624529801324503	-0.256529801324503	-0.645721854304636	-14.8770860927152	14.7435761589404	0.504370860927152				0.964026490066225	0.0514966887417219	0.0379337748344371	-8.4482119205298	18.5319205298013	-3.97748344370861				0.639788079470199	-0.0788344370860927	-0.708238410596026	-3.05960264900662	14.7176158940397	22.205298013245			
36	720	-0.296158940397351	0.114754966887417	-0.903523178807947	-10.6066225165563	1.8153642384106	1.05509933774834				0.896953642384106	0.0157880794701987	0.397139072847682	14.1539072847682	-6.97218543046358	3.61403973509934				-0.250172185430464	-0.177271523178808	-0.88794701986755	8.96741721854305	3.22649006622517	-0.76026490066225				0.608529801324503	-0.256529801324503	-0.661721854304636	-12.3570860927152	15.8635761589404	3.58437086092715				0.980026490066225	0.0514966887417219	0.0539337748344371	-8.1682119205298	19.6519205298013	-2.57748344370861				0.655788079470199	-0.0628344370860927	-0.724238410596026	-6.97960264900662	14.7176158940397	23.885298013245			
37	740	-0.296158940397351	0.146754966887417	-0.919523178807947	-12.2866225165563	0.135364238410596	2.45509933774835				0.880953642384106	-0.000211920529801304	0.413139072847682	2.67390728476821	-1.37218543046358	0.81403973509934				-0.234172185430464	-0.161271523178808	-0.83994701986755	8.96741721854305	0.706490066225167	0.35973509933775				0.640529801324503	-0.240529801324503	-0.693721854304636	-11.2370860927152	18.9435761589404	3.58437086092715				0.980026490066225	0.0674966887417219	0.00593377483443711	-8.4482119205298	16.5719205298013	-3.13748344370861				0.655788079470199	-0.0468344370860927	-0.708238410596026	-9.77960264900662	17.5176158940397	24.165298013245			
38	760	-0.312158940397351	0.130754966887417	-0.935523178807947	-14.5266225165563	2.0953642384106	4.41509933774834				0.928953642384106	-0.000211920529801304	0.397139072847682	-7.68609271523179	5.34781456953642	-1.98596026490066				-0.250172185430464	-0.209271523178808	-0.85594701986755	13.447417218543	2.10649006622517	2.31973509933775				0.640529801324503	-0.256529801324503	-0.693721854304636	-10.6770860927152	19.7835761589404	2.74437086092715				0.964026490066225	0.0834966887417219	0.0379337748344371	-8.4482119205298	19.9319205298013	-3.97748344370861				0.639788079470199	-0.0468344370860927	-0.724238410596026	-9.21960264900662	17.2376158940397	23.885298013245			
39	780	-0.280158940397351	0.114754966887417	-0.919523178807947	-15.9266225165563	4.6153642384106	3.85509933774834				0.928953642384106	0.0157880794701987	0.381139072847682	-5.72609271523179	5.06781456953642	1.65403973509934				-0.234172185430464	-0.241271523178808	-0.87194701986755	15.407417218543	4.62649006622517	1.75973509933775				0.656529801324503	-0.256529801324503	-0.693721854304636	-13.4770860927152	18.3835761589404	2.18437086092715				0.948026490066225	0.0514966887417219	0.0379337748344371	-7.8882119205298	21.6119205298013	-3.69748344370861				0.607788079470199	-0.0468344370860927	-0.724238410596026	-4.17960264900662	16.1176158940397	25.565298013245			
40	800	-0.264158940397351	0.114754966887417	-0.935523178807947	-17.6066225165563	4.6153642384106	2.45509933774835				0.896953642384106	-0.000211920529801304	0.413139072847682	-2.92609271523179	15.7078145695364	3.89403973509934				-0.234172185430464	-0.225271523178808	-0.88794701986755	11.487417218543	3.22649006622517	0.35973509933775				0.656529801324503	-0.272529801324503	-0.693721854304636	-18.5170860927152	16.4235761589404	1.34437086092715				0.948026490066225	0.0514966887417219	0.0379337748344371	-6.2082119205298	23.8519205298013	-3.13748344370861				0.607788079470199	-0.0788344370860927	-0.740238410596026	-3.89960264900662	17.7976158940397	31.445298013245			
41	820	-0.248158940397351	0.162754966887417	-0.935523178807947	-17.8866225165563	2.6553642384106	3.01509933774834				0.896953642384106	-0.000211920529801304	0.461139072847682	-9.36609271523179	24.3878145695364	5.01403973509934				-0.218172185430464	-0.209271523178808	-0.88794701986755	8.12741721854305	3.50649006622517	0.0797350993377501				0.640529801324503	-0.240529801324503	-0.693721854304636	-21.5970860927152	16.9835761589404	-2.01562913907285				0.948026490066225	0.0674966887417219	0.0379337748344371	-6.7682119205298	26.3719205298013	-3.13748344370861				0.607788079470199	-0.0948344370860927	-0.724238410596026	-4.17960264900662	19.7576158940397	35.085298013245			
42	840	-0.264158940397351	0.146754966887417	-0.951523178807947	-19.0066225165563	4.8953642384106	3.01509933774834				0.896953642384106	0.0477880794701987	0.445139072847682	-6.00609271523179	22.1478145695364	6.97403973509934				-0.218172185430464	-0.225271523178808	-0.85594701986755	11.767417218543	4.34649006622517	1.47973509933775				0.640529801324503	-0.240529801324503	-0.677721854304636	-22.7170860927152	19.7835761589404	-5.37562913907285				0.932026490066225	0.0674966887417219	0.0699337748344371	-5.3682119205298	30.2919205298013	-4.53748344370861				0.607788079470199	-0.110834437086093	-0.708238410596026	-8.37960264900662	21.4376158940397	40.685298013245			
43	860	-0.296158940397351	0.130754966887417	-0.919523178807947	-19.5666225165563	8.5353642384106	4.13509933774834				0.928953642384106	0.0797880794701987	0.365139072847682	7.15390728476821	10.3878145695364	8.37403973509934				-0.250172185430464	-0.241271523178808	-0.83994701986755	17.647417218543	5.18649006622517	0.91973509933775				0.640529801324503	-0.240529801324503	-0.677721854304636	-21.3170860927152	22.5835761589404	-5.09562913907285				0.932026490066225	0.0514966887417219	0.0539337748344371	-2.8482119205298	33.9319205298013	-5.09748344370861				0.623788079470199	-0.0788344370860927	-0.708238410596026	-6.97960264900662	28.4376158940397	45.165298013245			
44	880	-0.296158940397351	0.130754966887417	-0.903523178807947	-21.2466225165563	6.8553642384106	2.17509933774834				0.944953642384106	0.0957880794701987	0.285139072847682	17.7939072847682	-0.532185430463576	10.3340397350993				-0.282172185430464	-0.209271523178808	-0.83994701986755	12.607417218543	8.54649006622517	2.03973509933775				0.640529801324503	-0.256529801324503	-0.661721854304636	-22.7170860927152	23.9835761589404	-5.09562913907285				0.932026490066225	0.0674966887417219	0.0539337748344371	-3.1282119205298	35.8919205298013	-5.65748344370861				0.607788079470199	-0.0788344370860927	-0.708238410596026	-2.49960264900662	29.8376158940397	47.125298013245			
45	900	-0.344158940397351	0.178754966887417	-0.903523178807947	-27.6866225165563	5.7353642384106	2.73509933774834				0.912953642384106	-0.0482119205298013	0.301139072847682	6.87390728476821	-3.89218543046358	13.4140397350993				-0.250172185430464	-0.177271523178808	-0.82394701986755	14.847417218543	6.58649006622517	2.03973509933775				0.640529801324503	-0.224529801324503	-0.677721854304636	-22.7170860927152	22.0235761589404	-4.81562913907285				0.932026490066225	0.0674966887417219	0.0539337748344371	-4.2482119205298	35.0519205298013	-6.77748344370861				0.623788079470199	-0.0788344370860927	-0.692238410596026	3.66039735099338	27.8776158940397	45.165298013245			
46	920	-0.376158940397351	0.194754966887417	-0.903523178807947	-33.0066225165563	7.1353642384106	5.25509933774834				0.880953642384106	-0.0322119205298013	0.349139072847682	-10.2060927152318	4.78781456953642	13.1340397350993				-0.266172185430464	-0.177271523178808	-0.83994701986755	17.087417218543	3.78649006622517	1.47973509933775				0.656529801324503	-0.224529801324503	-0.677721854304636	-22.1570860927152	21.4635761589404	-2.57562913907285				0.964026490066225	0.0834966887417219	0.0539337748344371	-2.0082119205298	34.7719205298013	-7.61748344370861				0	0	0	0	0	0			
47	940	-0.360158940397351	0.178754966887417	-0.935523178807947	-32.1666225165563	9.9353642384106	7.49509933774834				0.912953642384106	0.0637880794701987	0.381139072847682	-7.68609271523179	21.5878145695364	13.9740397350993				-0.298172185430464	-0.177271523178808	-0.87194701986755	26.3274172185431	0.986490066225167	3.15973509933775				0	0	0	0	0	0				0	0	0	0	0	0				0.607788079470199	-0.110834437086093	-0.692238410596026	5.06039735099338	27.8776158940397	47.125298013245			
48	960	-0.328158940397351	0.210754966887417	-0.983523178807947	-36.0866225165563	8.5353642384106	7.49509933774834				0.912953642384106	0.0477880794701987	0.349139072847682	8.55390728476821	18.5078145695364	16.7740397350993				-0.298172185430464	-0.273271523178808	-0.87194701986755	24.3674172185431	13.3064900662252	-0.48026490066225				0.688529801324503	-0.224529801324503	-0.661721854304636	-18.5170860927152	23.4235761589404	-2.57562913907285				0.932026490066225	0.0674966887417219	0.101933774834437	3.8717880794702	36.1719205298013	-7.05748344370861				0.591788079470199	-0.126834437086093	-0.708238410596026	3.94039735099338	31.7976158940397	54.125298013245			
49	980	-0.360158940397351	0.306754966887417	-1.01552317880795	-40.5666225165563	10.2153642384106	13.3750993377483				0.880953642384106	0.0157880794701987	0.381139072847682	11.3539072847682	21.8678145695364	13.9740397350993				-0.298172185430464	-0.209271523178808	-0.85594701986755	27.447417218543	12.4664900662252	0.63973509933775				0.752529801324503	-0.192529801324503	-0.661721854304636	-21.5970860927152	17.8235761589404	-4.81562913907285				0.948026490066225	0.0994966887417219	0.133933774834437	6.6717880794702	37.0119205298013	-7.05748344370861				0.607788079470199	-0.110834437086093	-0.676238410596026	-5.85960264900662	33.4776158940397	57.485298013245			
50	1000	-0.296158940397351	0.242754966887417	-1.04752317880795	-41.6866225165563	27.5753642384106	24.8550993377483				0.928953642384106	0.0477880794701987	0.349139072847682	8.83390728476821	35.8678145695364	12.8540397350993				-0.298172185430464	-0.113271523178808	-0.95194701986755	35.567417218543	8.82649006622517	3.71973509933775				0.992529801324503	-0.160529801324503	-0.629721854304636	-28.8770860927152	7.4635761589404	-2.29562913907285				0.980026490066225	0.147496688741722	0.149933774834437	11.7117880794702	37.5719205298013	-8.45748344370861				0.623788079470199	-0.0948344370860927	-0.676238410596026	-8.37960264900662	34.8776158940397	55.525298013245			
51	1020	-0.296158940397351	0.242754966887417	-0.967523178807947	-44.7666225165563	29.8153642384106	31.8550993377483				0.912953642384106	0.0957880794701987	0.653139072847682	7.43390728476821	58.8278145695364	17.3340397350993				-0.298172185430464	-0.321271523178808	-1.04794701986755	28.0074172185431	23.3864900662252	-4.96026490066225				1.0885298013245	-0.144529801324503	-0.581721854304636	-32.2370860927152	5.7835761589404	0.224370860927152				0.996026490066225	0.227496688741722	0.245933774834437	20.6717880794702	36.1719205298013	-10.1374834437086				0.607788079470199	-0.0788344370860927	-0.692238410596026	-0.819602649006623	38.2376158940397	55.245298013245			
52	1040	-0.248158940397351	0.274754966887417	-0.935523178807947	-47.0066225165563	26.1753642384106	32.1350993377484				0.944953642384106	0.0957880794701987	0.749139072847682	7.71390728476821	64.7078145695364	21.5340397350993				-0.250172185430464	-0.401271523178808	-0.93594701986755	33.327417218543	43.5464900662252	-13.9202649006623				0.896529801324503	-0.0965298013245033	-0.533721854304636	-5.63708609271523	27.6235761589404	-5.09562913907285				1.01202649006623	0.243496688741722	0.309933774834437	37.1917880794702	34.2119205298013	-13.7774834437086				0.591788079470199	-0.126834437086093	-0.676238410596026	15.1403973509934	41.8776158940397	58.045298013245			
53	1060	-0.232158940397351	0.258754966887417	-0.951523178807947	-52.3266225165563	36.2553642384106	34.9350993377483				0.960953642384106	0.0157880794701987	0.781139072847682	18.9139072847682	58.2678145695364	28.2540397350993				-0.186172185430464	-0.273271523178808	-0.93594701986755	43.1274172185431	46.9064900662252	-15.3202649006623				0.768529801324503	-0.144529801324503	-0.565721854304636	16.7629139072848	39.6635761589404	-10.4156291390728				0.948026490066225	0.243496688741722	0.373933774834437	53.9917880794702	39.2519205298013	-17.9774834437086				0.623788079470199	-0.174834437086093	-0.660238410596027	18.5003973509934	41.0376158940397	58.885298013245			
54	1080	-0.248158940397351	0.274754966887417	-1.03152317880795	-35.8066225165563	36.8153642384106	37.7350993377484				0.960953642384106	0.0157880794701987	0.861139072847682	31.5139072847682	68.9078145695364	28.2540397350993				-0.218172185430464	-0.337271523178808	-1.01594701986755	29.1274172185431	37.1064900662252	-14.7602649006622				0.848529801324503	-0.208529801324503	-0.581721854304636	14.2429139072848	43.8635761589404	-12.9356291390728				0.916026490066225	0.195496688741722	0.389933774834437	61.5517880794702	43.4519205298013	-19.6574834437086				0.735788079470199	-0.222834437086093	-0.612238410596026	14.5803973509934	48.5976158940397	53.845298013245			
55	1100	-0.312158940397351	0.402754966887417	-1.01552317880795	-20.1266225165563	40.4553642384106	41.6550993377484				0.976953642384106	-0.0162119205298013	0.973139072847682	32.9139072847682	77.3078145695364	27.4140397350993				-0.234172185430464	-0.369271523178808	-0.95194701986755	-10.352582781457	33.4664900662252	-12.5202649006623				0.976529801324503	-0.224529801324503	-0.613721854304636	19.0029139072848	51.9835761589404	-11.5356291390728				0.980026490066225	0.131496688741722	0.453933774834437	62.1117880794702	61.0919205298013	-24.1374834437086				0.927788079470199	-0.222834437086093	-0.564238410596026	21.5803973509934	61.1976158940397	49.645298013245			
56	1120	-0.296158940397351	0.354754966887417	-0.967523178807947	-15.0866225165563	50.2553642384106	42.2150993377483				1.02495364238411	-0.0322119205298013	0.957139072847682	35.4339072847682	52.9478145695364	21.8140397350993				-0.202172185430464	-0.321271523178808	-0.88794701986755	-5.31258278145695	44.1064900662252	-16.1602649006623				1.0885298013245	-0.0805298013245033	-0.677721854304636	36.0829139072848	63.4635761589404	-22.7356291390728				1.06002649006623	0.131496688741722	0.533933774834437	55.6717880794702	70.6119205298013	-30.8574834437086				1.0077880794702	-0.286834437086093	-0.468238410596026	42.8603973509934	60.3576158940397	30.045298013245			
57	1140	-0.232158940397351	0.450754966887417	-0.951523178807947	-11.4466225165563	56.4153642384106	39.1350993377484				0.992953642384106	-0.0962119205298013	0.893139072847682	30.9539072847682	33.3478145695364	22.0940397350993				-0.170172185430464	-0.369271523178808	-0.85594701986755	7.56741721854305	55.5864900662252	-17.5602649006623				1.1205298013245	-0.112529801324503	-0.645721854304636	23.2029139072848	54.2235761589404	-33.3756291390728				1.10802649006623	0.211496688741722	0.629933774834437	55.1117880794702	63.8919205298013	-35.8974834437086				1.0237880794702	-0.446834437086093	-0.388238410596026	71.4203973509934	48.0376158940397	-1.31470198675497			
58	1160	-0.184158940397351	0.434754966887417	-0.887523178807947	-0.246622516556291	58.9353642384106	36.0550993377484				0.960953642384106	-0.112211920529801	0.765139072847682	32.6339072847682	25.5078145695364	17.6140397350993				-0.170172185430464	-0.353271523178808	-0.90394701986755	1.68741721854305	52.5064900662252	-19.2402649006623				1.1205298013245	-0.144529801324503	-0.597721854304636	7.24291390728477	32.9435761589404	-37.5756291390729				1.12402649006623	0.195496688741722	0.661933774834437	45.8717880794702	52.1319205298013	-40.3774834437086				1.1517880794702	-0.542834437086093	-0.276238410596026	64.7003973509934	32.9176158940397	-17.274701986755			
59	1180	-0.152158940397351	0.402754966887417	-0.839523178807947	6.75337748344371	60.0553642384106	33.2550993377483				0.928953642384106	0.0317880794701987	0.749139072847682	48.0339072847682	22.1478145695364	8.37403973509934				-0.138172185430464	-0.305271523178808	-0.93594701986755	-2.79258278145695	58.9464900662252	-19.2402649006623				1.0245298013245	-0.0485298013245033	-0.501721854304636	12.0029139072848	23.9835761589404	-39.8156291390729				1.07602649006623	0.243496688741722	0.709933774834437	31.5917880794702	37.2919205298013	-37.0174834437086				1.1517880794702	-0.638834437086093	-0.324238410596026	29.9803973509934	33.1976158940397	-24.274701986755			
60	1200	-0.120158940397351	0.434754966887417	-0.823523178807947	10.9533774834437	65.3753642384106	31.5750993377483				0.864953642384106	0.0317880794701987	0.733139072847682	56.1539072847682	14.8678145695364	1.93403973509934				-0.0741721854304636	-0.209271523178808	-0.98394701986755	-1.95258278145695	64.8264900662252	-20.0802649006623				0.912529801324503	0.0954701986754967	-0.389721854304636	13.1229139072848	17.5435761589404	-53.5356291390729				0.884026490066225	0.339496688741722	0.661933774834437	28.5117880794702	21.6119205298013	-24.4174834437086				1.1037880794702	-0.606834437086093	-0.324238410596026	14.8603973509934	40.4776158940397	-35.474701986755			
61	1220	-0.088158940397351	0.386754966887417	-0.903523178807947	14.3133774834437	74.6153642384106	29.0550993377483				0.848953642384106	-0.0162119205298013	0.765139072847682	39.9139072847682	26.9078145695364	-0.30596026490066				0.00582781456953642	-0.209271523178808	-0.91994701986755	6.44741721854305	70.4264900662252	-18.4002649006623				0.832529801324503	0.111470198675497	-0.389721854304636	20.4029139072848	8.3035761589404	-58.5756291390729				0.916026490066225	0.371496688741722	0.533933774834437	40.2717880794702	31.4119205298013	-20.7774834437086				1.0397880794702	-0.462834437086093	-0.292238410596026	22.1403973509934	44.1176158940397	-35.474701986755			
62	1240	-0.008158940397351	0.402754966887417	-0.983523178807947	14.5933774834437	77.9753642384106	32.1350993377484				0.928953642384106	-0.0322119205298013	0.877139072847682	11.0739072847682	35.3078145695364	0.25403973509934				0.133827814569536	-0.289271523178808	-0.96794701986755	17.3674172185431	74.9064900662252	-22.8802649006623				1.0405298013245	0.0954701986754967	-0.421721854304636	20.6829139072848	-0.0964238410596001	-46.8156291390729				0.996026490066225	0.307496688741722	0.613933774834437	41.1117880794702	42.0519205298013	-22.4574834437086				0.991788079470199	-0.462834437086093	-0.228238410596026	42.8603973509934	43.5576158940397	-28.194701986755			
63	1260	0.119841059602649	0.402754966887417	-1.01552317880795	13.4733774834437	80.7753642384106	33.2550993377483				0.960953642384106	0.0797880794701987	0.957139072847682	4.91390728476821	26.9078145695364	-0.30596026490066				0.181827814569536	-0.305271523178808	-0.95194701986755	14.007417218543	77.1464900662252	-23.4402649006623				1.1525298013245	-0.0165298013245033	-0.549721854304636	20.1229139072848	-3.7364238410596	-34.2156291390729				1.06002649006623	0.339496688741722	0.661933774834437	24.5917880794702	27.2119205298013	-22.4574834437086				1.0877880794702	-0.558834437086093	-0.196238410596026	43.7003973509934	46.9176158940397	-27.354701986755			
64	1280	0.119841059602649	0.402754966887417	-0.967523178807947	13.1933774834437	81.6153642384106	33.2550993377483				0.944953642384106	0.0477880794701987	0.877139072847682	5.75390728476821	13.4678145695364	-1.42596026490066				0.197827814569536	-0.289271523178808	-0.99994701986755	13.447417218543	75.1864900662252	-24.8402649006623				1.0725298013245	-0.128529801324503	-0.741721854304636	13.6829139072848	6.6235761589404	-40.9356291390729				1.09202649006623	0.403496688741722	0.629933774834437	15.6317880794702	14.6119205298013	-21.8974834437086				1.2797880794702	-0.654834437086093	-0.276238410596026	12.6203973509934	43.8376158940397	-35.754701986755			
65	1300	0.135841059602649	0.418754966887417	-0.951523178807947	17.9533774834437	80.4953642384106	34.9350993377483				0.944953642384106	-0.0162119205298013	0.829139072847682	9.67390728476821	8.70781456953642	-6.46596026490066				0.197827814569536	-0.369271523178808	-0.99994701986755	17.087417218543	78.5464900662252	-24.5602649006623				1.0725298013245	-0.0645298013245033	-0.693721854304636	-12.3570860927152	-4.8564238410596	-39.8156291390729				1.09202649006623	0.387496688741722	0.581933774834437	12.8317880794702	10.6919205298013	-20.7774834437086				1.3597880794702	-0.606834437086093	-0.324238410596026	5.90039735099338	33.7576158940397	-39.394701986755			
66	1320	0.135841059602649	0.402754966887417	-0.983523178807947	17.6733774834437	85.2553642384106	34.9350993377483				0.912953642384106	-0.0322119205298013	0.893139072847682	6.87390728476821	16.5478145695364	-11.7859602649007				0.165827814569536	-0.401271523178808	-0.93594701986755	10.927417218543	84.1464900662252	-24.0002649006623				1.1685298013245	0.127470198675497	-0.549721854304636	-27.4770860927152	-22.7764238410596	-33.3756291390728				1.06002649006623	0.387496688741722	0.693933774834437	11.4317880794702	5.65192052980133	-18.8174834437086				1.2157880794702	-0.494834437086093	-0.340238410596026	0.580397350993377	19.1976158940397	-36.594701986755			
67	1340	0.215841059602649	0.434754966887417	-0.951523178807947	32.7933774834437	92.5353642384106	34.3750993377484				0.944953642384106	0.143788079470199	0.973139072847682	18.6339072847682	25.2278145695364	-13.7459602649007				0.197827814569536	-0.353271523178808	-0.90394701986755	6.16741721854305	93.6664900662252	-21.7602649006623				1.1685298013245	0.191470198675497	-0.421721854304636	-17.9570860927152	-34.5364238410596	-27.7756291390729				1.01202649006623	0.499496688741722	0.725933774834437	-3.9682119205298	-7.22807947019868	-12.3774834437086				1.1837880794702	-0.510834437086093	-0.404238410596026	-4.17960264900662	9.95761589403974	-23.434701986755			
68	1360	0.199841059602649	0.338754966887417	-0.903523178807947	42.3133774834437	101.215364238411	35.2150993377483				1.12095364238411	0.143788079470199	1.08513907284768	39.6339072847682	22.9878145695364	-14.8659602649007				0.261827814569536	-0.353271523178808	-0.87194701986755	10.087417218543	103.466490066225	-19.2402649006623				0.944529801324503	0.175470198675497	-0.517721854304636	-10.9570860927152	-29.4964238410596	-24.4156291390728				1.02802649006623	0.547496688741722	0.613933774834437	0.791788079470198	-12.2680794701987	-8.17748344370861				1.1997880794702	-0.622834437086093	-0.260238410596026	8.70039735099338	16.9576158940397	-7.19470198675497			
69	1380	0.263841059602649	0.258754966887417	-0.903523178807947	48.4733774834437	107.655364238411	33.2550993377483				0.976953642384106	0.0637880794701987	1.02113907284768	37.3939072847682	-11.1721854304636	-18.5059602649007				0.341827814569536	-0.369271523178808	-0.90394701986755	8.40741721854305	109.906490066225	-18.4002649006623				1.0565298013245	0.175470198675497	-0.565721854304636	9.48291390728477	-5.9764238410596	-15.1756291390728				1.06002649006623	0.467496688741722	0.661933774834437	8.0717880794702	-0.788079470198675	-9.57748344370861				1.2157880794702	-0.622834437086093	-0.260238410596026	-36.0996026490066	24.5176158940397	0.365298013245032			
70	1400	0.311841059602649	0.274754966887417	-0.935523178807947	48.7533774834437	111.015364238411	32.4150993377484				0.864953642384106	-0.0162119205298013	0.861139072847682	15.5539072847682	-18.4521854304636	-14.5859602649007				0.357827814569536	-0.369271523178808	-0.88794701986755	1.40741721854305	111.586490066225	-18.1202649006623				1.1845298013245	0.0634701986754967	-0.565721854304636	4.44291390728477	6.3435761589404	-5.37562913907285				1.06002649006623	0.451496688741722	0.677933774834437	-5.0882119205298	-7.22807947019868	-8.17748344370861				1.2957880794702	-0.494834437086093	-0.388238410596026	-47.5796026490066	15.5576158940397	15.205298013245			
71	1420	0.359841059602649	0.274754966887417	-0.919523178807947	60.2333774834437	116.335364238411	31.2950993377483				0.896953642384106	0.0477880794701987	0.861139072847682	5.47390728476821	5.06781456953642	-13.4659602649007				0.405827814569536	-0.385271523178808	-0.83994701986755	0.287417218543046	112.986490066225	-16.4402649006623				1.0565298013245	0.127470198675497	-0.517721854304636	-6.75708609271523	8.3035761589404	-8.73562913907285				1.01202649006623	0.435496688741722	0.629933774834437	-9.8482119205298	-9.74807947019868	-3.69748344370861				1.2477880794702	-0.478834437086093	-0.356238410596026	-10.0596026490066	0.437615894039735	22.205298013245			
72	1440	0.407841059602649	0.162754966887417	-0.887523178807947	74.2333774834437	117.735364238411	28.2150993377483				0.912953642384106	0.0477880794701987	0.973139072847682	-3.48609271523179	-3.05218543046358	-14.8659602649007				0.453827814569536	-0.401271523178808	-0.79194701986755	-5.87258278145695	115.226490066225	-16.4402649006623				0.896529801324503	0.191470198675497	-0.533721854304636	2.48291390728477	3.8235761589404	-13.7756291390728				0.948026490066225	0.371496688741722	0.613933774834437	-8.4482119205298	-10.8680794701987	-1.73748344370861				1.1357880794702	-0.414834437086093	-0.244238410596026	3.10039735099338	-4.60238410596027	18.565298013245			
73	1460	0.455841059602649	0.0827549668874172	-0.759523178807947	75.6333774834437	120.815364238411	27.9350993377483				0.896953642384106	-0.0162119205298013	0.957139072847682	-3.20609271523179	-35.5321854304636	-12.9059602649007				0.453827814569536	-0.417271523178808	-0.71194701986755	-10.632582781457	119.986490066225	-17.2802649006623				1.0245298013245	0.143470198675497	-0.501721854304636	8.92291390728477	2.7035761589404	-2.29562913907285				0.932026490066225	0.419496688741722	0.629933774834437	-14.6082119205298	-13.3880794701987	1.06251655629139				1.0877880794702	-0.414834437086093	-0.228238410596026	-13.6996026490066	2.67761589403974	13.805298013245			
74	1480	0.503841059602649	0.0507549668874172	-0.711523178807947	68.0733774834437	125.855364238411	24.5750993377483				0.816953642384106	0.0157880794701987	0.925139072847682	-4.88609271523179	-33.5721854304636	-9.82596026490066				0.469827814569536	-0.353271523178808	-0.69594701986755	-16.232582781457	127.266490066225	-18.4002649006623				1.0725298013245	0.111470198675497	-0.469721854304636	11.4429139072848	5.7835761589404	6.66437086092715				0.932026490066225	0.419496688741722	0.629933774834437	-17.4082119205298	-14.7880794701987	4.42251655629139				1.0877880794702	-0.430834437086093	-0.228238410596026	-15.9396026490066	4.63761589403974	13.525298013245			
75	1500	0.551841059602649	0.00275496688741723	-0.695523178807947	61.9133774834437	131.175364238411	24.0150993377483				0.880953642384106	0.0477880794701987	0.781139072847682	-9.08609271523179	-36.0921854304636	-8.70596026490066				0.501827814569536	-0.337271523178808	-0.58394701986755	-13.992582781457	133.146490066225	-17.8402649006623				0.976529801324503	0.0474701986754967	-0.517721854304636	13.6829139072848	12.2235761589404	3.58437086092715				0.932026490066225	0.371496688741722	0.581933774834437	-13.4882119205298	-13.3880794701987	6.66251655629139				1.0557880794702	-0.446834437086093	-0.260238410596026	-1.93960264900662	1.27761589403974	8.20529801324503			
76	1520	0.647841059602649	-0.0292450331125828	-0.711523178807947	53.5133774834437	136.215364238411	17.5750993377483				0.768953642384106	0.0317880794701987	0.701139072847682	-11.8860927152318	-43.3721854304636	-5.90596026490066				0.565827814569536	-0.289271523178808	-0.55194701986755	-14.552582781457	138.466490066225	-17.2802649006623				0.912529801324503	0.0634701986754967	-0.469721854304636	0.802913907284768	9.7035761589404	-2.85562913907285				0.900026490066225	0.307496688741722	0.565933774834437	-15.4482119205298	-9.74807947019868	7.78251655629139				1.0397880794702	-0.430834437086093	-0.260238410596026	-6.97960264900662	3.51761589403974	2.04529801324503			
77	1540	0.727841059602649	-0.0452450331125828	-0.663523178807947	46.7933774834437	137.895364238411	13.0950993377483				0.720953642384106	-0.0162119205298013	0.701139072847682	-11.8860927152318	-37.7721854304636	-3.10596026490066				0.629827814569536	-0.241271523178808	-0.50394701986755	-16.792582781457	144.346490066225	-17.5602649006623				0.880529801324503	0.143470198675497	-0.357721854304636	9.76291390728477	11.1035761589404	-0.615629139072848				0.836026490066225	0.291496688741722	0.533933774834437	-19.9282119205298	-11.9880794701987	10.5825165562914				0.975788079470199	-0.414834437086093	-0.276238410596026	-17.3396026490066	1.55761589403974	5.68529801324503			
78	1560	0.759841059602649	-0.0772450331125828	-0.631523178807947	43.1533774834437	135.935364238411	11.1350993377483				0.752953642384106	-0.000211920529801304	0.685139072847682	-13.5660927152318	-31.0521854304636	-1.70596026490066				0.661827814569536	-0.225271523178808	-0.47194701986755	-13.152582781457	150.226490066225	-17.2802649006623				0.816529801324503	0.127470198675497	-0.357721854304636	19.5629139072848	14.1835761589404	3.02437086092715				0.788026490066225	0.291496688741722	0.517933774834437	-20.4882119205298	-14.2280794701987	14.5025165562914				0.927788079470199	-0.366834437086093	-0.260238410596026	13.4603973509934	-5.44238410596027	6.52529801324503			
79	1580	0.743841059602649	-0.109245033112583	-0.599523178807947	32.5133774834437	132.015364238411	8.05509933774835				0.736953642384106	-0.000211920529801304	0.653139072847682	-13.0060927152318	-36.6521854304636	0.25403973509934				0.709827814569536	-0.225271523178808	-0.47194701986755	-13.432582781457	149.106490066225	-16.7202649006623				0.768529801324503	0.0474701986754967	-0.341721854304636	17.8829139072848	17.2635761589404	4.42437086092715				0.772026490066225	0.259496688741722	0.485933774834437	-20.4882119205298	-13.9480794701987	18.1425165562914				0.847788079470199	-0.398834437086093	-0.212238410596026	11.7803973509934	-4.32238410596027	4.56529801324503			
80	1600	0.711841059602649	0.00275496688741723	-0.471523178807947	23.8333774834437	131.455364238411	2.17509933774834				0.688953642384106	-0.0482119205298013	0.605139072847682	-13.5660927152318	-41.4121854304636	6.13403973509934				0.709827814569536	-0.273271523178808	-0.45594701986755	-5.03258278145695	153.586490066225	-15.6002649006622				0.768529801324503	0.0954701986754967	-0.325721854304636	15.3629139072848	15.3035761589404	7.78437086092715				0.756026490066225	0.259496688741722	0.453933774834437	-22.7282119205298	-14.7880794701987	20.9425165562914				0.831788079470199	-0.398834437086093	-0.244238410596026	-18.4596026490066	-4.04238410596027	5.68529801324503			
81	1620	0.599841059602649	0.0187549668874172	-0.439523178807947	25.2333774834437	130.335364238411	-3.42490066225166				0.688953642384106	-0.160211920529801	0.621139072847682	-24.7660927152318	-51.2121854304636	13.6940397350993				0.709827814569536	-0.305271523178808	-0.42394701986755	11.207417218543	159.186490066225	-18.6802649006623				0.784529801324503	0.0954701986754967	-0.293721854304636	23.4829139072848	13.0635761589404	14.7843708609272				0.724026490066225	0.259496688741722	0.453933774834437	-21.8882119205298	-21.5080794701987	24.3025165562914				0.799788079470199	-0.366834437086093	-0.228238410596026	-8.65960264900662	-15.8023841059603	10.165298013245			
82	1640	0.647841059602649	-0.0292450331125828	-0.439523178807947	20.4733774834437	139.575364238411	-7.34490066225166				0.688953642384106	-0.0162119205298013	0.669139072847682	-33.1660927152318	-20.6921854304636	8.37403973509934				0.741827814569536	-0.337271523178808	-0.37594701986755	6.44741721854305	160.586490066225	-21.4802649006623				0.736529801324503	0.0794701986754967	-0.277721854304636	27.4029139072848	9.9835761589404	19.8243708609272				0.676026490066225	0.227496688741722	0.469933774834437	-23.2882119205298	-21.5080794701987	26.8225165562914				0.751788079470199	-0.366834437086093	-0.196238410596026	-11.4596026490066	-19.1623841059603	13.525298013245			
83	1660	0.743841059602649	-0.0292450331125828	-0.423523178807947	17.6733774834437	149.095364238411	-9.58490066225166				0.624953642384106	-0.0322119205298013	0.445139072847682	-29.2460927152318	-62.9721854304636	12.2940397350993				0.789827814569536	-0.353271523178808	-0.26394701986755	-7.55258278145695	152.466490066225	-27.0802649006623				0.672529801324503	0.0314701986754967	-0.261721854304636	21.5229139072848	6.6235761589404	22.6243708609272				0.644026490066225	0.195496688741722	0.453933774834437	-24.6882119205298	-26.2680794701987	31.5825165562914				0.735788079470199	-0.366834437086093	-0.180238410596026	-27.6996026490066	-16.3623841059603	15.205298013245			
84	1680	0.807841059602649	-0.0292450331125828	-0.375523178807947	24.1133774834437	158.335364238411	-10.7049006622517				0.592953642384106	-0.0162119205298013	0.413139072847682	-24.2060927152318	-50.9321854304636	11.1740397350993				0.773827814569536	-0.289271523178808	-0.21594701986755	-29.952582781457	147.706490066225	-27.3602649006623				0.656529801324503	0.0314701986754967	-0.245721854304636	13.1229139072848	1.8635761589404	26.5443708609272				0.612026490066225	0.163496688741722	0.405933774834437	-26.6482119205298	-29.0680794701987	34.9425165562914				0.687788079470199	-0.286834437086093	-0.196238410596026	-22.3796026490066	-25.0423841059603	14.085298013245			
85	1700	0.823841059602649	-0.0452450331125828	-0.407523178807947	28.5933774834437	160.015364238411	-14.9049006622517				0.544953642384106	0.0477880794701987	0.509139072847682	-21.1260927152318	-38.6121854304636	10.0540397350993				0.773827814569536	-0.209271523178808	-0.18394701986755	-36.392582781457	141.546490066225	-25.9602649006623				0.688529801324503	0.0314701986754967	-0.245721854304636	11.4429139072848	1.0235761589404	30.1843708609272				0.628026490066225	0.179496688741722	0.373933774834437	-25.2482119205298	-29.9080794701987	36.0625165562914				0.639788079470199	-0.270834437086093	-0.180238410596026	-5.01960264900662	-35.9623841059603	8.20529801324503			
86	1720	0.775841059602649	-0.0292450331125828	-0.327523178807947	22.7133774834437	147.415364238411	-13.7849006622517				0.496953642384106	-0.0322119205298013	0.509139072847682	-16.3660927152318	-34.9721854304636	12.5740397350993				0.773827814569536	-0.145271523178808	-0.16794701986755	-44.512582781457	134.546490066225	-23.1602649006623				0.704529801324503	-0.000529801324503289	-0.229721854304636	10.6029139072848	-2.0564238410596	32.1443708609272				0.596026490066225	0.163496688741722	0.373933774834437	-18.2482119205298	-34.3880794701987	37.4625165562914				0.623788079470199	-0.270834437086093	-0.164238410596026	-1.37960264900662	-39.3223841059603	-3.55470198675497			
87	1740	0.743841059602649	-0.0292450331125828	-0.215523178807947	37.2733774834437	151.335364238411	-12.9449006622517				0.496953642384106	-0.0162119205298013	0.525139072847682	-17.2060927152318	-34.6921854304636	13.9740397350993				0.773827814569536	-0.0972715231788079	-0.15194701986755	-45.352582781457	132.306490066225	-19.8002649006623				0.704529801324503	0.0154701986754967	-0.197721854304636	8.08291390728477	-11.5764238410596	33.5443708609272				0.532026490066225	0.163496688741722	0.389933774834437	-21.0482119205298	-38.3080794701987	38.8625165562914				0.607788079470199	-0.286834437086093	-0.244238410596026	-30.4996026490066	-43.2423841059603	-4.39470198675497			
88	1760	0.775841059602649	-0.0452450331125828	-0.183523178807947	39.7933774834437	148.815364238411	-14.6249006622517				0.528953642384106	0.0157880794701987	0.477139072847682	-21.4060927152318	-40.2921854304636	10.3340397350993				0.789827814569536	-0.0972715231788079	-0.11994701986755	-38.632582781457	129.506490066225	-20.0802649006623				0.656529801324503	0.0314701986754967	-0.181721854304636	12.2829139072848	-14.3764238410596	35.5043708609272				0.548026490066225	0.131496688741722	0.341933774834437	-16.0082119205298	-39.9880794701987	38.5825165562914				0.527788079470199	-0.254834437086093	-0.276238410596026	-13.1396026490066	-54.4423841059603	2.04529801324503			
89	1780	0.807841059602649	-0.0932450331125828	-0.119523178807947	30.8333774834437	143.775364238411	-15.7449006622517				0.464953642384106	0.0317880794701987	0.413139072847682	-23.9260927152318	-38.3321854304636	12.5740397350993				0.805827814569536	-0.0972715231788079	-0.10394701986755	-28.832582781457	130.346490066225	-16.7202649006623				0.608529801324503	0.0154701986754967	-0.149721854304636	20.1229139072848	-16.0564238410596	36.3443708609272				0.516026490066225	0.131496688741722	0.325933774834437	-8.4482119205298	-38.8680794701987	38.5825165562914				0.447788079470199	-0.206834437086093	-0.228238410596026	6.46039735099338	-59.7623841059603	3.16529801324503			
90	1800	0.775841059602649	-0.0132450331125828	-0.119523178807947	31.3933774834437	136.495364238411	-14.6249006622517				0.432953642384106	-0.0482119205298013	0.477139072847682	-19.1660927152318	-31.3321854304636	25.1740397350993				0.869827814569536	-0.0972715231788079	-0.11994701986755	-17.912582781457	121.666490066225	-13.0802649006623				0.688529801324503	-0.000529801324503289	-0.149721854304636	25.4429139072848	-18.2964238410596	34.1043708609272				0.500026490066225	0.115496688741722	0.293933774834437	-4.2482119205298	-39.9880794701987	36.0625165562914				0.415788079470199	-0.206834437086093	-0.196238410596026	-12.5796026490066	-51.6423841059603	-0.474701986754968			
91	1820	0.791841059602649	0.00275496688741723	-0.087523178807947	24.9533774834437	122.215364238411	-12.9449006622517				0.464953642384106	0.0317880794701987	0.461139072847682	-9.64609271523179	-34.6921854304636	18.1740397350993				0.789827814569536	-0.161271523178808	-0.10394701986755	-5.59258278145695	112.426490066225	-15.0402649006623				0.752529801324503	-0.0165298013245033	-0.149721854304636	21.2429139072848	-25.8564238410596	31.8643708609272				0.548026490066225	0.0994966887417219	0.309933774834437	3.3117880794702	-39.7080794701987	33.8225165562914				0.431788079470199	-0.222834437086093	-0.212238410596026	-10.3396026490066	-50.8023841059603	-2.71470198675497			
92	1840	0.871841059602649	-0.0452450331125828	0.00847682119205304	12.9133774834437	107.935364238411	-10.9849006622517				0.480953642384106	0.0637880794701987	0.429139072847682	-4.88609271523179	-33.5721854304636	15.3740397350993				0.757827814569536	-0.177271523178808	-0.0239470198675496	0.847417218543046	100.666490066225	-11.9602649006623				0.656529801324503	-0.0645298013245033	-0.197721854304636	16.2029139072848	-33.1364238410596	31.0243708609272				0.548026490066225	0.0674966887417219	0.325933774834437	6.3917880794702	-44.4680794701987	32.7025165562914				0.463788079470199	-0.270834437086093	-0.196238410596026	7.86039735099338	-51.9223841059603	-3.55470198675497			
93	1860	0.855841059602649	0.0507549668874172	0.040476821192053	10.3933774834437	95.3353642384106	-13.5049006622517				0.464953642384106	-0.000211920529801304	0.445139072847682	-11.6060927152318	-29.0921854304636	15.3740397350993				0.757827814569536	-0.241271523178808	0.00805298013245037	6.44741721854305	83.8664900662252	-2.72026490066225				0.592529801324503	-0.0645298013245033	-0.229721854304636	26.0029139072848	-33.9764238410596	28.7843708609272				0.564026490066225	0.0834966887417219	0.277933774834437	5.5517880794702	-49.2280794701987	29.9025165562914				0.479788079470199	-0.350834437086093	-0.180238410596026	3.94039735099338	-45.2023841059603	-4.67470198675497			
94	1880	0.871841059602649	0.178754966887417	0.088476821192053	11.5133774834437	83.0153642384106	-14.0649006622517				0.544953642384106	-0.000211920529801304	0.477139072847682	-14.4060927152318	-22.0921854304636	11.7340397350993				0.837827814569536	-0.305271523178808	0.0240529801324504	1.96741721854305	66.7864900662252	4.55973509933775				0.656529801324503	-0.112529801324503	-0.277721854304636	32.7229139072848	-34.5364238410596	27.9443708609272				0.580026490066225	0.0514966887417219	0.293933774834437	9.4717880794702	-43.9080794701987	26.8225165562914				0.495788079470199	-0.366834437086093	-0.164238410596026	-1.93960264900662	-41.0023841059603	-3.83470198675497			
95	1900	0.967841059602649	0.146754966887417	0.00847682119205304	14.8733774834437	71.8153642384106	-12.1049006622517				0.576953642384106	-0.0322119205298013	0.509139072847682	-4.60609271523179	-17.6121854304636	9.49403973509934				0.917827814569536	-0.273271523178808	-0.0239470198675496	-8.67258278145695	43.5464900662252	7.91973509933775				0.720529801324503	-0.112529801324503	-0.293721854304636	29.6429139072848	-40.6964238410596	29.6243708609272				0.628026490066225	0.0354966887417219	0.357933774834437	10.8717880794702	-41.6680794701987	23.1825165562914				0.511788079470199	-0.334834437086093	-0.244238410596026	-7.81960264900662	-41.2823841059603	-0.754701986754968			
96	1920	1.06384105960265	0.0987549668874172	-0.023523178807947	11.5133774834437	62.8553642384106	-12.6649006622517				0.688953642384106	-0.0962119205298013	0.589139072847682	-3.20609271523179	-8.93218543046358	10.0540397350993				1.02982781456954	-0.241271523178808	-0.00794701986754963	-17.632582781457	29.2664900662252	7.63973509933775				0.656529801324503	-0.0965298013245033	-0.357721854304636	20.9629139072848	-47.1364238410596	26.8243708609272				0.708026490066225	0.0514966887417219	0.325933774834437	7.2317880794702	-40.2680794701987	19.2625165562914				0.559788079470199	-0.334834437086093	-0.324238410596026	-4.45960264900662	-44.0823841059603	0.925298013245032			
97	1940	1.09584105960265	0.0347549668874172	-0.039523178807947	-6.12662251655629	49.6953642384106	-11.5449006622517				0.768953642384106	-0.0962119205298013	0.637139072847682	-10.2060927152318	-6.97218543046358	4.73403973509934				1.06182781456954	-0.145271523178808	0.0400529801324504	-19.592582781457	20.0264900662252	5.39973509933775				0	0	0	0	0	0				0	0	0	0	0	0				0	0	0	0	0	0			
98	1960	1.06384105960265	-0.0292450331125828	-0.00752317880794696	-14.8066225165563	37.3753642384106	-7.90490066225166				0.768953642384106	-0.128211920529801	0.637139072847682	-11.3260927152318	0.587814569536424	-0.0259602649006601				1.09382781456954	-0.0812715231788079	0.10405298013245	-18.472582781457	6.30649006622517	0.35973509933775				0.640529801324503	-0.208529801324503	-0.437721854304636	17.0429139072848	-40.1364238410596	14.7843708609272				0.788026490066225	0.0194966887417219	0.261933774834437	4.7117880794702	-29.6280794701987	17.0225165562914				0.639788079470199	-0.382834437086093	-0.324238410596026	-0.539602649006623	-28.9623841059603	0.365298013245032			
99	1980	1.03184105960265	-0.0292450331125828	0.056476821192053	-16.2066225165563	26.7353642384106	-2.30490066225166				0.800953642384106	-0.144211920529801	0.669139072847682	-8.24609271523179	4.78781456953642	-1.14596026490066				1.09382781456954	-0.0972715231788079	0.13605298013245	-11.472582781457	-4.05350993377483	-0.76026490066225				0.752529801324503	-0.256529801324503	-0.437721854304636	27.1229139072848	-23.8964238410596	11.4243708609272				0.852026490066225	0.0194966887417219	0.277933774834437	4.7117880794702	-20.6680794701987	14.2225165562914				0.687788079470199	-0.382834437086093	-0.372238410596026	-21.8196026490066	-12.4423841059603	2.32529801324503			
100	2000	1.04784105960265	0.00275496688741723	-0.119523178807947	-19.2866225165563	17.4953642384106	-2.58490066225166				0.864953642384106	0.0157880794701987	0.653139072847682	-9.08609271523179	3.38781456953642	-7.30596026490066				1.07782781456954	-0.129271523178808	0.15205298013245	0.567417218543046	-11.8935099337748	0.35973509933775				0.784529801324503	-0.272529801324503	-0.469721854304636	21.2429139072848	-9.6164238410596	10.5843708609272				0.884026490066225	0.0194966887417219	0.293933774834437	2.1917880794702	-13.9480794701987	11.1425165562914				0.671788079470199	-0.318834437086093	-0.452238410596026	-9.77960264900662	-10.2023841059603	2.04529801324503			
101	2020	1.03184105960265	-0.0452450331125828	-0.119523178807947	-19.2866225165563	2.9353642384106	-0.904900662251656				0.864953642384106	0.0637880794701987	0.589139072847682	-13.2860927152318	-1.37218543046358	-6.46596026490066				1.01382781456954	-0.161271523178808	0.12005298013245	11.207417218543	-22.5335099337748	2.03973509933775				0.736529801324503	-0.224529801324503	-0.517721854304636	8.36291390728477	1.8635761589404	6.10437086092715				0.852026490066225	0.0514966887417219	0.293933774834437	-1.1682119205298	-10.0280794701987	8.90251655629139				0.655788079470199	-0.270834437086093	-0.452238410596026	14.3003973509934	-9.36238410596027	-4.95470198675497			
102	2040	0.983841059602649	-0.0292450331125828	-0.039523178807947	-15.9266225165563	-3.2246357615894	-1.18490066225166				0.816953642384106	-0.000211920529801304	0.509139072847682	-8.24609271523179	-5.29218543046358	-3.66596026490066				0.949827814569536	-0.177271523178808	0.0880529801324504	12.047417218543	-25.0535099337748	2.31973509933775				0.784529801324503	-0.176529801324503	-0.565721854304636	7.52291390728477	6.3435761589404	0.504370860927152				0.868026490066225	0.0994966887417219	0.245933774834437	-3.9682119205298	-7.50807947019868	3.58251655629139				0.687788079470199	-0.302834437086093	-0.420238410596026	21.3003973509934	1.55761589403974	-13.354701986755			
103	2060	0.919841059602649	0.0187549668874172	0.040476821192053	-10.0466225165563	-6.5846357615894	-0.624900662251656				0.784953642384106	-0.0642119205298013	0.493139072847682	-1.52609271523179	-1.09218543046358	-0.30596026490066				0.901827814569536	-0.177271523178808	0.0400529801324504	11.207417218543	-21.9735099337748	0.91973509933775				0.832529801324503	-0.256529801324503	-0.613721854304636	-2.27708609271523	-2.0564238410596	-3.69562913907285				0.900026490066225	0.0834966887417219	0.229933774834437	-0.328211920529802	-3.30807947019868	-0.0574834437086077				0.687788079470199	-0.382834437086093	-0.388238410596026	21.0203973509934	7.71761589403974	-16.994701986755			
104	2080	0.919841059602649	0.0187549668874172	0.120476821192053	-0.526622516556291	-6.0246357615894	0.215099337748344				0.864953642384106	-0.0802119205298013	0.525139072847682	-6.00609271523179	4.22781456953642	-0.30596026490066				0.901827814569536	-0.161271523178808	0.0400529801324504	8.96741721854305	-18.3335099337748	-0.76026490066225				0.784529801324503	-0.272529801324503	-0.597721854304636	-17.3970860927152	-3.1764238410596	-5.09562913907285				0.932026490066225	0.0514966887417219	0.245933774834437	-4.2482119205298	-4.14807947019868	-2.29748344370861				0.719788079470199	-0.462834437086093	-0.372238410596026	1.14039735099338	11.3576158940397	-9.71470198675497			
105	2100	0.967841059602649	0.0187549668874172	0.200476821192053	-2.76662251655629	-9.66463576158941	2.17509933774834				0.928953642384106	-0.0322119205298013	0.509139072847682	-11.6060927152318	0.0278145695364242	-1.70596026490066				0.917827814569536	-0.161271523178808	0.0240529801324504	-3.35258278145695	-12.1735099337748	-1.32026490066225				0.736529801324503	-0.176529801324503	-0.549721854304636	-17.6770860927152	-0.6564238410596	-6.21562913907285				0.932026490066225	0.0354966887417219	0.245933774834437	-8.4482119205298	-5.26807947019868	-5.37748344370861				0.735788079470199	-0.430834437086093	-0.388238410596026	-16.7796026490066	7.71761589403974	-2.71470198675497			
106	2120	0.999841059602649	0.0827549668874172	0.232476821192053	-9.76662251655629	-2.3846357615894	4.13509933774834				0.912953642384106	-0.0162119205298013	0.461139072847682	-13.8460927152318	-7.81218543046358	-2.82596026490066				0.885827814569536	-0.145271523178808	0.00805298013245037	-12.592582781457	-5.17350993377483	-1.60026490066225				0.752529801324503	-0.160529801324503	-0.533721854304636	-13.4770860927152	-5.9764238410596	-2.85562913907285				0.948026490066225	0.0834966887417219	0.229933774834437	-11.5282119205298	-6.66807947019868	-5.09748344370861				0.751788079470199	-0.302834437086093	-0.436238410596026	-16.2196026490066	6.87761589403974	-4.11470198675497			
107	2140	0.967841059602649	0.146754966887417	0.200476821192053	-7.52662251655629	7.9753642384106	-0.0649006622516557				0.896953642384106	-0.112211920529801	0.461139072847682	-7.96609271523179	-10.0521854304636	1.65403973509934				0.917827814569536	-0.145271523178808	0.00805298013245037	-12.312582781457	0.426490066225167	0.63973509933775				0.768529801324503	-0.208529801324503	-0.565721854304636	-14.5970860927152	-9.0564238410596	3.58437086092715				0.964026490066225	0.0834966887417219	0.197933774834437	-13.4882119205298	-9.18807947019868	-5.09748344370861				0.767788079470199	-0.238834437086093	-0.516238410596026	-17.3396026490066	14.7176158940397	-11.394701986755			
108	2160	0.983841059602649	0.114754966887417	0.120476821192053	2.27337748344371	11.8953642384106	-5.10490066225166				0.912953642384106	-0.0962119205298013	0.461139072847682	-0.406092715231788	-10.0521854304636	1.65403973509934				0.965827814569536	-0.129271523178808	0.00805298013245037	-7.83258278145695	1.82649006622517	0.35973509933775				0.768529801324503	-0.224529801324503	-0.565721854304636	-15.1570860927152	-6.5364238410596	5.54437086092715				0.980026490066225	0.0354966887417219	0.165933774834437	-9.5682119205298	-6.66807947019868	-3.97748344370861				0.815788079470199	-0.238834437086093	-0.596238410596026	-8.93960264900662	18.0776158940397	-17.834701986755			
109	2180	1.01584105960265	0.0667549668874172	0.040476821192053	3.11337748344371	7.9753642384106	-6.78490066225166				0.912953642384106	-0.0482119205298013	0.509139072847682	6.03390728476821	-8.37218543046358	-2.82596026490066				0.965827814569536	-0.113271523178808	0.0240529801324504	1.40741721854305	1.54649006622517	-0.76026490066225				0.768529801324503	-0.208529801324503	-0.517721854304636	-9.55708609271523	1.8635761589404	4.42437086092715				0.964026490066225	0.0194966887417219	0.165933774834437	-6.2082119205298	-3.86807947019868	-0.897483443708608				0.799788079470199	-0.286834437086093	-0.596238410596026	5.62039735099338	13.0376158940397	-18.394701986755			
110	2200	0.999841059602649	0.0187549668874172	-0.023523178807947	-1.36662251655629	-1.5446357615894	-2.86490066225166				0.832953642384106	-0.0162119205298013	0.509139072847682	6.87390728476821	-5.57218543046358	-4.78596026490066				0.965827814569536	-0.0972715231788079	0.00805298013245037	5.88741721854305	0.986490066225167	-2.16026490066225				0.784529801324503	-0.192529801324503	-0.501721854304636	-2.55708609271523	1.8635761589404	4.70437086092715				0.948026490066225	0.0514966887417219	0.133933774834437	-6.7682119205298	-5.82807947019868	-0.337483443708608				0.751788079470199	-0.318834437086093	-0.564238410596026	6.74039735099338	11.6376158940397	-16.714701986755			
111	2220	0.967841059602649	-0.0452450331125828	-0.039523178807947	-0.526622516556291	-5.7446357615894	0.775099337748344				0.832953642384106	-0.0322119205298013	0.493139072847682	4.35390728476821	-0.812185430463576	-2.54596026490066				0.965827814569536	-0.129271523178808	0.00805298013245037	8.12741721854305	3.50649006622517	-1.88026490066225				0.784529801324503	-0.160529801324503	-0.501721854304636	-7.87708609271523	-5.6964238410596	4.70437086092715				0.916026490066225	0.0674966887417219	0.197933774834437	-5.9282119205298	-3.58807947019868	0.502516556291392				0.703788079470199	-0.286834437086093	-0.548238410596027	0.0203973509933773	14.9976158940397	-15.314701986755			
112	2240	0.967841059602649	-0.0452450331125828	0.024476821192053	1.71337748344371	-5.1846357615894	1.89509933774834				0.864953642384106	-0.0482119205298013	0.461139072847682	1.27390728476821	5.06781456953642	-3.38596026490066				0.981827814569536	-0.177271523178808	-0.00794701986754963	8.40741721854305	5.46649006622517	-2.72026490066225				0.768529801324503	-0.176529801324503	-0.517721854304636	-10.1170860927152	-10.4564238410596	3.86437086092715				0.900026490066225	0.0514966887417219	0.149933774834437	-3.1282119205298	-3.30807947019868	-0.617483443708608				0.687788079470199	-0.254834437086093	-0.564238410596026	0.580397350993377	11.9176158940397	-13.914701986755			
113	2260	0.967841059602649	0.00275496688741723	0.072476821192053	6.19337748344371	-2.1046357615894	0.215099337748344				0.912953642384106	-0.0642119205298013	0.477139072847682	1.83390728476821	2.54781456953642	-2.54596026490066				0.997827814569536	-0.209271523178808	0.00805298013245037	5.60741721854305	3.22649006622517	-2.72026490066225				0.784529801324503	-0.208529801324503	-0.549721854304636	-1.15708609271523	-7.6564238410596	1.06437086092715				0.916026490066225	0.0514966887417219	0.181933774834437	2.4717880794702	-1.06807947019868	-2.01748344370861				0.719788079470199	-0.286834437086093	-0.564238410596026	-3.61960264900662	7.99761589403974	-6.63470198675497			
114	2280	0.999841059602649	0.0187549668874172	0.072476821192053	1.43337748344371	-1.5446357615894	-1.46490066225166				0.912953642384106	-0.0642119205298013	0.477139072847682	0.713907284768212	1.70781456953642	-0.86596026490066				0.981827814569536	-0.209271523178808	-0.00794701986754963	3.64741721854305	2.10649006622517	-2.44026490066225				0.800529801324503	-0.224529801324503	-0.565721854304636	0.242913907284768	-6.2564238410596	-0.895629139072848				0.948026490066225	0.0514966887417219	0.197933774834437	5.2717880794702	1.73192052980133	-3.13748344370861				0.735788079470199	-0.302834437086093	-0.564238410596026	-4.17960264900662	4.63761589403974	-3.55470198675497			
115	2300	0.983841059602649	0.0667549668874172	0.056476821192053	-3.04662251655629	-4.3446357615894	-1.74490066225166				0.896953642384106	-0.0482119205298013	0.509139072847682	-1.52609271523179	5.62781456953642	-0.86596026490066				0.981827814569536	-0.209271523178808	0.00805298013245037	-0.552582781456954	1.82649006622517	-0.76026490066225				0.816529801324503	-0.240529801324503	-0.581721854304636	-1.15708609271523	-8.4964238410596	-2.01562913907285				0.948026490066225	0.0514966887417219	0.197933774834437	4.1517880794702	2.85192052980133	-4.81748344370861				0.751788079470199	-0.318834437086093	-0.532238410596027	-0.539602649006623	0.157615894039735	-2.99470198675497			
116	2320	0.983841059602649	0.0507549668874172	0.040476821192053	-3.88662251655629	-5.4646357615894	-0.624900662251656				0.896953642384106	-0.0162119205298013	0.493139072847682	2.11390728476821	3.66781456953642	-1.14596026490066				0.981827814569536	-0.193271523178808	-0.00794701986754963	-6.15258278145695	0.706490066225167	1.19973509933775				0.816529801324503	-0.224529801324503	-0.581721854304636	-6.19708609271523	-11.5764238410596	-4.25562913907285				0.948026490066225	0.0514966887417219	0.197933774834437	3.5917880794702	1.45192052980132	-5.93748344370861				0.783788079470199	-0.286834437086093	-0.500238410596026	0.580397350993377	-2.36238410596027	-2.99470198675497			
117	2340	0.951841059602649	0.0347549668874172	0.056476821192053	-5.84662251655629	-6.3046357615894	1.33509933774834				0.896953642384106	-0.0322119205298013	0.493139072847682	5.47390728476821	1.98781456953642	-1.98596026490066				0.997827814569536	-0.145271523178808	-0.00794701986754963	-5.31258278145695	-0.413509933774833	0.91973509933775				0.784529801324503	-0.176529801324503	-0.581721854304636	-10.6770860927152	-11.2964238410596	-7.61562913907285				0.948026490066225	0.0674966887417219	0.181933774834437	5.2717880794702	0.891920529801325	-6.49748344370861				0.783788079470199	-0.286834437086093	-0.484238410596026	8.14039735099338	-4.32238410596027	-4.11470198675497			
118	2360	0.951841059602649	0.0507549668874172	0.088476821192053	-2.48662251655629	-2.6646357615894	0.495099337748344				0.912953642384106	-0.0322119205298013	0.461139072847682	5.75390728476821	3.10781456953642	-1.14596026490066				0.997827814569536	-0.145271523178808	-0.00794701986754963	-1.39258278145695	-0.973509933774833	2.03973509933775				0.736529801324503	-0.144529801324503	-0.565721854304636	-7.31708609271523	-9.3364238410596	-10.1356291390728				0.948026490066225	0.0834966887417219	0.197933774834437	4.9917880794702	0.891920529801325	-7.89748344370861				0.783788079470199	-0.302834437086093	-0.468238410596026	6.46039735099338	-3.76238410596027	-5.51470198675497			
119	2380	0.983841059602649	0.0667549668874172	0.072476821192053	2.55337748344371	-0.984635761589404	-0.624900662251656				0.896953642384106	-0.0322119205298013	0.493139072847682	3.79390728476821	4.50781456953642	-2.54596026490066				0.981827814569536	-0.129271523178808	-0.00794701986754963	3.92741721854305	-1.53350993377483	1.75973509933775				0.736529801324503	-0.144529801324503	-0.565721854304636	-4.79708609271523	-9.8964238410596	-10.4156291390728				0.932026490066225	0.0834966887417219	0.213933774834437	4.1517880794702	0.891920529801325	-7.05748344370861				0.783788079470199	-0.318834437086093	-0.452238410596026	3.66039735099338	-0.962384105960265	-4.11470198675497			
120	2400	0.983841059602649	0.0347549668874172	0.040476821192053	2.27337748344371	-2.6646357615894	-1.18490066225166				0.880953642384106	-0.0162119205298013	0.509139072847682	2.39390728476821	5.62781456953642	-3.10596026490066				0.949827814569536	-0.113271523178808	-0.0239470198675496	3.92741721854305	-1.25350993377483	2.03973509933775				0.720529801324503	-0.128529801324503	-0.565721854304636	-5.91708609271523	-6.8164238410596	-11.8156291390728				0.948026490066225	0.0834966887417219	0.229933774834437	2.4717880794702	1.45192052980132	-7.33748344370861				0.767788079470199	-0.302834437086093	-0.436238410596026	-2.49960264900662	1.55761589403974	-3.27470198675497			
121	2420	0.983841059602649	0.0347549668874172	0.00847682119205304	-0.806622516556291	-6.0246357615894	-0.0649006622516557				0.896953642384106	-0.000211920529801304	0.509139072847682	5.75390728476821	3.10781456953642	-2.82596026490066				0.949827814569536	-0.129271523178808	-0.0239470198675496	0.847417218543046	0.426490066225167	2.03973509933775				0.736529801324503	-0.112529801324503	-0.581721854304636	-1.71708609271523	-0.9364238410596	-12.3756291390728				0.932026490066225	0.115496688741722	0.213933774834437	0.791788079470198	1.17192052980133	-7.89748344370861				0.815788079470199	-0.270834437086093	-0.452238410596026	-3.33960264900662	0.437615894039735	-2.99470198675497			
122	2440	0.951841059602649	0.0347549668874172	0.00847682119205304	-0.806622516556291	-5.7446357615894	1.61509933774834				0.912953642384106	-0.0162119205298013	0.477139072847682	8.27390728476821	-0.812185430463576	-1.70596026490066				0.949827814569536	-0.129271523178808	-0.00794701986754963	2.52741721854305	-0.693509933774834	2.59973509933775				0.752529801324503	-0.128529801324503	-0.581721854304636	3.04291390728477	3.5435761589404	-12.9356291390728				0.964026490066225	0.115496688741722	0.197933774834437	-0.328211920529802	-0.508079470198675	-7.61748344370861				0.815788079470199	-0.222834437086093	-0.452238410596026	2.26039735099338	0.717615894039735	-8.59470198675497			
123	2460	0.967841059602649	0.0347549668874172	0.040476821192053	1.99337748344371	-2.6646357615894	1.05509933774834				0.912953642384106	-0.0322119205298013	0.445139072847682	6.87390728476821	-2.49218543046358	-0.585960264900661				0.965827814569536	-0.161271523178808	-0.0239470198675496	5.60741721854305	-2.65350993377483	0.91973509933775				0.768529801324503	-0.112529801324503	-0.581721854304636	0.802913907284768	1.0235761589404	-13.2156291390728				0.948026490066225	0.131496688741722	0.213933774834437	1.6317880794702	2.01192052980133	-7.05748344370861				0.799788079470199	-0.206834437086093	-0.452238410596026	4.50039735099338	3.51761589403974	-15.594701986755			
124	2480	0.967841059602649	0.0507549668874172	0.040476821192053	3.67337748344371	-0.424635761589404	-0.344900662251656				0.912953642384106	-0.0482119205298013	0.477139072847682	6.87390728476821	-1.37218543046358	-0.585960264900661				0.965827814569536	-0.161271523178808	-0.0239470198675496	8.96741721854305	-1.81350993377483	0.35973509933775				0.768529801324503	-0.0965298013245033	-0.581721854304636	-2.27708609271523	-0.6564238410596	-12.6556291390728				0.964026490066225	0.115496688741722	0.197933774834437	2.4717880794702	-0.508079470198675	-7.05748344370861				0.799788079470199	-0.238834437086093	-0.452238410596026	1.70039735099338	6.59761589403974	-20.354701986755			
125	2500	0.967841059602649	0.0187549668874172	0.024476821192053	2.27337748344371	-0.144635761589404	-0.0649006622516557				0.928953642384106	-0.0322119205298013	0.477139072847682	7.15390728476821	-1.37218543046358	0.25403973509934				0.949827814569536	-0.161271523178808	-0.0239470198675496	5.88741721854305	-1.25350993377483	1.19973509933775				0.736529801324503	-0.0805298013245033	-0.549721854304636	2.20291390728477	1.8635761589404	-12.3756291390728				0.964026490066225	0.115496688741722	0.181933774834437	4.1517880794702	-1.34807947019868	-5.09748344370861				0.831788079470199	-0.254834437086093	-0.516238410596026	2.54039735099338	2.95761589403974	-20.074701986755			
126	2520	0.983841059602649	0.0187549668874172	0.024476821192053	1.71337748344371	-0.144635761589404	0.775099337748344				0.928953642384106	-0.0162119205298013	0.477139072847682	7.15390728476821	-5.01218543046358	0.53403973509934				0.933827814569536	-0.161271523178808	-0.0399470198675496	1.68741721854305	0.426490066225167	1.19973509933775				0.736529801324503	-0.112529801324503	-0.565721854304636	10.0429139072848	4.3835761589404	-9.57562913907285				0.964026490066225	0.0994966887417219	0.181933774834437	3.5917880794702	-1.62807947019868	-3.13748344370861				0.847788079470199	-0.270834437086093	-0.516238410596026	5.06039735099338	0.717615894039735	-20.634701986755			
127	2540	0.967841059602649	0.0187549668874172	0.00847682119205304	3.11337748344371	-0.984635761589404	1.33509933774834				0.896953642384106	-0.0482119205298013	0.477139072847682	7.43390728476821	-8.09218543046358	1.65403973509934				0.949827814569536	-0.161271523178808	-0.0239470198675496	1.40741721854305	0.706490066225167	0.63973509933775				0.736529801324503	-0.144529801324503	-0.565721854304636	12.0029139072848	2.4235761589404	-6.77562913907285				0.964026490066225	0.0994966887417219	0.165933774834437	2.1917880794702	-4.14807947019868	-2.29748344370861				0.831788079470199	-0.302834437086093	-0.516238410596026	3.10039735099338	0.717615894039735	-18.114701986755			
128	2560	0.967841059602649	0.00275496688741723	-0.00752317880794696	2.55337748344371	-0.144635761589404	1.61509933774834				0.880953642384106	-0.0642119205298013	0.445139072847682	5.47390728476821	-6.69218543046358	-0.30596026490066				0.965827814569536	-0.177271523178808	-0.0399470198675496	4.20741721854305	1.54649006622517	0.91973509933775				0.720529801324503	-0.160529801324503	-0.565721854304636	10.6029139072848	3.2635761589404	-4.53562913907285				0.948026490066225	0.0674966887417219	0.181933774834437	1.0717880794702	-3.58807947019868	-0.0574834437086077				0.847788079470199	-0.302834437086093	-0.532238410596027	-0.259602649006623	-2.92238410596027	-14.474701986755			
129	2580	0.951841059602649	0.0187549668874172	0.00847682119205304	4.51337748344371	2.0953642384106	1.05509933774834				0.928953642384106	-0.0322119205298013	0.477139072847682	2.39390728476821	-4.73218543046358	-0.86596026490066				0.997827814569536	-0.177271523178808	-0.0399470198675496	4.20741721854305	1.82649006622517	1.19973509933775				0.736529801324503	-0.160529801324503	-0.581721854304636	11.4429139072848	5.5035761589404	-3.13562913907285				0.964026490066225	0.0674966887417219	0.197933774834437	-0.608211920529802	-2.74807947019868	2.18251655629139				0.831788079470199	-0.318834437086093	-0.548238410596027	0.300397350993377	-11.3223841059603	-7.47470198675497			
130	2600	0.967841059602649	0.00275496688741723	0.024476821192053	3.11337748344371	4.8953642384106	-0.0649006622516557				0.944953642384106	-0.0482119205298013	0.461139072847682	4.07390728476821	-6.69218543046358	-1.42596026490066				0.997827814569536	-0.177271523178808	-0.0239470198675496	1.68741721854305	0.706490066225167	0.63973509933775				0.752529801324503	-0.160529801324503	-0.581721854304636	9.20291390728477	3.8235761589404	-0.615629139072848				0.980026490066225	0.0674966887417219	0.197933774834437	-1.4482119205298	-3.86807947019868	3.30251655629139				0.799788079470199	-0.270834437086093	-0.532238410596027	-1.65960264900662	-13.0023841059603	-3.83470198675497			
131	2620	0.983841059602649	0.00275496688741723	0.00847682119205304	0.593377483443709	3.4953642384106	0.495099337748344				0.928953642384106	-0.0482119205298013	0.477139072847682	4.91390728476821	-5.85218543046358	-1.42596026490066				0.981827814569536	-0.193271523178808	-0.0239470198675496	2.24741721854305	-0.693509933774834	0.91973509933775				0.800529801324503	-0.176529801324503	-0.597721854304636	5.00291390728477	0.1835761589404	0.784370860927152				0.964026490066225	0.0834966887417219	0.181933774834437	-2.2882119205298	-3.86807947019868	4.70251655629139				0.799788079470199	-0.238834437086093	-0.516238410596026	3.94039735099338	-12.1623841059603	-2.71470198675497			
132	2640	0.983841059602649	0.00275496688741723	0.00847682119205304	0.873377483443709	1.2553642384106	1.33509933774834				0.912953642384106	-0.0642119205298013	0.477139072847682	4.07390728476821	-5.01218543046358	-0.30596026490066				0.965827814569536	-0.193271523178808	-0.00794701986754963	2.24741721854305	-0.693509933774834	1.19973509933775				0.800529801324503	-0.160529801324503	-0.597721854304636	3.32291390728477	-1.7764238410596	0.504370860927152				0.964026490066225	0.0834966887417219	0.181933774834437	-0.0482119205298018	-3.30807947019868	4.70251655629139				0.799788079470199	-0.254834437086093	-0.516238410596026	4.50039735099338	-11.0423841059603	-2.15470198675497			
133	2660	0.951841059602649	-0.0132450331125828	0.024476821192053	-0.806622516556291	0.975364238410596	2.17509933774834				0.912953642384106	-0.0642119205298013	0.477139072847682	-0.686092715231788	-3.61218543046358	1.09403973509934				0.965827814569536	-0.193271523178808	-0.00794701986754963	0.847417218543046	-0.133509933774833	0.35973509933775				0.752529801324503	-0.160529801324503	-0.581721854304636	6.40291390728477	0.1835761589404	2.46437086092715				0.964026490066225	0.0834966887417219	0.181933774834437	1.0717880794702	-4.14807947019868	4.70251655629139				0.783788079470199	-0.270834437086093	-0.532238410596027	-0.539602649006623	-12.4423841059603	0.0852980132450323			
134	2680	0.967841059602649	-0.0132450331125828	0.040476821192053	-2.20662251655629	3.4953642384106	1.61509933774834				0.880953642384106	-0.0482119205298013	0.429139072847682	-5.16609271523179	-2.49218543046358	1.93403973509934				0.965827814569536	-0.193271523178808	-0.00794701986754963	-1.67258278145695	-0.133509933774833	0.91973509933775				0.736529801324503	-0.176529801324503	-0.549721854304636	8.36291390728477	1.8635761589404	5.54437086092715				0.948026490066225	0.0834966887417219	0.165933774834437	-0.0482119205298018	-4.98807947019868	6.10251655629139				0.783788079470199	-0.238834437086093	-0.516238410596026	0.0203973509933773	-14.1223841059603	2.32529801324503			
135	2700	0.967841059602649	0.0187549668874172	0.056476821192053	0.593377483443709	5.1753642384106	0.775099337748344				0.880953642384106	-0.0482119205298013	0.445139072847682	-4.32609271523179	-1.37218543046358	2.49403973509934				0.965827814569536	-0.193271523178808	-0.00794701986754963	-3.91258278145695	0.706490066225167	1.47973509933775				0.720529801324503	-0.144529801324503	-0.549721854304636	6.68291390728477	3.8235761589404	6.66437086092715				0.932026490066225	0.0834966887417219	0.165933774834437	-0.328211920529802	-4.42807947019868	7.50251655629139				0.751788079470199	-0.222834437086093	-0.516238410596026	1.42039735099338	-12.4423841059603	2.04529801324503			
136	2720	0.967841059602649	0.00275496688741723	0.056476821192053	1.15337748344371	4.3353642384106	-0.624900662251656				0.896953642384106	-0.0642119205298013	0.461139072847682	-4.88609271523179	-0.532185430463576	3.33403973509934				0.965827814569536	-0.193271523178808	-0.00794701986754963	-1.95258278145695	1.54649006622517	0.63973509933775				0.736529801324503	-0.160529801324503	-0.549721854304636	5.56291390728477	4.3835761589404	7.22437086092715				0.932026490066225	0.0674966887417219	0.165933774834437	-0.888211920529802	-4.14807947019868	7.22251655629139				0.751788079470199	-0.254834437086093	-0.516238410596026	1.14039735099338	-6.00238410596027	1.76529801324503			
137	2740	0.983841059602649	0.0187549668874172	0.056476821192053	-1.36662251655629	3.2153642384106	-0.904900662251656				0.912953642384106	-0.0642119205298013	0.493139072847682	-9.92609271523179	2.54781456953642	3.05403973509934				0.981827814569536	-0.193271523178808	-0.00794701986754963	-0.832582781456954	-0.973509933774833	-0.20026490066225				0.752529801324503	-0.160529801324503	-0.565721854304636	5.00291390728477	4.9435761589404	7.78437086092715				0.932026490066225	0.0674966887417219	0.197933774834437	2.1917880794702	1.17192052980133	6.94251655629139				0.767788079470199	-0.286834437086093	-0.500238410596026	4.22039735099338	-5.16238410596027	3.16529801324503			
138	2760	0.999841059602649	0.00275496688741723	0.040476821192053	-0.806622516556291	1.8153642384106	0.215099337748344				0.896953642384106	-0.0482119205298013	0.477139072847682	-9.36609271523179	3.10781456953642	3.33403973509934				0.965827814569536	-0.193271523178808	-0.00794701986754963	0.00741721854304636	0.146490066225167	-0.20026490066225				0.752529801324503	-0.192529801324503	-0.565721854304636	9.20291390728477	7.7435761589404	8.34437086092715				0.948026490066225	0.0514966887417219	0.165933774834437	0.511788079470198	-1.34807947019868	8.34251655629139				0.767788079470199	-0.286834437086093	-0.516238410596026	0.0203973509933773	-4.32238410596027	6.52529801324503			
139	2780	0.967841059602649	0.00275496688741723	0.040476821192053	-1.36662251655629	1.2553642384106	0.215099337748344				0.880953642384106	-0.0482119205298013	0.429139072847682	-9.08609271523179	5.06781456953642	3.89403973509934				0.981827814569536	-0.177271523178808	0.00805298013245037	-0.272582781456954	0.426490066225167	-0.20026490066225				0.752529801324503	-0.208529801324503	-0.565721854304636	8.92291390728477	7.4635761589404	7.50437086092715				0.932026490066225	0.0514966887417219	0.213933774834437	-2.2882119205298	1.45192052980132	7.22251655629139				0.767788079470199	-0.286834437086093	-0.516238410596026	0.300397350993377	-5.72238410596027	9.04529801324503			
140	2800	0.983841059602649	0.00275496688741723	0.072476821192053	-0.806622516556291	2.0953642384106	-0.344900662251656				0.896953642384106	-0.0642119205298013	0.493139072847682	-9.36609271523179	4.22781456953642	3.89403973509934				0.965827814569536	-0.193271523178808	0.00805298013245037	0.287417218543046	-0.133509933774833	-0.48026490066225				0.784529801324503	-0.192529801324503	-0.565721854304636	5.84291390728477	6.9035761589404	7.50437086092715				0.948026490066225	0.0514966887417219	0.181933774834437	-5.6482119205298	3.13192052980133	6.66251655629139				0.751788079470199	-0.286834437086093	-0.500238410596026	3.38039735099338	-4.32238410596027	9.60529801324503			
141	2820	0.983841059602649	0.0187549668874172	0.072476821192053	0.0333774834437086	2.0953642384106	-0.624900662251656				0.912953642384106	-0.0482119205298013	0.509139072847682	-5.44609271523179	-0.532185430463576	3.61403973509934				0.965827814569536	-0.177271523178808	0.00805298013245037	2.24741721854305	-0.413509933774833	-0.76026490066225				0.832529801324503	-0.192529801324503	-0.565721854304636	-0.597086092715232	3.8235761589404	9.18437086092715				0.948026490066225	0.0514966887417219	0.213933774834437	-2.0082119205298	1.73192052980133	7.50251655629139				0.767788079470199	-0.286834437086093	-0.516238410596026	-1.09960264900662	-0.402384105960265	10.725298013245			
142	2840	0.983841059602649	0.0187549668874172	0.088476821192053	0.873377483443709	0.695364238410596	-0.624900662251656				0.912953642384106	-0.0322119205298013	0.461139072847682	-2.64609271523179	-2.49218543046358	3.61403973509934				0.965827814569536	-0.161271523178808	0.00805298013245037	2.80741721854305	-0.973509933774833	-0.76026490066225				0.848529801324503	-0.192529801324503	-0.549721854304636	-3.67708609271523	-0.3764238410596	9.46437086092715				0.964026490066225	0.0514966887417219	0.213933774834437	-0.608211920529802	2.01192052980133	7.78251655629139				0.767788079470199	-0.302834437086093	-0.516238410596026	0.300397350993377	-0.682384105960265	11.845298013245			
143	2860	0.967841059602649	0.0187549668874172	0.056476821192053	-0.246622516556291	-1.2646357615894	-1.46490066225166				0.896953642384106	-0.0322119205298013	0.461139072847682	4.35390728476821	-2.49218543046358	4.73403973509934				0.965827814569536	-0.177271523178808	0.00805298013245037	5.04741721854305	-1.81350993377483	-1.04026490066225				0.800529801324503	-0.176529801324503	-0.549721854304636	-0.317086092715232	-2.0564238410596	10.3043708609272				0.964026490066225	0.0514966887417219	0.229933774834437	-0.608211920529802	1.45192052980132	6.94251655629139				0.767788079470199	-0.302834437086093	-0.500238410596026	2.26039735099338	-2.64238410596027	10.445298013245			
144	2880	0.983841059602649	0.0187549668874172	0.040476821192053	1.43337748344371	-2.6646357615894	-0.0649006622516557				0.912953642384106	-0.0322119205298013	0.461139072847682	8.55390728476821	-5.57218543046358	6.13403973509934				0.949827814569536	-0.177271523178808	0.00805298013245037	7.56741721854305	-0.973509933774833	-1.04026490066225				0.784529801324503	-0.192529801324503	-0.533721854304636	1.64291390728477	-0.0964238410596001	9.74437086092715				0.948026490066225	0.0354966887417219	0.229933774834437	-0.328211920529802	0.0519205298013249	6.38251655629139				0.751788079470199	-0.302834437086093	-0.500238410596026	-0.539602649006623	-0.962384105960265	10.165298013245			
145	2900	0.967841059602649	0.0187549668874172	0.040476821192053	2.83337748344371	-2.3846357615894	-0.344900662251656				0.912953642384106	-0.0642119205298013	0.445139072847682	7.15390728476821	-3.05218543046358	6.41403973509934				0.933827814569536	-0.161271523178808	0.00805298013245037	10.367417218543	0.986490066225167	-1.04026490066225				0.768529801324503	-0.176529801324503	-0.517721854304636	1.64291390728477	2.4235761589404	13.3843708609272				0.932026490066225	0.0354966887417219	0.213933774834437	0.231788079470198	0.611920529801325	5.54251655629139				0.751788079470199	-0.302834437086093	-0.516238410596026	-0.539602649006623	-4.88238410596027	9.32529801324503			
146	2920	0.951841059602649	0.00275496688741723	0.072476821192053	4.51337748344371	0.415364238410596	-0.344900662251656				0.880953642384106	-0.0802119205298013	0.461139072847682	2.95390728476821	-0.252185430463576	6.13403973509934				0.933827814569536	-0.161271523178808	0.00805298013245037	9.24741721854305	2.94649006622517	-0.20026490066225				0.768529801324503	-0.192529801324503	-0.517721854304636	0.802913907284768	2.9835761589404	9.18437086092715				0.948026490066225	0.0354966887417219	0.197933774834437	-0.328211920529802	0.0519205298013249	5.26251655629139				0.751788079470199	-0.270834437086093	-0.532238410596027	0.300397350993377	-6.56238410596027	7.64529801324503			
147	2940	0.967841059602649	0.00275496688741723	0.056476821192053	7.03337748344371	2.9353642384106	-1.18490066225166				0	0	0	0	0	0				0	0	0	0	0	0				0.784529801324503	-0.176529801324503	-0.533721854304636	1.92291390728477	3.5435761589404	6.94437086092715				0.948026490066225	0.0354966887417219	0.197933774834437	-0.888211920529802	0.331920529801325	4.98251655629139				0.751788079470199	-0.254834437086093	-0.532238410596027	5.90039735099338	-6.28238410596027	3.16529801324503			
148	2960	0.983841059602649	0.0187549668874172	0.056476821192053	6.19337748344371	2.3753642384106	-1.74490066225166				0.912953642384106	-0.0642119205298013	0.429139072847682	6.03390728476821	-3.05218543046358	6.13403973509934				0.981827814569536	-0.193271523178808	-0.00794701986754963	5.60741721854305	4.34649006622517	-1.04026490066225				0.784529801324503	-0.176529801324503	-0.533721854304636	5.56291390728477	2.9835761589404	6.10437086092715				0	0	0	0	0	0				0.751788079470199	-0.286834437086093	-0.548238410596027	6.18039735099338	-3.76238410596027	0.365298013245032			
149	2980	0.983841059602649	0.0187549668874172	0.024476821192053	4.23337748344371	0.695364238410596	-2.86490066225166				0.896953642384106	-0.0802119205298013	0.461139072847682	5.19390728476821	-2.49218543046358	5.57403973509934				0.981827814569536	-0.177271523178808	-0.00794701986754963	5.60741721854305	3.78649006622517	-1.32026490066225				0.784529801324503	-0.192529801324503	-0.533721854304636	7.52291390728477	1.3035761589404	5.54437086092715				0.964026490066225	0.0354966887417219	0.213933774834437	2.4717880794702	0.0519205298013249	5.26251655629139				0.767788079470199	-0.350834437086093	-0.548238410596027	5.34039735099338	-7.68238410596027	2.04529801324503			
150	3000	0.983841059602649	-0.0132450331125828	0.00847682119205304	1.71337748344371	-0.984635761589404	-1.74490066225166				0.896953642384106	-0.0802119205298013	0.477139072847682	1.55390728476821	1.14781456953642	3.61403973509934				0.981827814569536	-0.177271523178808	0.00805298013245037	5.04741721854305	3.50649006622517	-1.32026490066225				0.768529801324503	-0.224529801324503	-0.549721854304636	5.84291390728477	-0.3764238410596	5.26437086092715				0.964026490066225	0.0194966887417219	0.181933774834437	1.9117880794702	-3.02807947019868	6.66251655629139				0.751788079470199	-0.334834437086093	-0.532238410596027	1.14039735099338	-9.64238410596027	5.40529801324503			
151	3020	0.967841059602649	0.00275496688741723	0.00847682119205304	0.313377483443709	1.2553642384106	-1.18490066225166				0.912953642384106	-0.0642119205298013	0.477139072847682	-0.406092715231788	1.70781456953642	3.61403973509934				0.981827814569536	-0.177271523178808	0.00805298013245037	3.92741721854305	2.38649006622517	-1.32026490066225				0.752529801324503	-0.208529801324503	-0.533721854304636	5.28291390728477	1.3035761589404	3.58437086092715				0.964026490066225	0.0194966887417219	0.197933774834437	1.3517880794702	-1.90807947019868	6.94251655629139				0.735788079470199	-0.302834437086093	-0.516238410596026	-0.819602649006623	-8.80238410596027	7.64529801324503			
152	3040	0.967841059602649	0.00275496688741723	0.040476821192053	0.593377483443709	2.9353642384106	-0.904900662251656				0.912953642384106	-0.0802119205298013	0.477139072847682	-0.406092715231788	-1.09218543046358	3.89403973509934				0.965827814569536	-0.193271523178808	-0.00794701986754963	1.40741721854305	0.706490066225167	-0.76026490066225				0.768529801324503	-0.208529801324503	-0.549721854304636	7.80291390728477	2.9835761589404	2.74437086092715				0.964026490066225	0.0194966887417219	0.197933774834437	1.9117880794702	-1.06807947019868	5.82251655629139				0.735788079470199	-0.286834437086093	-0.516238410596026	1.42039735099338	-6.84238410596027	5.12529801324503			
153	3060	0.983841059602649	0.0187549668874172	0.056476821192053	0.313377483443709	3.4953642384106	-1.46490066225166				0.912953642384106	-0.0802119205298013	0.461139072847682	-0.966092715231788	-4.17218543046358	3.61403973509934				0.965827814569536	-0.193271523178808	0.00805298013245037	-0.552582781456954	2.10649006622517	-1.04026490066225				0.800529801324503	-0.224529801324503	-0.549721854304636	5.56291390728477	1.5835761589404	3.30437086092715				0.948026490066225	0.0194966887417219	0.197933774834437	-0.0482119205298018	-1.90807947019868	5.82251655629139				0.751788079470199	-0.302834437086093	-0.532238410596027	2.54039735099338	-6.28238410596027	3.44529801324503			
154	3080	0.967841059602649	0.0187549668874172	0.024476821192053	-0.526622516556291	1.8153642384106	-2.02490066225166				0.912953642384106	-0.0642119205298013	0.461139072847682	-2.08609271523179	-1.93218543046358	1.93403973509934				0.965827814569536	-0.177271523178808	0.00805298013245037	-2.23258278145695	2.66649006622517	-1.32026490066225				0.784529801324503	-0.224529801324503	-0.533721854304636	5.56291390728477	0.4635761589404	1.90437086092715				0.948026490066225	0.0194966887417219	0.213933774834437	-0.328211920529802	-2.46807947019868	4.42251655629139				0.735788079470199	-0.302834437086093	-0.516238410596026	1.70039735099338	-8.52238410596027	1.48529801324503			
155	3100	0.967841059602649	0.0187549668874172	0.040476821192053	-1.36662251655629	2.0953642384106	-1.74490066225166				0.896953642384106	-0.0482119205298013	0.493139072847682	-1.52609271523179	-2.21218543046358	2.77403973509934				0.965827814569536	-0.161271523178808	0.00805298013245037	-1.95258278145695	1.82649006622517	-1.32026490066225				0.768529801324503	-0.224529801324503	-0.533721854304636	5.28291390728477	0.4635761589404	0.784370860927152				0.948026490066225	0.0194966887417219	0.213933774834437	0.231788079470198	-2.18807947019868	4.14251655629139				0.735788079470199	-0.302834437086093	-0.500238410596026	2.54039735099338	-6.84238410596027	0.0852980132450323			
156	3120	0.967841059602649	0.0347549668874172	0.056476821192053	-1.36662251655629	2.0953642384106	-1.74490066225166				0.896953642384106	-0.0642119205298013	0.461139072847682	1.55390728476821	-5.01218543046358	2.77403973509934				0.965827814569536	-0.161271523178808	0.00805298013245037	-2.51258278145695	2.10649006622517	-1.04026490066225				0.768529801324503	-0.208529801324503	-0.533721854304636	4.16291390728477	1.5835761589404	0.784370860927152				0.948026490066225	0.0194966887417219	0.197933774834437	-0.0482119205298018	-1.34807947019868	3.86251655629139				0.735788079470199	-0.302834437086093	-0.500238410596026	0.0203973509933773	-4.32238410596027	-0.754701986754968			
157	3140	0.951841059602649	0.0347549668874172	0.072476821192053	1.43337748344371	3.2153642384106	-0.904900662251656				0.896953642384106	-0.0642119205298013	0.461139072847682	2.39390728476821	-5.01218543046358	1.37403973509934				0.981827814569536	-0.145271523178808	0.0240529801324504	-1.11258278145695	2.10649006622517	-1.32026490066225				0.768529801324503	-0.208529801324503	-0.517721854304636	4.16291390728477	2.1435761589404	1.90437086092715				0.948026490066225	0.0354966887417219	0.197933774834437	0.231788079470198	-1.90807947019868	3.30251655629139				0.735788079470199	-0.286834437086093	-0.532238410596027	1.98039735099338	-2.92238410596027	-2.99470198675497			
158	3160	0.983841059602649	0.0187549668874172	0.088476821192053	1.71337748344371	3.4953642384106	-1.74490066225166				0.912953642384106	-0.0642119205298013	0.477139072847682	1.55390728476821	-5.01218543046358	1.09403973509934				0.965827814569536	-0.161271523178808	0.00805298013245037	0.00741721854304636	1.54649006622517	-1.32026490066225				0.784529801324503	-0.208529801324503	-0.533721854304636	3.88291390728477	2.1435761589404	3.02437086092715				0.948026490066225	0.0194966887417219	0.197933774834437	0.511788079470198	-2.74807947019868	2.46251655629139				0.735788079470199	-0.302834437086093	-0.532238410596027	3.94039735099338	-2.64238410596027	-4.67470198675497			
159	3180	0.983841059602649	0.0187549668874172	0.088476821192053	1.71337748344371	3.2153642384106	-2.02490066225166				0.896953642384106	-0.0482119205298013	0.445139072847682	2.11390728476821	-3.89218543046358	1.93403973509934				0.965827814569536	-0.161271523178808	0.00805298013245037	1.40741721854305	0.426490066225167	-2.16026490066225				0.784529801324503	-0.208529801324503	-0.565721854304636	3.60291390728477	-0.0964238410596001	3.02437086092715				0.948026490066225	0.0354966887417219	0.181933774834437	-0.0482119205298018	-1.90807947019868	3.02251655629139				0.735788079470199	-0.286834437086093	-0.532238410596027	2.26039735099338	-2.92238410596027	-4.95470198675497			
160	3200	0.983841059602649	0.0187549668874172	0.072476821192053	0.593377483443709	2.3753642384106	-1.18490066225166				0.896953642384106	-0.0482119205298013	0.461139072847682	4.07390728476821	-1.93218543046358	2.49403973509934				0.965827814569536	-0.161271523178808	0.0240529801324504	2.80741721854305	0.426490066225167	-1.32026490066225				0.768529801324503	-0.208529801324503	-0.533721854304636	2.20291390728477	-0.6564238410596	1.34437086092715				0.948026490066225	0.0354966887417219	0.181933774834437	1.6317880794702	-0.508079470198675	3.30251655629139				0.735788079470199	-0.302834437086093	-0.532238410596027	2.54039735099338	-2.08238410596027	-3.83470198675497			
161	3220	0.983841059602649	0.0187549668874172	0.072476821192053	1.43337748344371	1.5353642384106	-1.46490066225166				0.896953642384106	-0.0642119205298013	0.461139072847682	4.63390728476821	-1.09218543046358	2.77403973509934				0.981827814569536	-0.161271523178808	0.0240529801324504	1.12741721854305	0.146490066225167	-1.88026490066225				0.752529801324503	-0.208529801324503	-0.517721854304636	2.76291390728477	1.0235761589404	0.784370860927152				0.948026490066225	0.0194966887417219	0.181933774834437	1.9117880794702	0.0519205298013249	2.74251655629139				0.735788079470199	-0.302834437086093	-0.532238410596027	0.580397350993377	-1.80238410596026	-2.71470198675497			
162	3240	0.967841059602649	0.0187549668874172	0.072476821192053	3.39337748344371	0.415364238410596	-2.30490066225166				0.880953642384106	-0.0482119205298013	0.461139072847682	4.35390728476821	-0.252185430463576	1.93403973509934				0.965827814569536	-0.161271523178808	0.0240529801324504	1.68741721854305	-0.133509933774833	-1.60026490066225				0.768529801324503	-0.192529801324503	-0.517721854304636	4.72291390728477	2.4235761589404	-0.615629139072848				0.932026490066225	0.0194966887417219	0.181933774834437	1.3517880794702	-0.788079470198675	2.74251655629139				0.735788079470199	-0.270834437086093	-0.532238410596027	2.82039735099338	-2.64238410596027	-2.71470198675497			
163	3260	0.983841059602649	0.0187549668874172	0.056476821192053	2.27337748344371	0.135364238410596	-1.46490066225166				0.896953642384106	-0.0482119205298013	0.461139072847682	4.07390728476821	1.14781456953642	1.93403973509934				0.981827814569536	-0.177271523178808	0.0240529801324504	3.92741721854305	-0.693509933774834	-1.04026490066225				0.784529801324503	-0.192529801324503	-0.533721854304636	5.56291390728477	3.2635761589404	-1.45562913907285				0.932026490066225	0.0354966887417219	0.181933774834437	1.9117880794702	0.0519205298013249	2.74251655629139				0.719788079470199	-0.254834437086093	-0.532238410596027	3.94039735099338	-1.52238410596026	-4.11470198675497			
164	3280	0.967841059602649	0.0187549668874172	0.056476821192053	0.593377483443709	-0.424635761589404	-1.18490066225166				0.896953642384106	-0.0482119205298013	0.461139072847682	3.51390728476821	1.42781456953642	2.77403973509934				0.965827814569536	-0.161271523178808	0.0240529801324504	5.60741721854305	-0.693509933774834	-0.76026490066225				0.768529801324503	-0.208529801324503	-0.533721854304636	6.68291390728477	2.1435761589404	-3.13562913907285				0.948026490066225	0.0354966887417219	0.213933774834437	6.6717880794702	3.69192052980133	2.18251655629139				0.719788079470199	-0.270834437086093	-0.532238410596027	6.74039735099338	-0.962384105960265	-5.79470198675497			
165	3300	0.967841059602649	0.0187549668874172	0.072476821192053	1.43337748344371	-0.424635761589404	-1.74490066225166				0.912953642384106	-0.0482119205298013	0.461139072847682	5.19390728476821	0.587814569536424	3.05403973509934				0.965827814569536	-0.161271523178808	0.0240529801324504	4.48741721854305	0.426490066225167	-0.48026490066225				0.768529801324503	-0.224529801324503	-0.533721854304636	5.56291390728477	1.5835761589404	-3.97562913907285				0.948026490066225	0.0194966887417219	0.165933774834437	5.5517880794702	2.29192052980133	1.62251655629139				0.735788079470199	-0.302834437086093	-0.548238410596027	7.86039735099338	-0.122384105960265	-5.79470198675497			
166	3320	0.967841059602649	0.0347549668874172	0.072476821192053	2.27337748344371	-0.144635761589404	-1.74490066225166				0.896953642384106	-0.0482119205298013	0.445139072847682	4.91390728476821	0.307814569536424	3.05403973509934				0.965827814569536	-0.161271523178808	0.00805298013245037	5.32741721854305	0.986490066225167	-0.76026490066225				0.768529801324503	-0.224529801324503	-0.533721854304636	4.44291390728477	3.2635761589404	-4.81562913907285				0.948026490066225	0.0194966887417219	0.197933774834437	4.1517880794702	3.69192052980133	0.222516556291392				0.735788079470199	-0.318834437086093	-0.532238410596027	5.62039735099338	-0.122384105960265	-2.99470198675497			
167	3340	0.967841059602649	0.0347549668874172	0.072476821192053	2.27337748344371	-0.704635761589404	-0.904900662251656				0.896953642384106	-0.0482119205298013	0.461139072847682	4.35390728476821	4.50781456953642	2.77403973509934				0.965827814569536	-0.161271523178808	0.0240529801324504	5.60741721854305	1.26649006622517	-0.48026490066225				0.768529801324503	-0.240529801324503	-0.533721854304636	7.24291390728477	4.9435761589404	-3.13562913907285				0.932026490066225	0.0194966887417219	0.197933774834437	3.3117880794702	5.37192052980133	-0.617483443708608				0.719788079470199	-0.318834437086093	-0.516238410596026	5.06039735099338	-0.962384105960265	-1.03470198675497			
168	3360	0.983841059602649	0.0347549668874172	0.056476821192053	1.99337748344371	-2.1046357615894	-1.46490066225166				0.912953642384106	-0.0642119205298013	0.493139072847682	8.27390728476821	0.307814569536424	3.61403973509934				0.965827814569536	-0.161271523178808	0.0240529801324504	7.00741721854305	0.986490066225167	-0.76026490066225				0.784529801324503	-0.224529801324503	-0.533721854304636	3.60291390728477	5.5035761589404	-1.73562913907285				0.948026490066225	0.0194966887417219	0.181933774834437	3.5917880794702	4.53192052980133	0.222516556291392				0.751788079470199	-0.302834437086093	-0.516238410596026	3.94039735099338	-2.08238410596027	-0.194701986754968			
169	3380	0.967841059602649	0.0347549668874172	0.104476821192053	1.15337748344371	-2.3846357615894	0.215099337748344				0.880953642384106	-0.0322119205298013	0.525139072847682	-2.36609271523179	6.74781456953642	1.09403973509934				0.981827814569536	-0.177271523178808	0.0240529801324504	7.28741721854305	1.82649006622517	-1.04026490066225				0.816529801324503	-0.208529801324503	-0.533721854304636	-0.597086092715232	1.8635761589404	-0.895629139072848				0.964026490066225	0.0194966887417219	0.213933774834437	5.2717880794702	5.37192052980133	-0.337483443708608				0.751788079470199	-0.318834437086093	-0.548238410596027	4.50039735099338	-1.52238410596026	-0.474701986754968			
170	3400	0.967841059602649	0.00275496688741723	0.056476821192053	3.11337748344371	-0.984635761589404	-1.46490066225166				0.912953642384106	-0.0802119205298013	0.461139072847682	5.75390728476821	0.867814569536424	2.49403973509934				0.981827814569536	-0.177271523178808	0.00805298013245037	7.84741721854305	0.986490066225167	-0.76026490066225				0.832529801324503	-0.224529801324503	-0.549721854304636	1.36291390728477	-2.0564238410596	-0.335629139072848				0.980026490066225	0.0354966887417219	0.197933774834437	4.4317880794702	3.41192052980132	-0.617483443708608				0.751788079470199	-0.318834437086093	-0.532238410596027	3.10039735099338	-0.962384105960265	-1.31470198675497			
171	3420	0.967841059602649	0.00275496688741723	0.056476821192053	1.99337748344371	0.975364238410596	-0.904900662251656				0.912953642384106	-0.0802119205298013	0.477139072847682	3.23390728476821	1.98781456953642	3.89403973509934				0.965827814569536	-0.177271523178808	0.0240529801324504	6.44741721854305	2.10649006622517	-1.04026490066225				0.800529801324503	-0.208529801324503	-0.533721854304636	1.36291390728477	-3.7364238410596	-0.615629139072848				0.964026490066225	0.0194966887417219	0.213933774834437	5.2717880794702	1.17192052980133	0.502516556291392				0.751788079470199	-0.318834437086093	-0.532238410596027	6.18039735099338	-2.08238410596027	-0.474701986754968			
172	3440	0.983841059602649	0.0187549668874172	0.040476821192053	1.71337748344371	1.2553642384106	-1.74490066225166				0.912953642384106	-0.0802119205298013	0.461139072847682	3.51390728476821	-0.532185430463576	3.61403973509934				0.965827814569536	-0.193271523178808	0.00805298013245037	3.36741721854305	2.10649006622517	-0.48026490066225				0.784529801324503	-0.208529801324503	-0.517721854304636	-0.597086092715232	-4.5764238410596	-2.85562913907285				0.948026490066225	0.0194966887417219	0.213933774834437	5.8317880794702	2.29192052980133	1.34251655629139				0.751788079470199	-0.318834437086093	-0.516238410596026	5.06039735099338	-1.80238410596026	0.365298013245032			
173	3460	0.983841059602649	0.0187549668874172	0.056476821192053	0.313377483443709	-0.424635761589404	-1.46490066225166				0.896953642384106	-0.0642119205298013	0.445139072847682	3.51390728476821	-0.252185430463576	3.89403973509934				0.965827814569536	-0.161271523178808	0.00805298013245037	0.00741721854304636	1.82649006622517	-0.76026490066225				0.752529801324503	-0.192529801324503	-0.517721854304636	1.64291390728477	-3.1764238410596	-2.57562913907285				0.948026490066225	0.0194966887417219	0.229933774834437	5.5517880794702	2.85192052980133	0.502516556291392				0.751788079470199	-0.318834437086093	-0.532238410596027	5.06039735099338	-2.64238410596027	-1.03470198675497			
174	3480	0.967841059602649	0.0347549668874172	0.00847682119205304	0.0333774834437086	-1.2646357615894	-1.46490066225166				0.896953642384106	-0.0642119205298013	0.445139072847682	2.95390728476821	-0.252185430463576	2.77403973509934				0.965827814569536	-0.161271523178808	0.00805298013245037	0.847417218543046	1.54649006622517	-0.20026490066225				0.752529801324503	-0.208529801324503	-0.517721854304636	3.32291390728477	-1.7764238410596	-1.73562913907285				0.948026490066225	0.0354966887417219	0.213933774834437	4.4317880794702	2.01192052980133	-0.0574834437086077				0.751788079470199	-0.318834437086093	-0.532238410596027	4.78039735099338	-2.36238410596027	-1.31470198675497			
175	3500	0.967841059602649	0.0187549668874172	0.040476821192053	0.313377483443709	-0.704635761589404	-1.18490066225166				0.928953642384106	-0.0642119205298013	0.429139072847682	1.83390728476821	-0.532185430463576	2.49403973509934				0.965827814569536	-0.161271523178808	0.00805298013245037	1.40741721854305	0.986490066225167	0.0797350993377501				0.768529801324503	-0.208529801324503	-0.533721854304636	1.64291390728477	-0.3764238410596	-1.45562913907285				0.948026490066225	0.0194966887417219	0.197933774834437	4.4317880794702	2.85192052980133	1.06251655629139				0.735788079470199	-0.318834437086093	-0.516238410596026	4.50039735099338	-3.20238410596026	-1.59470198675497			
176	3520	0.967841059602649	0.0507549668874172	0.056476821192053	0.873377483443709	0.135364238410596	-0.904900662251656				0.912953642384106	-0.0802119205298013	0.445139072847682	0.993907284768212	-0.532185430463576	1.37403973509934				0.981827814569536	-0.161271523178808	0.00805298013245037	1.96741721854305	0.706490066225167	-0.48026490066225				0.768529801324503	-0.192529801324503	-0.517721854304636	2.48291390728477	2.1435761589404	-1.17562913907285				0.964026490066225	0.0194966887417219	0.229933774834437	5.5517880794702	3.13192052980133	0.782516556291392				0.735788079470199	-0.334834437086093	-0.516238410596026	5.06039735099338	-1.24238410596026	-2.43470198675497			
177	3540	0.967841059602649	0.0347549668874172	0.072476821192053	1.71337748344371	0.135364238410596	-1.46490066225166				0.896953642384106	-0.0802119205298013	0.493139072847682	0.713907284768212	0.307814569536424	0.81403973509934				0.981827814569536	-0.161271523178808	0.00805298013245037	2.52741721854305	0.986490066225167	-0.48026490066225				0.784529801324503	-0.208529801324503	-0.533721854304636	5.00291390728477	2.9835761589404	-1.45562913907285				0.948026490066225	0.00349668874172187	0.213933774834437	3.0317880794702	1.45192052980132	1.06251655629139				0.751788079470199	-0.350834437086093	-0.516238410596026	3.94039735099338	0.717615894039735	-1.31470198675497			
