No	Time	12-AccX	12-AccY	12-AccZ	12-GyroX	12-GyroY	12-GyroZ	13-AccX	13-AccY	13-AccZ	13-GyroX	13-GyroY	13-GyroZ	14-AccX	14-AccY	14-AccZ	14-GyroX	14-GyroY	14-GyroZ	15-AccX	15-AccY	15-AccZ	15-GyroX	15-GyroY	15-GyroZ	16-AccX	16-AccY	16-AccZ	16-GyroX	16-GyroY	16-GyroZ	17-AccX	17-AccY	17-AccZ	17-GyroX	17-GyroY	17-GyroZ
0	0	0	0	0	0	0	0				0	0	0	0	0	0				-0.234172185430464	-0.0972715231788079	-0.88794701986755	4.76741721854305	0.986490066225167	-0.20026490066225				0	0	0	0	0	0				0	0	0	0	0	0				0	0	0	0	0	0			
1	20	-0.264158940397351	0.0827549668874172	-0.935523178807947	-2.76662251655629	1.2553642384106	0.775099337748344				0.944953642384106	-0.0322119205298013	0.317139072847682	-0.126092715231788	1.14781456953642	1.09403973509934				-0.234172185430464	-0.113271523178808	-0.88794701986755	3.92741721854305	1.26649006622517	-0.48026490066225				0.480529801324503	-0.160529801324503	-0.837721854304636	-1.71708609271523	-0.6564238410596	-1.45562913907285				0.932026490066225	-0.0125033112582781	0.229933774834437	0.791788079470198	3.13192052980133	0.222516556291392				0.303788079470199	-0.334834437086093	-0.820238410596026	5.90039735099338	-3.20238410596026	5.40529801324503			
2	40	-0.264158940397351	0.0827549668874172	-0.935523178807947	-1.08662251655629	1.2553642384106	-1.18490066225166				0.944953642384106	-0.0322119205298013	0.349139072847682	1.27390728476821	3.66781456953642	2.77403973509934				-0.250172185430464	-0.0972715231788079	-0.88794701986755	1.68741721854305	1.54649006622517	-0.20026490066225				0.464529801324503	-0.144529801324503	-0.837721854304636	-3.11708609271523	-1.4964238410596	-3.13562913907285				0.916026490066225	-0.0125033112582781	0.245933774834437	1.9117880794702	4.81192052980133	-0.337483443708608				0.303788079470199	-0.350834437086093	-0.804238410596027	6.18039735099338	-2.92238410596027	6.24529801324503			
3	60	-0.280158940397351	0.0987549668874172	-0.935523178807947	-1.36662251655629	0.975364238410596	-1.18490066225166				0.928953642384106	-0.0322119205298013	0.333139072847682	-0.126092715231788	7.58781456953643	3.61403973509934				-0.250172185430464	-0.0652715231788079	-0.90394701986755	0.567417218543046	0.986490066225167	0.0797350993377501				0.464529801324503	-0.128529801324503	-0.837721854304636	-2.27708609271523	-1.2164238410596	-2.85562913907285				0.916026490066225	0.00349668874172187	0.229933774834437	-0.328211920529802	4.81192052980133	-1.17748344370861				0.303788079470199	-0.334834437086093	-0.804238410596027	5.34039735099338	-4.32238410596027	5.68529801324503			
4	80	-0.248158940397351	0.0987549668874172	-0.951523178807947	-1.92662251655629	1.8153642384106	-0.0649006622516557				0.944953642384106	-0.0322119205298013	0.365139072847682	-2.64609271523179	12.0678145695364	3.05403973509934				-0.234172185430464	-0.0812715231788079	-0.88794701986755	1.40741721854305	-0.693509933774834	-0.48026490066225				0.480529801324503	-0.144529801324503	-0.853721854304636	-4.23708609271523	-1.4964238410596	-2.57562913907285				0.932026490066225	0.00349668874172187	0.245933774834437	4.9917880794702	6.77192052980133	-2.01748344370861				0.335788079470199	-0.334834437086093	-0.804238410596027	4.78039735099338	-4.60238410596027	5.12529801324503			
5	100	-0.248158940397351	0.0987549668874172	-0.935523178807947	-0.806622516556291	1.8153642384106	-0.0649006622516557				0.960953642384106	-0.0482119205298013	0.381139072847682	-2.36609271523179	6.74781456953642	3.33403973509934				-0.218172185430464	-0.0812715231788079	-0.87194701986755	2.52741721854305	1.54649006622517	0.0797350993377501				0.480529801324503	-0.144529801324503	-0.821721854304636	-5.91708609271523	1.0235761589404	-2.85562913907285				0.932026490066225	-0.0125033112582781	0.261933774834437	6.3917880794702	7.61192052980133	-1.73748344370861				0.351788079470199	-0.334834437086093	-0.804238410596027	6.46039735099338	-2.64238410596027	4.28529801324503			
6	120	-0.232158940397351	0.0827549668874172	-0.935523178807947	-0.246622516556291	0.415364238410596	-0.624900662251656				0.944953642384106	-0.0482119205298013	0.349139072847682	-0.686092715231788	2.26781456953642	2.21403973509934				-0.202172185430464	-0.0972715231788079	-0.87194701986755	3.36741721854305	-0.133509933774833	0.0797350993377501				0.480529801324503	-0.112529801324503	-0.821721854304636	-5.91708609271523	1.5835761589404	-2.29562913907285				0.948026490066225	-0.0125033112582781	0.245933774834437	4.4317880794702	8.17192052980133	-2.01748344370861				0.335788079470199	-0.350834437086093	-0.788238410596027	6.46039735099338	0.437615894039735	2.04529801324503			
7	140	-0.264158940397351	0.0827549668874172	-0.935523178807947	-1.36662251655629	-0.424635761589404	0.215099337748344				0.912953642384106	-0.0482119205298013	0.333139072847682	0.153907284768212	-0.812185430463576	2.77403973509934				-0.234172185430464	-0.0812715231788079	-0.87194701986755	-0.272582781456954	-1.81350993377483	-0.20026490066225				0.464529801324503	-0.112529801324503	-0.821721854304636	-2.83708609271523	1.8635761589404	-2.01562913907285				0.948026490066225	0.00349668874172187	0.245933774834437	3.0317880794702	5.93192052980133	-2.01748344370861				0.351788079470199	-0.366834437086093	-0.804238410596027	4.78039735099338	1.27761589403974	0.925298013245032			
8	160	-0.280158940397351	0.0827549668874172	-0.935523178807947	-1.36662251655629	-0.424635761589404	-0.624900662251656				0.944953642384106	-0.0482119205298013	0.317139072847682	0.993907284768212	2.82781456953642	2.21403973509934				-0.250172185430464	-0.0812715231788079	-0.88794701986755	0.847417218543046	-0.693509933774834	-0.20026490066225				0.448529801324503	-0.112529801324503	-0.821721854304636	-1.43708609271523	1.8635761589404	-0.895629139072848				0.932026490066225	-0.0125033112582781	0.245933774834437	3.5917880794702	2.57192052980133	-0.337483443708608				0.351788079470199	-0.350834437086093	-0.804238410596027	2.54039735099338	0.437615894039735	1.20529801324503			
9	180	-0.280158940397351	0.0667549668874172	-0.951523178807947	-1.36662251655629	0.975364238410596	-1.18490066225166				0.944953642384106	-0.0322119205298013	0.349139072847682	-0.686092715231788	8.98781456953643	2.49403973509934				-0.250172185430464	-0.0812715231788079	-0.90394701986755	-0.272582781456954	0.426490066225167	-0.76026490066225				0.448529801324503	-0.128529801324503	-0.821721854304636	-1.15708609271523	2.7035761589404	-1.45562913907285				0.916026490066225	-0.0125033112582781	0.277933774834437	3.8717880794702	2.85192052980133	-0.337483443708608				0.351788079470199	-0.350834437086093	-0.788238410596027	2.54039735099338	0.157615894039735	1.20529801324503			
10	200	-0.280158940397351	0.0987549668874172	-0.935523178807947	-1.64662251655629	0.975364238410596	-1.46490066225166				0.960953642384106	-0.0322119205298013	0.349139072847682	-2.92609271523179	9.82781456953643	1.65403973509934				-0.250172185430464	-0.0812715231788079	-0.88794701986755	1.68741721854305	1.54649006622517	-1.04026490066225				0.464529801324503	-0.128529801324503	-0.837721854304636	-2.55708609271523	2.7035761589404	-2.29562913907285				0.916026490066225	-0.0125033112582781	0.277933774834437	0.511788079470198	5.09192052980133	-0.617483443708608				0.367788079470199	-0.366834437086093	-0.804238410596027	2.54039735099338	1.83761589403974	1.48529801324503			
11	220	-0.264158940397351	0.0987549668874172	-0.919523178807947	-1.08662251655629	-0.144635761589404	-1.46490066225166				0.944953642384106	-0.0322119205298013	0.381139072847682	-2.64609271523179	7.02781456953642	0.25403973509934				-0.218172185430464	-0.0812715231788079	-0.85594701986755	4.76741721854305	0.426490066225167	-1.32026490066225				0.480529801324503	-0.112529801324503	-0.837721854304636	-2.83708609271523	2.9835761589404	-1.45562913907285				0.932026490066225	0.00349668874172187	0.261933774834437	-2.0082119205298	5.09192052980133	-1.17748344370861				0.367788079470199	-0.382834437086093	-0.788238410596027	4.22039735099338	2.39761589403974	2.04529801324503			
12	240	-0.264158940397351	0.0987549668874172	-0.935523178807947	-1.64662251655629	-0.144635761589404	-1.18490066225166				0.944953642384106	-0.0482119205298013	0.381139072847682	-0.126092715231788	2.54781456953642	0.53403973509934				-0.234172185430464	-0.0972715231788079	-0.88794701986755	0.287417218543046	1.26649006622517	-0.20026490066225				0.496529801324503	-0.128529801324503	-0.837721854304636	-2.55708609271523	2.4235761589404	-1.45562913907285				0.948026490066225	0.00349668874172187	0.261933774834437	-3.6882119205298	4.53192052980133	-0.617483443708608				0.367788079470199	-0.382834437086093	-0.820238410596026	3.38039735099338	1.55761589403974	0.925298013245032			
13	260	-0.264158940397351	0.0987549668874172	-0.951523178807947	-1.36662251655629	0.975364238410596	-0.904900662251656				0.960953642384106	-0.0322119205298013	0.349139072847682	1.27390728476821	3.10781456953642	1.09403973509934				-0.250172185430464	-0.0972715231788079	-0.90394701986755	-1.11258278145695	0.986490066225167	0.91973509933775				0.496529801324503	-0.128529801324503	-0.837721854304636	-2.83708609271523	1.8635761589404	-1.17562913907285				0.948026490066225	0.00349668874172187	0.293933774834437	-2.2882119205298	6.77192052980133	-2.01748344370861				0.367788079470199	-0.350834437086093	-0.804238410596027	3.66039735099338	0.437615894039735	0.0852980132450323			
14	280	-0.248158940397351	0.0827549668874172	-0.935523178807947	0.873377483443709	1.8153642384106	-1.46490066225166				0.944953642384106	-0.0322119205298013	0.349139072847682	0.713907284768212	3.38781456953642	-0.0259602649006601				-0.218172185430464	-0.0812715231788079	-0.88794701986755	1.12741721854305	0.426490066225167	1.19973509933775				0.496529801324503	-0.112529801324503	-0.837721854304636	-4.51708609271523	1.0235761589404	-0.615629139072848				0.932026490066225	0.0194966887417219	0.293933774834437	-2.0082119205298	5.93192052980133	-2.01748344370861				0.367788079470199	-0.350834437086093	-0.804238410596027	2.54039735099338	0.157615894039735	0.0852980132450323			
15	300	-0.248158940397351	0.0827549668874172	-0.919523178807947	0.873377483443709	0.415364238410596	-0.624900662251656				0.944953642384106	-0.0322119205298013	0.365139072847682	-0.126092715231788	2.26781456953642	0.81403973509934				-0.218172185430464	-0.0812715231788079	-0.87194701986755	2.52741721854305	0.706490066225167	0.63973509933775				0.496529801324503	-0.112529801324503	-0.805721854304636	-4.51708609271523	1.8635761589404	-0.335629139072848				0.948026490066225	0.0194966887417219	0.277933774834437	-3.6882119205298	5.37192052980133	-2.29748344370861				0.351788079470199	-0.366834437086093	-0.804238410596027	2.54039735099338	-0.402384105960265	-0.474701986754968			
16	320	-0.248158940397351	0.0827549668874172	-0.935523178807947	-0.806622516556291	-0.984635761589404	-0.904900662251656				0.928953642384106	-0.0322119205298013	0.365139072847682	-1.24609271523179	-0.252185430463576	0.53403973509934				-0.218172185430464	-0.0652715231788079	-0.87194701986755	0.287417218543046	0.146490066225167	-0.20026490066225				0.496529801324503	-0.0965298013245033	-0.821721854304636	-3.11708609271523	2.1435761589404	1.34437086092715				0.948026490066225	0.00349668874172187	0.277933774834437	-0.608211920529802	2.57192052980133	-1.73748344370861				0.351788079470199	-0.366834437086093	-0.820238410596026	1.42039735099338	-0.402384105960265	-1.03470198675497			
17	340	-0.264158940397351	0.0987549668874172	-0.935523178807947	-0.246622516556291	-0.984635761589404	-1.18490066225166				0.928953642384106	-0.0322119205298013	0.365139072847682	-0.686092715231788	-1.09218543046358	-0.585960264900661				-0.234172185430464	-0.0812715231788079	-0.87194701986755	0.287417218543046	-0.973509933774833	-0.20026490066225				0.496529801324503	-0.112529801324503	-0.837721854304636	-0.877086092715232	1.5835761589404	1.06437086092715				0.932026490066225	0.00349668874172187	0.261933774834437	-0.888211920529802	-0.228079470198675	-1.17748344370861				0.351788079470199	-0.350834437086093	-0.804238410596027	0.580397350993377	-0.682384105960265	-0.754701986754968			
18	360	-0.264158940397351	0.0827549668874172	-0.887523178807947	-0.246622516556291	-0.144635761589404	0.215099337748344				0.944953642384106	-0.0482119205298013	0.333139072847682	-0.126092715231788	1.98781456953642	0.53403973509934				-0.250172185430464	-0.0812715231788079	-0.88794701986755	0.567417218543046	-0.693509933774834	0.35973509933775				0.480529801324503	-0.112529801324503	-0.821721854304636	-1.71708609271523	1.3035761589404	1.06437086092715				0.932026490066225	0.0194966887417219	0.261933774834437	-1.7282119205298	0.611920529801325	-0.337483443708608				0.335788079470199	-0.366834437086093	-0.804238410596027	0.300397350993377	-0.402384105960265	0.365298013245032			
19	380	-0.264158940397351	0.0827549668874172	-0.951523178807947	-0.526622516556291	-0.144635761589404	-0.904900662251656				0.944953642384106	-0.0482119205298013	0.349139072847682	-0.406092715231788	1.98781456953642	0.53403973509934				-0.234172185430464	-0.0972715231788079	-0.88794701986755	0.567417218543046	0.706490066225167	0.0797350993377501				0.464529801324503	-0.0965298013245033	-0.821721854304636	-1.71708609271523	1.3035761589404	0.504370860927152				0.916026490066225	0.00349668874172187	0.277933774834437	-0.0482119205298018	1.73192052980133	-1.17748344370861				0.319788079470199	-0.398834437086093	-0.804238410596027	1.70039735099338	-0.402384105960265	0.365298013245032			
20	400	-0.264158940397351	0.0827549668874172	-0.919523178807947	0.313377483443709	0.135364238410596	-1.18490066225166				0.944953642384106	-0.0482119205298013	0.365139072847682	-0.966092715231788	0.0278145695364242	0.81403973509934				-0.234172185430464	-0.0812715231788079	-0.88794701986755	0.847417218543046	0.426490066225167	-0.48026490066225				0.480529801324503	-0.112529801324503	-0.837721854304636	-1.71708609271523	2.7035761589404	1.06437086092715				0.932026490066225	0.00349668874172187	0.261933774834437	-0.608211920529802	1.45192052980132	-0.617483443708608				0.335788079470199	-0.382834437086093	-0.804238410596027	0.580397350993377	-0.402384105960265	0.925298013245032			
21	420	-0.264158940397351	0.0987549668874172	-0.935523178807947	-0.526622516556291	-0.424635761589404	-1.18490066225166				0.944953642384106	-0.0322119205298013	0.349139072847682	-0.686092715231788	-1.93218543046358	0.25403973509934				-0.234172185430464	-0.0812715231788079	-0.85594701986755	0.847417218543046	-0.973509933774833	-0.20026490066225				0.480529801324503	-0.112529801324503	-0.837721854304636	-1.43708609271523	2.1435761589404	1.06437086092715				0.932026490066225	0.00349668874172187	0.261933774834437	-1.4482119205298	2.01192052980133	-1.17748344370861				0.351788079470199	-0.366834437086093	-0.820238410596026	-0.539602649006623	0.997615894039735	0.645298013245032			
22	440	-0.264158940397351	0.0987549668874172	-0.951523178807947	-0.806622516556291	-0.704635761589404	-1.18490066225166				0.928953642384106	-0.0322119205298013	0.349139072847682	-0.126092715231788	-1.37218543046358	-0.0259602649006601				-0.234172185430464	-0.0812715231788079	-0.87194701986755	0.00741721854304636	-0.693509933774834	0.91973509933775				0.480529801324503	-0.112529801324503	-0.821721854304636	-0.597086092715232	1.3035761589404	0.784370860927152				0.948026490066225	0.00349668874172187	0.261933774834437	-1.1682119205298	0.331920529801325	-1.17748344370861				0.335788079470199	-0.366834437086093	-0.820238410596026	-0.819602649006623	0.997615894039735	0.925298013245032			
23	460	-0.248158940397351	0.0987549668874172	-0.935523178807947	-0.246622516556291	-0.144635761589404	-0.344900662251656				0.944953642384106	-0.0322119205298013	0.333139072847682	0.713907284768212	0.307814569536424	0.53403973509934				-0.234172185430464	-0.0812715231788079	-0.85594701986755	-0.272582781456954	0.426490066225167	1.75973509933775				0.480529801324503	-0.128529801324503	-0.837721854304636	-0.0370860927152318	1.3035761589404	1.62437086092715				0.932026490066225	0.00349668874172187	0.277933774834437	0.791788079470198	0.891920529801325	-1.17748344370861				0.335788079470199	-0.366834437086093	-0.820238410596026	-0.819602649006623	0.157615894039735	0.645298013245032			
24	480	-0.264158940397351	0.0827549668874172	-0.935523178807947	-0.246622516556291	-0.144635761589404	-0.624900662251656				0.944953642384106	-0.0482119205298013	0.333139072847682	-0.686092715231788	1.42781456953642	0.53403973509934				-0.218172185430464	-0.0972715231788079	-0.88794701986755	0.287417218543046	-0.133509933774833	0.35973509933775				0.464529801324503	-0.128529801324503	-0.837721854304636	-2.27708609271523	1.0235761589404	1.06437086092715				0.932026490066225	0.00349668874172187	0.261933774834437	-0.328211920529802	0.891920529801325	-0.617483443708608				0.335788079470199	-0.366834437086093	-0.804238410596027	0.300397350993377	0.157615894039735	-0.474701986754968			
25	500	-0.248158940397351	0.0827549668874172	-0.935523178807947	-0.526622516556291	-0.704635761589404	-1.18490066225166				0.912953642384106	-0.0482119205298013	0.349139072847682	-0.686092715231788	0.867814569536424	0.53403973509934				-0.234172185430464	-0.0812715231788079	-0.87194701986755	-0.832582781456954	-1.25350993377483	0.63973509933775				0.480529801324503	-0.112529801324503	-0.821721854304636	-1.71708609271523	0.4635761589404	0.784370860927152				0.932026490066225	0.00349668874172187	0.261933774834437	-0.888211920529802	2.01192052980133	-1.17748344370861				0.335788079470199	-0.366834437086093	-0.804238410596027	-1.37960264900662	0.997615894039735	0.0852980132450323			
26	520	-0.264158940397351	0.0827549668874172	-0.935523178807947	-0.526622516556291	-1.5446357615894	-0.344900662251656				0.928953642384106	-0.0642119205298013	0.365139072847682	0.993907284768212	0.307814569536424	-0.0259602649006601				-0.234172185430464	-0.0972715231788079	-0.87194701986755	0.847417218543046	-1.81350993377483	0.0797350993377501				0.464529801324503	-0.0965298013245033	-0.821721854304636	-1.43708609271523	0.7435761589404	0.224370860927152				0.916026490066225	0.00349668874172187	0.261933774834437	-0.888211920529802	2.85192052980133	-0.897483443708608				0.335788079470199	-0.350834437086093	-0.804238410596027	-1.93960264900662	0.717615894039735	-0.754701986754968			
27	540	-0.280158940397351	0.0987549668874172	-0.935523178807947	-1.64662251655629	-1.5446357615894	-0.624900662251656				0.928953642384106	-0.0482119205298013	0.349139072847682	-0.406092715231788	0.587814569536424	-1.14596026490066				-0.218172185430464	-0.0972715231788079	-0.87194701986755	0.00741721854304636	-0.693509933774834	0.63973509933775				0.480529801324503	-0.112529801324503	-0.821721854304636	0.242913907284768	0.7435761589404	-0.0556291390728476				0.932026490066225	0.00349668874172187	0.261933774834437	-3.1282119205298	2.29192052980133	-1.45748344370861				0.335788079470199	-0.366834437086093	-0.804238410596027	0.0203973509933773	1.27761589403974	-2.43470198675497			
28	560	-0.280158940397351	0.0987549668874172	-0.935523178807947	-0.246622516556291	-1.2646357615894	-0.344900662251656				0.944953642384106	-0.0322119205298013	0.349139072847682	-1.80609271523179	1.42781456953642	-1.70596026490066				-0.250172185430464	-0.0812715231788079	-0.88794701986755	-3.07258278145695	-2.09350993377483	0.63973509933775				0.480529801324503	-0.128529801324503	-0.837721854304636	0.802913907284768	1.5835761589404	0.224370860927152				0.932026490066225	-0.0125033112582781	0.261933774834437	-1.1682119205298	0.331920529801325	-1.45748344370861				0.319788079470199	-0.350834437086093	-0.804238410596027	0.300397350993377	1.27761589403974	-2.15470198675497			
29	580	-0.280158940397351	0.0987549668874172	-0.935523178807947	0.593377483443709	-1.2646357615894	-1.18490066225166				0.944953642384106	-0.0322119205298013	0.349139072847682	-1.52609271523179	3.66781456953642	-0.585960264900661				-0.266172185430464	-0.0812715231788079	-0.88794701986755	-0.832582781456954	-0.413509933774833	1.19973509933775				0.464529801324503	-0.128529801324503	-0.837721854304636	-0.877086092715232	2.1435761589404	-0.335629139072848				0.916026490066225	0.00349668874172187	0.293933774834437	-2.5682119205298	2.01192052980133	-1.73748344370861				0.319788079470199	-0.366834437086093	-0.788238410596027	-0.819602649006623	2.39761589403974	-2.43470198675497			
30	600	-0.280158940397351	0.0987549668874172	-0.935523178807947	0.593377483443709	-0.704635761589404	-1.46490066225166				0.960953642384106	-0.0162119205298013	0.333139072847682	-0.406092715231788	4.50781456953642	-0.585960264900661				-0.250172185430464	-0.0652715231788079	-0.88794701986755	0.00741721854304636	0.706490066225167	0.91973509933775				0.480529801324503	-0.128529801324503	-0.837721854304636	-0.0370860927152318	3.8235761589404	-0.335629139072848				0.932026490066225	0.00349668874172187	0.261933774834437	-4.2482119205298	5.09192052980133	-2.57748344370861				0.319788079470199	-0.382834437086093	-0.804238410596027	-3.33960264900662	4.91761589403974	-2.71470198675497			
31	620	-0.280158940397351	0.0987549668874172	-0.935523178807947	-0.806622516556291	-0.144635761589404	-1.18490066225166				0.960953642384106	-0.0482119205298013	0.381139072847682	-0.406092715231788	1.42781456953642	-1.42596026490066				-0.250172185430464	-0.0812715231788079	-0.87194701986755	0.847417218543046	-0.973509933774833	0.35973509933775				0.480529801324503	-0.128529801324503	-0.853721854304636	0.522913907284768	4.6635761589404	-0.895629139072848				0.948026490066225	-0.0125033112582781	0.277933774834437	-1.4482119205298	3.97192052980133	-3.41748344370861				0.335788079470199	-0.382834437086093	-0.804238410596027	-2.77960264900662	5.47761589403974	-4.11470198675497			
32	640	-0.280158940397351	0.0987549668874172	-0.935523178807947	-0.526622516556291	-0.144635761589404	-0.904900662251656				0.944953642384106	-0.0322119205298013	0.381139072847682	-0.966092715231788	-3.05218543046358	-2.54596026490066				-0.250172185430464	-0.0812715231788079	-0.88794701986755	-1.67258278145695	-0.413509933774833	1.19973509933775				0.496529801324503	-0.112529801324503	-0.853721854304636	-0.0370860927152318	5.2235761589404	-1.17562913907285				0.948026490066225	0.00349668874172187	0.261933774834437	-0.328211920529802	2.01192052980133	-2.29748344370861				0.335788079470199	-0.382834437086093	-0.836238410596026	-3.05960264900662	7.43761589403974	-3.55470198675497			
33	660	-0.280158940397351	0.0987549668874172	-0.935523178807947	0.313377483443709	0.975364238410596	-1.18490066225166				0.944953642384106	-0.0322119205298013	0.365139072847682	-0.126092715231788	-0.532185430463576	-3.10596026490066				-0.250172185430464	-0.0812715231788079	-0.90394701986755	-2.79258278145695	-0.693509933774834	0.91973509933775				0.496529801324503	-0.128529801324503	-0.853721854304636	0.802913907284768	4.6635761589404	-1.17562913907285				0.964026490066225	0.00349668874172187	0.261933774834437	-0.888211920529802	1.73192052980133	-2.01748344370861				0.351788079470199	-0.382834437086093	-0.836238410596026	-3.61960264900662	7.43761589403974	-1.59470198675497			
34	680	-0.264158940397351	0.0987549668874172	-0.935523178807947	-0.246622516556291	1.2553642384106	-1.46490066225166				0.960953642384106	-0.0322119205298013	0.317139072847682	2.11390728476821	-0.252185430463576	-1.42596026490066				-0.250172185430464	-0.0812715231788079	-0.90394701986755	-1.67258278145695	-0.133509933774833	0.35973509933775				0.480529801324503	-0.144529801324503	-0.869721854304636	3.60291390728477	4.9435761589404	-0.0556291390728476				0.948026490066225	0.00349668874172187	0.261933774834437	0.231788079470198	1.45192052980132	-2.57748344370861				0.335788079470199	-0.382834437086093	-0.836238410596026	-5.29960264900662	7.99761589403974	-0.474701986754968			
35	700	-0.248158940397351	0.0667549668874172	-0.935523178807947	-2.20662251655629	1.5353642384106	-1.46490066225166				0.944953642384106	-0.0482119205298013	0.333139072847682	2.11390728476821	-0.532185430463576	-0.585960264900661				-0.202172185430464	-0.0972715231788079	-0.87194701986755	-0.832582781456954	1.26649006622517	-0.20026490066225				0.496529801324503	-0.128529801324503	-0.853721854304636	5.28291390728477	1.8635761589404	-0.615629139072848				0.948026490066225	0.00349668874172187	0.277933774834437	-0.328211920529802	1.17192052980133	-2.57748344370861				0.351788079470199	-0.366834437086093	-0.836238410596026	-6.69960264900662	5.75761589403974	0.925298013245032			
36	720	-0.248158940397351	0.0827549668874172	-0.951523178807947	-1.92662251655629	0.695364238410596	-0.624900662251656				0.928953642384106	-0.0482119205298013	0.333139072847682	0.153907284768212	-1.93218543046358	-1.70596026490066				-0.218172185430464	-0.0812715231788079	-0.87194701986755	-1.67258278145695	1.26649006622517	0.0797350993377501				0.496529801324503	-0.128529801324503	-0.869721854304636	-0.317086092715232	-0.6564238410596	-1.17562913907285				0.948026490066225	0.00349668874172187	0.245933774834437	-1.1682119205298	0.891920529801325	-2.57748344370861				0.367788079470199	-0.350834437086093	-0.836238410596026	-4.45960264900662	4.07761589403974	2.04529801324503			
37	740	-0.248158940397351	0.0827549668874172	-0.951523178807947	-0.806622516556291	-0.144635761589404	-0.904900662251656				0.928953642384106	-0.0322119205298013	0.349139072847682	0.713907284768212	1.98781456953642	-1.42596026490066				-0.234172185430464	-0.0812715231788079	-0.87194701986755	-2.51258278145695	0.426490066225167	1.19973509933775				0.480529801324503	-0.128529801324503	-0.853721854304636	-1.15708609271523	-1.7764238410596	-1.17562913907285				0.932026490066225	0.0194966887417219	0.245933774834437	-0.328211920529802	0.331920529801325	-3.13748344370861				0.351788079470199	-0.350834437086093	-0.820238410596026	-3.61960264900662	2.67761589403974	2.04529801324503			
38	760	-0.264158940397351	0.0987549668874172	-0.935523178807947	0.313377483443709	1.2553642384106	0.215099337748344				0.944953642384106	-0.0322119205298013	0.349139072847682	3.79390728476821	2.54781456953642	-1.14596026490066				-0.250172185430464	-0.0812715231788079	-0.90394701986755	-2.79258278145695	-0.133509933774833	0.91973509933775				0.480529801324503	-0.128529801324503	-0.837721854304636	-3.67708609271523	-3.1764238410596	-1.17562913907285				0.916026490066225	0.0194966887417219	0.261933774834437	-0.0482119205298018	1.73192052980133	-2.57748344370861				0.335788079470199	-0.350834437086093	-0.820238410596026	-1.65960264900662	0.717615894039735	1.48529801324503			
39	780	-0.280158940397351	0.0827549668874172	-0.919523178807947	-1.36662251655629	1.2553642384106	-0.0649006622516557				0.960953642384106	-0.0162119205298013	0.333139072847682	2.39390728476821	2.54781456953642	-0.86596026490066				-0.250172185430464	-0.0812715231788079	-0.88794701986755	-1.39258278145695	0.426490066225167	2.31973509933775				0.480529801324503	-0.112529801324503	-0.837721854304636	-7.03708609271523	-6.2564238410596	-0.895629139072848				0.932026490066225	0.00349668874172187	0.261933774834437	-1.1682119205298	2.85192052980133	-3.13748344370861				0.335788079470199	-0.350834437086093	-0.788238410596027	-2.49960264900662	-1.52238410596026	1.20529801324503			
40	800	-0.264158940397351	0.0827549668874172	-0.919523178807947	-1.36662251655629	0.975364238410596	-0.0649006622516557				0.960953642384106	-0.0162119205298013	0.333139072847682	0.993907284768212	0.867814569536424	-0.86596026490066				-0.250172185430464	-0.0652715231788079	-0.88794701986755	-3.35258278145695	0.426490066225167	1.47973509933775				0.464529801324503	-0.112529801324503	-0.837721854304636	-9.55708609271523	-6.2564238410596	-1.73562913907285				0.948026490066225	0.00349668874172187	0.277933774834437	-0.0482119205298018	5.09192052980133	-4.25748344370861				0.335788079470199	-0.334834437086093	-0.820238410596026	-3.61960264900662	-0.682384105960265	1.48529801324503			
41	820	-0.280158940397351	0.0987549668874172	-0.935523178807947	-3.32662251655629	-0.144635761589404	-0.904900662251656				0.944953642384106	-0.0322119205298013	0.333139072847682	1.27390728476821	-0.252185430463576	-0.585960264900661				-0.250172185430464	-0.0492715231788079	-0.87194701986755	-2.23258278145695	-0.133509933774833	0.63973509933775				0.448529801324503	-0.0965298013245033	-0.837721854304636	-3.95708609271523	-0.9364238410596	-2.29562913907285				0.948026490066225	0.0194966887417219	0.261933774834437	-2.2882119205298	1.45192052980132	-3.41748344370861				0.351788079470199	-0.334834437086093	-0.836238410596026	-4.17960264900662	-0.402384105960265	0.645298013245032			
42	840	-0.264158940397351	0.114754966887417	-0.935523178807947	-1.08662251655629	0.695364238410596	-0.0649006622516557				0.944953642384106	-0.000211920529801304	0.349139072847682	0.993907284768212	1.70781456953642	-0.585960264900661				-0.266172185430464	-0.0332715231788079	-0.88794701986755	-1.67258278145695	-0.133509933774833	0.35973509933775				0.464529801324503	-0.0965298013245033	-0.853721854304636	-2.27708609271523	2.1435761589404	-2.29562913907285				0.948026490066225	0.0194966887417219	0.261933774834437	-1.4482119205298	0.891920529801325	-3.97748344370861				0.319788079470199	-0.334834437086093	-0.820238410596026	-1.09960264900662	0.997615894039735	-0.754701986754968			
43	860	-0.280158940397351	0.0987549668874172	-0.919523178807947	-1.92662251655629	1.2553642384106	0.495099337748344				0.944953642384106	-0.0162119205298013	0.365139072847682	0.433907284768212	4.50781456953642	-0.585960264900661				-0.266172185430464	-0.0492715231788079	-0.88794701986755	1.68741721854305	-0.133509933774833	0.0797350993377501				0.464529801324503	-0.0965298013245033	-0.853721854304636	-3.95708609271523	1.0235761589404	-2.57562913907285				0.948026490066225	0.0194966887417219	0.261933774834437	-0.888211920529802	0.0519205298013249	-3.97748344370861				0.319788079470199	-0.350834437086093	-0.820238410596026	-0.539602649006623	2.11761589403974	0.0852980132450323			
44	880	-0.280158940397351	0.114754966887417	-0.935523178807947	-1.64662251655629	1.5353642384106	-0.0649006622516557				0.960953642384106	-0.0162119205298013	0.365139072847682	0.713907284768212	4.78781456953642	-0.86596026490066				-0.234172185430464	-0.0652715231788079	-0.90394701986755	0.00741721854304636	0.986490066225167	-0.20026490066225				0.480529801324503	-0.0965298013245033	-0.853721854304636	-5.63708609271523	-0.0964238410596001	-3.13562913907285				0.932026490066225	0.0194966887417219	0.261933774834437	-0.0482119205298018	2.29192052980133	-3.41748344370861				0.335788079470199	-0.350834437086093	-0.804238410596027	-3.05960264900662	2.67761589403974	0.645298013245032			
45	900	-0.264158940397351	0.0987549668874172	-0.951523178807947	-0.246622516556291	1.2553642384106	-0.624900662251656				0.944953642384106	-0.0322119205298013	0.365139072847682	1.27390728476821	4.22781456953642	-1.70596026490066				-0.234172185430464	-0.0652715231788079	-0.88794701986755	0.287417218543046	2.38649006622517	-0.48026490066225				0.480529801324503	-0.0965298013245033	-0.853721854304636	-5.91708609271523	1.0235761589404	-3.69562913907285				0.932026490066225	0.0354966887417219	0.293933774834437	0.791788079470198	4.81192052980133	-3.41748344370861				0.335788079470199	-0.318834437086093	-0.820238410596026	-5.57960264900662	4.63761589403974	1.48529801324503			
46	920	-0.248158940397351	0.114754966887417	-0.935523178807947	0.313377483443709	1.5353642384106	-0.624900662251656				0.944953642384106	-0.0162119205298013	0.365139072847682	0.993907284768212	1.70781456953642	-1.14596026490066				-0.234172185430464	-0.0652715231788079	-0.87194701986755	0.567417218543046	1.54649006622517	-1.32026490066225				0.496529801324503	-0.0965298013245033	-0.837721854304636	-4.51708609271523	2.7035761589404	-2.85562913907285				0.948026490066225	0.0194966887417219	0.261933774834437	1.9117880794702	4.25192052980133	-4.25748344370861				0.335788079470199	-0.318834437086093	-0.820238410596026	-3.89960264900662	5.75761589403974	0.365298013245032			
47	940	-0.264158940397351	0.0987549668874172	-0.935523178807947	-0.806622516556291	0.695364238410596	-1.18490066225166				0.944953642384106	-0.0162119205298013	0.349139072847682	0.993907284768212	0.587814569536424	-0.585960264900661				-0.250172185430464	-0.0652715231788079	-0.90394701986755	-1.39258278145695	0.426490066225167	-0.76026490066225				0.480529801324503	-0.0965298013245033	-0.853721854304636	-0.0370860927152318	2.1435761589404	-2.85562913907285				0	0	0	0	0	0				0	0	0	0	0	0			
48	960	0	0	0	0	0	0				0	0	0	0	0	0				0	0	0	0	0	0				0.480529801324503	-0.0965298013245033	-0.837721854304636	-3.39708609271523	-0.6564238410596	-3.13562913907285				0.932026490066225	0.0194966887417219	0.261933774834437	2.7517880794702	2.29192052980133	-3.41748344370861				0.367788079470199	-0.334834437086093	-0.820238410596026	-2.49960264900662	4.63761589403974	-2.15470198675497			
49	980	-0.280158940397351	0.0987549668874172	-0.903523178807947	-0.246622516556291	1.2553642384106	-1.18490066225166				0.928953642384106	-0.0162119205298013	0.365139072847682	-0.406092715231788	5.90781456953642	0.25403973509934				-0.266172185430464	-0.0652715231788079	-0.90394701986755	-1.67258278145695	-0.413509933774833	-0.76026490066225				0.480529801324503	-0.0805298013245033	-0.821721854304636	-4.79708609271523	-1.4964238410596	-3.41562913907285				0.916026490066225	0.0354966887417219	0.261933774834437	1.6317880794702	1.45192052980132	-3.97748344370861				0.351788079470199	-0.334834437086093	-0.804238410596027	-1.65960264900662	3.51761589403974	-2.99470198675497			
50	1000	-0.264158940397351	0.0987549668874172	-0.919523178807947	-0.806622516556291	1.2553642384106	-2.30490066225166				0.928953642384106	-0.0162119205298013	0.365139072847682	1.83390728476821	6.18781456953642	0.81403973509934				-0.234172185430464	-0.0652715231788079	-0.87194701986755	1.40741721854305	0.706490066225167	-1.32026490066225				0.480529801324503	-0.0645298013245033	-0.837721854304636	-5.07708609271523	-1.4964238410596	-3.97562913907285				0.932026490066225	0.0354966887417219	0.293933774834437	1.6317880794702	3.13192052980133	-3.97748344370861				0.351788079470199	-0.334834437086093	-0.804238410596027	-4.17960264900662	3.23761589403974	-2.15470198675497			
51	1020	-0.264158940397351	0.114754966887417	-0.935523178807947	-0.526622516556291	0.975364238410596	-2.30490066225166				0.928953642384106	-0.0162119205298013	0.349139072847682	2.67390728476821	3.10781456953642	1.37403973509934				-0.234172185430464	-0.0492715231788079	-0.87194701986755	1.40741721854305	0.986490066225167	-0.48026490066225				0.480529801324503	-0.0645298013245033	-0.821721854304636	-4.79708609271523	0.4635761589404	-3.13562913907285				0.916026490066225	0.0354966887417219	0.293933774834437	2.1917880794702	5.09192052980133	-3.97748344370861				0.367788079470199	-0.318834437086093	-0.804238410596027	-3.05960264900662	2.39761589403974	-3.27470198675497			
52	1040	-0.248158940397351	0.0987549668874172	-0.935523178807947	-0.526622516556291	0.695364238410596	-1.18490066225166				0.944953642384106	-0.0162119205298013	0.349139072847682	2.95390728476821	2.26781456953642	0.25403973509934				-0.234172185430464	-0.0652715231788079	-0.87194701986755	1.40741721854305	-0.693509933774834	-0.48026490066225				0.480529801324503	-0.0645298013245033	-0.821721854304636	-2.55708609271523	-0.0964238410596001	-3.97562913907285				0.948026490066225	0.0514966887417219	0.277933774834437	2.7517880794702	3.41192052980132	-4.25748344370861				0.367788079470199	-0.318834437086093	-0.836238410596026	-0.819602649006623	2.95761589403974	-4.95470198675497			
53	1060	-0.264158940397351	0.0987549668874172	-0.935523178807947	-1.36662251655629	0.135364238410596	-1.18490066225166				0.928953642384106	-0.0322119205298013	0.349139072847682	1.55390728476821	1.14781456953642	-0.0259602649006601				-0.250172185430464	-0.0812715231788079	-0.88794701986755	1.68741721854305	-1.25350993377483	-1.04026490066225				0.496529801324503	-0.0645298013245033	-0.837721854304636	-1.99708609271523	-0.9364238410596	-4.53562913907285				0.948026490066225	0.0354966887417219	0.277933774834437	3.0317880794702	2.01192052980133	-2.01748344370861				0.383788079470199	-0.318834437086093	-0.836238410596026	-0.819602649006623	1.55761589403974	-5.23470198675497			
54	1080	-0.264158940397351	0.0827549668874172	-0.935523178807947	-1.36662251655629	-0.424635761589404	-0.904900662251656				0.928953642384106	-0.0482119205298013	0.365139072847682	-0.406092715231788	2.82781456953642	-0.585960264900661				-0.250172185430464	-0.0652715231788079	-0.88794701986755	-1.11258278145695	-0.693509933774834	-1.04026490066225				0.464529801324503	-0.0645298013245033	-0.821721854304636	-2.27708609271523	-0.3764238410596	-4.53562913907285				0.932026490066225	0.0194966887417219	0.293933774834437	3.0317880794702	0.611920529801325	-0.897483443708608				0.383788079470199	-0.334834437086093	-0.836238410596026	-1.37960264900662	1.55761589403974	-4.11470198675497			
55	1100	-0.264158940397351	0.0827549668874172	-0.935523178807947	-1.08662251655629	0.975364238410596	-1.46490066225166				0.944953642384106	-0.0322119205298013	0.397139072847682	-0.686092715231788	5.62781456953642	-0.585960264900661				-0.250172185430464	-0.0812715231788079	-0.90394701986755	-0.272582781456954	0.706490066225167	-1.04026490066225				0.432529801324503	-0.0485298013245033	-0.821721854304636	-0.0370860927152318	1.5835761589404	-5.37562913907285				0.916026490066225	0.0354966887417219	0.293933774834437	2.1917880794702	3.41192052980132	-0.617483443708608				0.367788079470199	-0.318834437086093	-0.836238410596026	0.300397350993377	1.27761589403974	-4.11470198675497			
56	1120	-0.264158940397351	0.0987549668874172	-0.951523178807947	-1.08662251655629	0.975364238410596	-0.624900662251656				0.960953642384106	-0.0162119205298013	0.397139072847682	-0.686092715231788	4.78781456953642	-0.585960264900661				-0.234172185430464	-0.0812715231788079	-0.88794701986755	0.287417218543046	1.82649006622517	-0.76026490066225				0.432529801324503	-0.0645298013245033	-0.821721854304636	1.08291390728477	4.3835761589404	-5.65562913907285				0.932026490066225	0.0354966887417219	0.277933774834437	0.231788079470198	1.45192052980132	-0.617483443708608				0.383788079470199	-0.318834437086093	-0.836238410596026	2.26039735099338	0.157615894039735	-3.83470198675497			
57	1140	-0.264158940397351	0.0987549668874172	-0.935523178807947	-0.806622516556291	1.2553642384106	-1.74490066225166				0.944953642384106	-0.0162119205298013	0.397139072847682	-0.686092715231788	3.38781456953642	-0.0259602649006601				-0.234172185430464	-0.0812715231788079	-0.87194701986755	0.847417218543046	2.94649006622517	-0.20026490066225				0.464529801324503	-0.0645298013245033	-0.837721854304636	2.76291390728477	4.6635761589404	-5.37562913907285				0.932026490066225	0.0354966887417219	0.293933774834437	-2.5682119205298	4.53192052980133	-1.17748344370861				0.399788079470199	-0.334834437086093	-0.820238410596026	3.94039735099338	-0.682384105960265	-3.27470198675497			
58	1160	-0.248158940397351	0.0987549668874172	-0.935523178807947	-0.526622516556291	1.8153642384106	-0.904900662251656				0.912953642384106	-0.0162119205298013	0.381139072847682	-1.80609271523179	2.54781456953642	-0.585960264900661				-0.234172185430464	-0.0812715231788079	-0.88794701986755	1.12741721854305	1.54649006622517	-0.48026490066225				0.496529801324503	-0.0645298013245033	-0.837721854304636	3.04291390728477	5.2235761589404	-5.37562913907285				0.916026490066225	0.0514966887417219	0.277933774834437	-5.0882119205298	5.65192052980133	-1.45748344370861				0.383788079470199	-0.334834437086093	-0.820238410596026	3.10039735099338	1.55761589403974	-2.71470198675497			
59	1180	-0.232158940397351	0.114754966887417	-0.935523178807947	0.313377483443709	0.975364238410596	-0.624900662251656				0.912953642384106	-0.0322119205298013	0.413139072847682	-0.406092715231788	4.78781456953642	-0.30596026490066				-0.218172185430464	-0.0492715231788079	-0.90394701986755	-0.272582781456954	1.26649006622517	-0.76026490066225				0.496529801324503	-0.0645298013245033	-0.837721854304636	2.20291390728477	6.0635761589404	-5.65562913907285				0.932026490066225	0.0514966887417219	0.277933774834437	-3.4082119205298	3.13192052980133	0.222516556291392				0.383788079470199	-0.334834437086093	-0.788238410596027	2.82039735099338	2.39761589403974	-2.43470198675497			
60	1200	-0.232158940397351	0.114754966887417	-0.935523178807947	0.873377483443709	0.695364238410596	-0.344900662251656				0.896953642384106	-0.0162119205298013	0.381139072847682	1.27390728476821	4.22781456953642	1.09403973509934				-0.218172185430464	-0.0652715231788079	-0.88794701986755	-0.832582781456954	-0.693509933774834	-0.48026490066225				0.496529801324503	-0.0645298013245033	-0.805721854304636	1.92291390728477	4.1035761589404	-4.53562913907285				0.916026490066225	0.0354966887417219	0.309933774834437	-1.1682119205298	1.17192052980133	0.502516556291392				0.367788079470199	-0.350834437086093	-0.788238410596027	3.10039735099338	2.67761589403974	0.0852980132450323			
61	1220	-0.248158940397351	0.114754966887417	-0.935523178807947	1.43337748344371	-0.144635761589404	0.495099337748344				0.912953642384106	-0.0162119205298013	0.413139072847682	1.55390728476821	7.86781456953642	0.81403973509934				-0.234172185430464	-0.0652715231788079	-0.87194701986755	0.567417218543046	-0.413509933774833	0.0797350993377501				0.496529801324503	-0.0645298013245033	-0.805721854304636	-0.0370860927152318	1.3035761589404	-4.25562913907285				0.916026490066225	0.0514966887417219	0.277933774834437	-1.7282119205298	0.0519205298013249	0.222516556291392				0.367788079470199	-0.350834437086093	-0.772238410596026	-2.49960264900662	3.51761589403974	1.76529801324503			
62	1240	-0.264158940397351	0.114754966887417	-0.919523178807947	1.43337748344371	-0.704635761589404	-0.624900662251656				0.928953642384106	-0.0162119205298013	0.381139072847682	2.39390728476821	8.42781456953642	0.25403973509934				-0.250172185430464	-0.0492715231788079	-0.88794701986755	-0.272582781456954	0.706490066225167	-0.76026490066225				0.512529801324503	-0.0645298013245033	-0.805721854304636	-0.317086092715232	0.1835761589404	-4.81562913907285				0.900026490066225	0.0514966887417219	0.293933774834437	-1.7282119205298	1.45192052980132	0.782516556291392				0.367788079470199	-0.318834437086093	-0.772238410596026	-0.539602649006623	3.23761589403974	2.88529801324503			
63	1260	-0.264158940397351	0.114754966887417	-0.935523178807947	0.873377483443709	-0.144635761589404	-1.18490066225166				0.944953642384106	-0.0162119205298013	0.381139072847682	4.07390728476821	5.90781456953642	3.61403973509934				-0.250172185430464	-0.0652715231788079	-0.88794701986755	1.68741721854305	-0.693509933774834	-0.76026490066225				0.512529801324503	-0.0645298013245033	-0.821721854304636	1.36291390728477	2.4235761589404	-3.41562913907285				0.916026490066225	0.0354966887417219	0.325933774834437	1.0717880794702	2.57192052980133	0.222516556291392				0.383788079470199	-0.318834437086093	-0.788238410596027	-1.09960264900662	4.07761589403974	1.76529801324503			
64	1280	-0.264158940397351	0.0987549668874172	-0.919523178807947	0.313377483443709	-1.2646357615894	-2.30490066225166				0.960953642384106	-0.000211920529801304	0.429139072847682	3.51390728476821	-1.65218543046358	4.17403973509934				-0.250172185430464	-0.0652715231788079	-0.87194701986755	1.96741721854305	-0.413509933774833	-1.04026490066225				0	0	0	0	0	0				0.932026490066225	0.0514966887417219	0.309933774834437	1.3517880794702	0.331920529801325	-0.617483443708608				0.399788079470199	-0.334834437086093	-0.804238410596027	0.580397350993377	4.91761589403974	-0.474701986754968			
65	1300	-0.264158940397351	0.0987549668874172	-0.935523178807947	0.593377483443709	-1.5446357615894	-2.02490066225166				0.944953642384106	-0.0162119205298013	0.365139072847682	4.07390728476821	-7.53218543046358	4.73403973509934				-0.234172185430464	-0.0652715231788079	-0.87194701986755	1.40741721854305	-0.413509933774833	-0.76026490066225				0.512529801324503	-0.0805298013245033	-0.837721854304636	-0.0370860927152318	2.1435761589404	-2.29562913907285				0.932026490066225	0.0354966887417219	0.309933774834437	1.3517880794702	-0.228079470198675	-0.897483443708608				0.415788079470199	-0.334834437086093	-0.804238410596027	-2.49960264900662	5.19761589403974	-2.71470198675497			
66	1320	-0.264158940397351	0.0987549668874172	-0.951523178807947	0.0333774834437086	-0.704635761589404	-1.46490066225166				0.928953642384106	-0.0322119205298013	0.365139072847682	4.91390728476821	-7.81218543046358	4.73403973509934				-0.234172185430464	-0.0652715231788079	-0.88794701986755	0.00741721854304636	0.146490066225167	-0.20026490066225				0.496529801324503	-0.0485298013245033	-0.821721854304636	-1.15708609271523	-0.0964238410596001	-1.73562913907285				0.932026490066225	0.0354966887417219	0.309933774834437	1.6317880794702	-0.508079470198675	0.502516556291392				0.415788079470199	-0.334834437086093	-0.820238410596026	-3.05960264900662	3.23761589403974	-1.87470198675497			
67	1340	-0.264158940397351	0.0987549668874172	-0.935523178807947	0.313377483443709	-0.704635761589404	-2.02490066225166				0.928953642384106	-0.0322119205298013	0.381139072847682	3.79390728476821	-3.89218543046358	3.05403973509934				-0.234172185430464	-0.0812715231788079	-0.88794701986755	2.52741721854305	-0.413509933774833	-0.48026490066225				0.496529801324503	-0.0645298013245033	-0.837721854304636	1.08291390728477	1.5835761589404	-2.01562913907285				0.932026490066225	0.0354966887417219	0.309933774834437	2.4717880794702	-0.508079470198675	-0.0574834437086077				0.383788079470199	-0.334834437086093	-0.820238410596026	-1.37960264900662	1.55761589403974	-3.27470198675497			
68	1360	-0.264158940397351	0.0827549668874172	-0.951523178807947	1.71337748344371	-0.144635761589404	-1.18490066225166				0.928953642384106	-0.0322119205298013	0.413139072847682	2.39390728476821	-1.65218543046358	3.05403973509934				-0.234172185430464	-0.0972715231788079	-0.88794701986755	3.92741721854305	1.82649006622517	-0.48026490066225				0.496529801324503	-0.0805298013245033	-0.837721854304636	1.92291390728477	2.7035761589404	-0.615629139072848				0.916026490066225	0.0354966887417219	0.309933774834437	2.1917880794702	0.891920529801325	1.06251655629139				0.399788079470199	-0.334834437086093	-0.852238410596026	1.70039735099338	1.55761589403974	-3.55470198675497			
69	1380	-0.264158940397351	0.0827549668874172	-0.887523178807947	2.55337748344371	0.415364238410596	-1.46490066225166				0.928953642384106	-0.0322119205298013	0.381139072847682	5.19390728476821	-4.17218543046358	4.17403973509934				-0.234172185430464	-0.0972715231788079	-0.87194701986755	1.12741721854305	1.54649006622517	-0.48026490066225				0.496529801324503	-0.0805298013245033	-0.837721854304636	1.64291390728477	1.5835761589404	-0.0556291390728476				0.948026490066225	0.0354966887417219	0.293933774834437	0.791788079470198	0.611920529801325	0.222516556291392				0.399788079470199	-0.350834437086093	-0.820238410596026	1.70039735099338	0.717615894039735	-2.43470198675497			
70	1400	-0.264158940397351	0.0827549668874172	-0.919523178807947	1.15337748344371	-0.144635761589404	-0.904900662251656				0.944953642384106	-0.0162119205298013	0.365139072847682	4.91390728476821	-6.41218543046358	4.17403973509934				-0.250172185430464	-0.0972715231788079	-0.88794701986755	0.567417218543046	0.426490066225167	0.0797350993377501				0.496529801324503	-0.0805298013245033	-0.821721854304636	0.242913907284768	-0.6564238410596	1.62437086092715				0.948026490066225	0.0354966887417219	0.277933774834437	-1.1682119205298	1.45192052980132	-0.617483443708608				0.383788079470199	-0.350834437086093	-0.820238410596026	0.860397350993377	-0.122384105960265	-0.194701986754968			
71	1420	-0.280158940397351	0.0827549668874172	-0.935523178807947	1.15337748344371	0.135364238410596	-0.624900662251656				0.944953642384106	-0.0322119205298013	0.349139072847682	2.95390728476821	-6.97218543046358	4.45403973509934				-0.250172185430464	-0.0812715231788079	-0.87194701986755	0.287417218543046	-0.133509933774833	0.35973509933775				0.496529801324503	-0.0805298013245033	-0.837721854304636	1.64291390728477	1.5835761589404	2.46437086092715				0.932026490066225	0.0194966887417219	0.309933774834437	-0.608211920529802	0.891920529801325	1.62251655629139				0.367788079470199	-0.350834437086093	-0.804238410596027	-0.259602649006623	-0.962384105960265	0.365298013245032			
72	1440	-0.264158940397351	0.0987549668874172	-0.935523178807947	2.27337748344371	-0.144635761589404	-1.18490066225166				0.928953642384106	-0.0322119205298013	0.349139072847682	3.23390728476821	-7.25218543046358	3.33403973509934				-0.234172185430464	-0.0652715231788079	-0.87194701986755	0.287417218543046	0.706490066225167	0.35973509933775				0.496529801324503	-0.0965298013245033	-0.821721854304636	1.92291390728477	2.7035761589404	3.86437086092715				0.932026490066225	0.0194966887417219	0.293933774834437	0.511788079470198	0.0519205298013249	1.62251655629139				0.367788079470199	-0.350834437086093	-0.788238410596027	1.14039735099338	-0.402384105960265	0.925298013245032			
73	1460	-0.264158940397351	0.0827549668874172	-0.935523178807947	0.313377483443709	0.415364238410596	-0.904900662251656				0.944953642384106	-0.0482119205298013	0.365139072847682	4.07390728476821	-4.17218543046358	3.33403973509934				-0.234172185430464	-0.0812715231788079	-0.87194701986755	1.68741721854305	0.146490066225167	-0.20026490066225				0.480529801324503	-0.0805298013245033	-0.805721854304636	0.242913907284768	3.5435761589404	4.98437086092715				0.932026490066225	0.0194966887417219	0.277933774834437	0.511788079470198	-1.90807947019868	1.34251655629139				0.351788079470199	-0.350834437086093	-0.788238410596027	-1.37960264900662	2.95761589403974	0.645298013245032			
74	1480	-0.264158940397351	0.0987549668874172	-0.935523178807947	-0.526622516556291	0.415364238410596	-0.904900662251656				0.928953642384106	-0.0322119205298013	0.365139072847682	2.39390728476821	-4.17218543046358	1.93403973509934				-0.250172185430464	-0.0812715231788079	-0.88794701986755	1.40741721854305	-0.413509933774833	-0.20026490066225				0.480529801324503	-0.0645298013245033	-0.805721854304636	0.802913907284768	3.5435761589404	4.70437086092715				0.932026490066225	0.0194966887417219	0.277933774834437	-0.328211920529802	-3.58807947019868	2.46251655629139				0.367788079470199	-0.366834437086093	-0.788238410596027	-1.65960264900662	5.75761589403974	1.20529801324503			
75	1500	-0.264158940397351	0.0987549668874172	-0.935523178807947	-0.246622516556291	-0.144635761589404	-1.18490066225166				0.912953642384106	-0.0322119205298013	0.381139072847682	2.11390728476821	0.867814569536424	2.21403973509934				-0.218172185430464	-0.0812715231788079	-0.88794701986755	-0.272582781456954	-0.413509933774833	-0.48026490066225				0.480529801324503	-0.0645298013245033	-0.821721854304636	3.32291390728477	4.1035761589404	4.14437086092715				0.932026490066225	0.0354966887417219	0.277933774834437	-0.608211920529802	-3.30807947019868	2.74251655629139				0.367788079470199	-0.334834437086093	-0.788238410596027	-2.77960264900662	6.87761589403974	2.32529801324503			
76	1520	-0.248158940397351	0.0827549668874172	-0.935523178807947	-0.246622516556291	-0.144635761589404	-1.18490066225166				0.928953642384106	-0.0162119205298013	0.413139072847682	4.91390728476821	2.26781456953642	3.61403973509934				-0.234172185430464	-0.0812715231788079	-0.88794701986755	-0.272582781456954	0.426490066225167	-0.20026490066225				0.480529801324503	-0.0645298013245033	-0.821721854304636	3.88291390728477	4.1035761589404	2.18437086092715				0.916026490066225	0.0354966887417219	0.277933774834437	-0.328211920529802	-4.14807947019868	2.18251655629139				0.367788079470199	-0.334834437086093	-0.788238410596027	-1.37960264900662	6.03761589403974	2.04529801324503			
77	1540	-0.264158940397351	0.0987549668874172	-0.919523178807947	0.313377483443709	-0.144635761589404	-1.46490066225166				0.944953642384106	-0.0162119205298013	0.365139072847682	6.59390728476821	0.0278145695364242	4.45403973509934				-0.234172185430464	-0.0812715231788079	-0.87194701986755	-1.11258278145695	0.426490066225167	-0.20026490066225				0.496529801324503	-0.0805298013245033	-0.805721854304636	2.48291390728477	6.6235761589404	2.18437086092715				0.916026490066225	0.0194966887417219	0.293933774834437	0.231788079470198	-2.74807947019868	1.90251655629139				0.367788079470199	-0.334834437086093	-0.788238410596027	-0.539602649006623	5.75761589403974	2.88529801324503			
78	1560	-0.264158940397351	0.0987549668874172	-0.919523178807947	-0.246622516556291	-0.144635761589404	-1.18490066225166				0.944953642384106	-0.000211920529801304	0.349139072847682	6.31390728476821	-0.252185430463576	4.73403973509934				-0.250172185430464	-0.0812715231788079	-0.90394701986755	0.287417218543046	0.706490066225167	0.91973509933775				0.512529801324503	-0.0965298013245033	-0.805721854304636	2.20291390728477	5.7835761589404	2.46437086092715				0.932026490066225	0.0354966887417219	0.277933774834437	-0.608211920529802	-2.18807947019868	1.34251655629139				0.399788079470199	-0.350834437086093	-0.804238410596027	-0.259602649006623	4.63761589403974	3.72529801324503			
79	1580	-0.264158940397351	0.114754966887417	-0.935523178807947	-0.246622516556291	-0.424635761589404	-1.18490066225166				0.944953642384106	-0.000211920529801304	0.349139072847682	7.71390728476821	-1.93218543046358	5.01403973509934				-0.250172185430464	-0.0652715231788079	-0.88794701986755	3.08741721854305	0.986490066225167	0.35973509933775				0.512529801324503	-0.0965298013245033	-0.821721854304636	3.04291390728477	6.3435761589404	2.46437086092715				0.948026490066225	0.0354966887417219	0.293933774834437	-2.8482119205298	-2.18807947019868	1.34251655629139				0.415788079470199	-0.366834437086093	-0.820238410596026	-1.93960264900662	3.79761589403974	3.72529801324503			
80	1600	-0.264158940397351	0.114754966887417	-0.935523178807947	0.873377483443709	-0.424635761589404	-0.624900662251656				0.944953642384106	-0.000211920529801304	0.365139072847682	9.95390728476821	-3.33218543046358	5.29403973509934				-0.250172185430464	-0.0492715231788079	-0.87194701986755	1.12741721854305	0.146490066225167	1.75973509933775				0.496529801324503	-0.0805298013245033	-0.821721854304636	5.56291390728477	8.8635761589404	4.98437086092715				0.948026490066225	0.0514966887417219	0.277933774834437	-2.0082119205298	-3.30807947019868	2.18251655629139				0.415788079470199	-0.350834437086093	-0.820238410596026	-1.37960264900662	1.55761589403974	4.84529801324503			
81	1620	-0.264158940397351	0.0987549668874172	-0.919523178807947	1.15337748344371	-0.144635761589404	0.215099337748344				0.944953642384106	-0.0162119205298013	0.333139072847682	11.3539072847682	-2.21218543046358	5.01403973509934				-0.250172185430464	-0.0492715231788079	-0.87194701986755	3.92741721854305	-0.973509933774833	2.59973509933775				0.496529801324503	-0.0965298013245033	-0.821721854304636	6.68291390728477	10.8235761589404	6.10437086092715				0.948026490066225	0.0354966887417219	0.277933774834437	-0.328211920529802	-4.42807947019868	1.34251655629139				0.383788079470199	-0.350834437086093	-0.820238410596026	-0.259602649006623	-0.682384105960265	6.52529801324503			
82	1640	-0.280158940397351	0.0987549668874172	-0.919523178807947	0.0333774834437086	0.135364238410596	-0.904900662251656				0.960953642384106	-0.0322119205298013	0.333139072847682	10.5139072847682	-0.812185430463576	5.29403973509934				-0.250172185430464	-0.0812715231788079	-0.88794701986755	3.36741721854305	0.426490066225167	2.87973509933775				0.496529801324503	-0.0965298013245033	-0.837721854304636	6.40291390728477	9.1435761589404	6.38437086092715				0.948026490066225	0.0354966887417219	0.277933774834437	0.511788079470198	-3.86807947019868	1.90251655629139				0.383788079470199	-0.366834437086093	-0.836238410596026	0.580397350993377	-2.64238410596027	8.20529801324503			
83	1660	-0.264158940397351	0.0827549668874172	-0.919523178807947	-1.36662251655629	0.415364238410596	-1.46490066225166				0.960953642384106	-0.0322119205298013	0.349139072847682	8.83390728476821	-0.252185430463576	6.41403973509934				-0.234172185430464	-0.0972715231788079	-0.91994701986755	3.36741721854305	2.10649006622517	1.19973509933775				0.512529801324503	-0.112529801324503	-0.853721854304636	9.20291390728477	6.9035761589404	6.94437086092715				0.948026490066225	0.0194966887417219	0.277933774834437	-0.608211920529802	-2.74807947019868	2.74251655629139				0.399788079470199	-0.382834437086093	-0.836238410596026	0.300397350993377	-2.92238410596027	12.405298013245			
84	1680	-0.264158940397351	0.0987549668874172	-0.951523178807947	-0.806622516556291	0.135364238410596	-1.74490066225166				0.960953642384106	-0.0482119205298013	0.349139072847682	7.43390728476821	-2.77218543046358	5.57403973509934				-0.234172185430464	-0.0972715231788079	-0.87194701986755	1.96741721854305	-0.133509933774833	1.47973509933775				0.512529801324503	-0.0965298013245033	-0.853721854304636	9.20291390728477	5.7835761589404	7.50437086092715				0.964026490066225	0.0194966887417219	0.261933774834437	-0.608211920529802	-1.34807947019868	2.74251655629139				0.383788079470199	-0.366834437086093	-0.852238410596026	-1.65960264900662	-1.24238410596026	15.485298013245			
85	1700	-0.280158940397351	0.114754966887417	-0.935523178807947	-1.64662251655629	0.975364238410596	-0.904900662251656				0.944953642384106	-0.0482119205298013	0.317139072847682	6.59390728476821	-5.57218543046358	4.73403973509934				-0.218172185430464	-0.0812715231788079	-0.85594701986755	1.96741721854305	0.706490066225167	1.75973509933775				0.496529801324503	-0.112529801324503	-0.853721854304636	9.48291390728477	4.3835761589404	8.34437086092715				0.980026490066225	0.0194966887417219	0.261933774834437	-1.7282119205298	-5.26807947019868	3.02251655629139				0.367788079470199	-0.398834437086093	-0.836238410596026	-0.259602649006623	-1.52238410596026	20.245298013245			
86	1720	-0.280158940397351	0.0827549668874172	-0.919523178807947	-2.76662251655629	1.8153642384106	0.495099337748344				0.960953642384106	-0.0322119205298013	0.333139072847682	4.07390728476821	-8.37218543046358	3.89403973509934				-0.234172185430464	-0.0972715231788079	-0.88794701986755	1.40741721854305	0.426490066225167	3.71973509933775				0.464529801324503	-0.160529801324503	-0.869721854304636	20.6829139072848	-4.0164238410596	6.66437086092715				0.948026490066225	0.0194966887417219	0.245933774834437	0.231788079470198	-4.14807947019868	2.74251655629139				0.335788079470199	-0.382834437086093	-0.884238410596026	-4.73960264900662	1.27761589403974	24.445298013245			
87	1740	-0.296158940397351	0.0987549668874172	-0.967523178807947	-5.28662251655629	4.8953642384106	3.29509933774834				1.04095364238411	-0.0322119205298013	0.317139072847682	2.95390728476821	-27.1321854304636	2.49403973509934				-0.234172185430464	-0.161271523178808	-0.90394701986755	-0.552582781456954	2.66649006622517	3.43973509933775				0.512529801324503	-0.176529801324503	-0.965721854304636	8.92291390728477	-8.2164238410596	4.70437086092715				0.948026490066225	0.00349668874172187	0.213933774834437	1.0717880794702	-4.70807947019868	3.02251655629139				0.335788079470199	-0.382834437086093	-0.900238410596026	-5.57960264900662	1.27761589403974	26.685298013245			
88	1760	-0.264158940397351	0.0987549668874172	-0.983523178807947	-16.2066225165563	6.0153642384106	8.05509933774835				1.12095364238411	-0.0802119205298013	0.253139072847682	0.433907284768212	-57.9321854304636	-2.26596026490066				-0.218172185430464	-0.145271523178808	-0.82394701986755	-1.95258278145695	0.986490066225167	2.59973509933775				0.576529801324503	-0.192529801324503	-0.981721854304636	1.36291390728477	-11.0164238410596	-0.335629139072848				0.948026490066225	0.00349668874172187	0.165933774834437	-3.6882119205298	0.611920529801325	-0.0574834437086077				0.319788079470199	-0.414834437086093	-0.852238410596026	3.66039735099338	-6.84238410596027	30.605298013245			
89	1780	-0.232158940397351	0.162754966887417	-0.919523178807947	-38.8866225165563	5.4553642384106	15.8950993377483				0.832953642384106	-0.0322119205298013	0.285139072847682	-13.2860927152318	-107.212185430464	-5.90596026490066				-0.202172185430464	-0.0812715231788079	-0.80794701986755	-9.23258278145695	-0.413509933774833	5.11973509933775				0.496529801324503	-0.112529801324503	-0.949721854304636	-8.99708609271523	-21.3764238410596	-3.13562913907285				0.948026490066225	-0.0125033112582781	0.149933774834437	-0.328211920529802	5.37192052980133	-3.41748344370861				0.271788079470199	-0.446834437086093	-0.804238410596027	4.50039735099338	-18.6023841059603	44.325298013245			
90	1800	-0.200158940397351	0.0987549668874172	-0.871523178807947	-45.3266225165563	-8.26463576158941	17.2950993377483				0.784953642384106	-0.000211920529801304	0.0611390728476822	-9.64609271523179	-69.1321854304636	3.33403973509934				-0.234172185430464	-0.0812715231788079	-0.83994701986755	-6.15258278145695	-2.37350993377483	8.19973509933775				0.432529801324503	-0.112529801324503	-0.885721854304636	-13.4770860927152	-40.1364238410596	-5.65562913907285				0.948026490066225	0.00349668874172187	0.133933774834437	-1.1682119205298	-0.228079470198675	-5.09748344370861				0.239788079470199	-0.414834437086093	-0.820238410596026	-12.0196026490066	-20.0023841059603	58.885298013245			
91	1820	-0.280158940397351	0.0347549668874172	-0.887523178807947	-18.7266225165563	-12.7446357615894	9.73509933774834				0.960953642384106	-0.000211920529801304	0.141139072847682	-13.2860927152318	-22.0921854304636	4.17403973509934				-0.250172185430464	-0.0972715231788079	-0.88794701986755	-5.59258278145695	-3.77350993377483	9.87973509933775				0.384529801324503	-0.192529801324503	-0.917721854304636	-15.1570860927152	-52.4564238410596	-12.6556291390728				0.932026490066225	0.0354966887417219	0.149933774834437	-1.1682119205298	-3.86807947019868	-3.13748344370861				0.223788079470199	-0.318834437086093	-0.820238410596026	-23.2196026490066	-14.6823841059603	67.845298013245			
92	1840	-0.264158940397351	0.0987549668874172	-1.01552317880795	-19.0066225165563	-6.8646357615894	3.29509933774834				0.992953642384106	-0.0482119205298013	0.173139072847682	-9.64609271523179	-19.0121854304636	5.85403973509934				-0.266172185430464	-0.0652715231788079	-0.87194701986755	-4.19258278145695	-2.37350993377483	12.1197350993378				0.352529801324503	-0.128529801324503	-0.933721854304636	-25.7970860927152	-57.7764238410596	-11.2556291390728				0.980026490066225	0.0354966887417219	0.101933774834437	-1.7282119205298	-0.508079470198675	-0.617483443708608				0.207788079470199	-0.270834437086093	-0.836238410596026	-9.77960264900662	-7.68238410596027	65.045298013245			
93	1860	-0.312158940397351	0.114754966887417	-0.903523178807947	-29.6466225165563	-4.3446357615894	2.17509933774834				0.864953642384106	-0.0802119205298013	0.141139072847682	-8.80609271523179	-11.1721854304636	6.97403973509934				-0.266172185430464	-0.0492715231788079	-0.87194701986755	-6.71258278145695	-1.25350993377483	14.0797350993378				0.368529801324503	-0.160529801324503	-0.885721854304636	-34.1970860927152	-61.4164238410596	-4.25562913907285				0.964026490066225	0.0354966887417219	0.165933774834437	3.3117880794702	2.01192052980133	0.782516556291392				0.191788079470199	-0.286834437086093	-0.916238410596027	-3.89960264900662	-0.122384105960265	62.805298013245			
94	1880	-0.344158940397351	0.146754966887417	-0.903523178807947	-19.0066225165563	-1.8246357615894	0.775099337748344				1.02495364238411	-0.0322119205298013	0.221139072847682	-12.4460927152318	23.2678145695364	7.25403973509934				-0.266172185430464	-0.0172715231788079	-0.91994701986755	-7.55258278145695	-1.25350993377483	13.5197350993378				0.368529801324503	-0.176529801324503	-0.933721854304636	-36.9970860927152	-59.7364238410596	-2.29562913907285				0.900026490066225	0.0674966887417219	0.213933774834437	6.9517880794702	3.69192052980133	2.74251655629139				0.207788079470199	-0.270834437086093	-0.980238410596026	7.86039735099338	5.47761589403974	63.645298013245			
95	1900	-0.296158940397351	0.226754966887417	-0.935523178807947	-13.9666225165563	0.415364238410596	2.17509933774834				1.04095364238411	-0.0162119205298013	0.349139072847682	-7.68609271523179	16.5478145695364	11.1740397350993				-0.234172185430464	-0.00127152317880793	-0.93594701986755	0.287417218543046	-2.37350993377483	10.9997350993378				0.368529801324503	-0.0965298013245033	-0.965721854304636	-34.7570860927152	-55.8164238410596	-0.615629139072848				0.948026490066225	0.0354966887417219	0.229933774834437	2.7517880794702	15.1719205298013	3.58251655629139				0.223788079470199	-0.270834437086093	-0.980238410596026	14.8603973509934	4.35761589403974	59.725298013245			
96	1920	-0.200158940397351	0.242754966887417	-0.967523178807947	-14.2466225165563	-0.704635761589404	7.77509933774834				0.944953642384106	-0.0482119205298013	0.221139072847682	-6.84609271523179	11.2278145695364	11.1740397350993				-0.234172185430464	-0.0332715231788079	-0.95194701986755	-2.79258278145695	-2.65350993377483	9.03973509933775				0.352529801324503	-0.000529801324503289	-1.09372185430464	-17.9570860927152	-51.8964238410596	-1.73562913907285				0.980026490066225	0.00349668874172187	0.229933774834437	11.7117880794702	16.8519205298013	2.74251655629139				0.207788079470199	-0.350834437086093	-0.980238410596026	24.6603973509934	-13.5623841059603	58.885298013245			
97	1940	-0.168158940397351	0.162754966887417	-0.983523178807947	-16.7666225165563	-4.6246357615894	10.2950993377483				0.928953642384106	-0.000211920529801304	0.269139072847682	-8.80609271523179	29.1478145695364	11.1740397350993				-0.138172185430464	-0.0812715231788079	-0.87194701986755	0.567417218543046	0.146490066225167	5.67973509933775				0.336529801324503	-0.0485298013245033	-1.02972185430464	7.52291390728477	-59.7364238410596	-6.49562913907285				0	0	0	0	0	0				0	0	0	0	0	0			
98	1960	-0.200158940397351	0.0827549668874172	-0.983523178807947	-11.4466225165563	-3.5046357615894	9.17509933774834				0.960953642384106	-0.000211920529801304	0.269139072847682	1.27390728476821	31.3878145695364	15.6540397350993				0	0	0	0	0	0				0	0	0	0	0	0				0.996026490066225	0.0194966887417219	0.165933774834437	9.1917880794702	0.611920529801325	-1.17748344370861				0.271788079470199	-0.366834437086093	-1.02823841059603	-1.93960264900662	-29.8023841059603	58.605298013245			
99	1980	0	0	0	0	0	0				0	0	0	0	0	0				0	0	0	0	0	0				0.416529801324503	-0.176529801324503	-1.12572185430464	-17.9570860927152	-87.1764238410596	-26.9356291390729				0.932026490066225	0.0514966887417219	0.101933774834437	7.2317880794702	0.331920529801325	-3.13748344370861				0.159788079470199	-0.382834437086093	-1.07623841059603	6.74039735099338	-42.1223841059603	63.085298013245			
100	2000	-0.296158940397351	0.274754966887417	-0.919523178807947	-5.00662251655629	-0.144635761589404	7.21509933774835				0.960953642384106	-0.000211920529801304	0.205139072847682	17.7939072847682	65.8278145695364	22.6540397350993				-0.298172185430464	-0.0332715231788079	-0.90394701986755	0.00741721854304636	-1.81350993377483	10.1597350993378				0.144529801324503	-0.160529801324503	-1.15772185430464	-59.6770860927152	-101.17642384106	-36.7356291390728				0.932026490066225	0.0834966887417219	0.0699337748344371	9.4717880794702	16.8519205298013	-5.09748344370861				0.191788079470199	-0.430834437086093	-1.09223841059603	14.5803973509934	-54.7223841059603	73.165298013245			
101	2020	-0.312158940397351	0.274754966887417	-0.871523178807947	-8.08662251655629	1.5353642384106	8.89509933774834				0.976953642384106	-0.0642119205298013	0.301139072847682	15.8339072847682	75.3478145695364	19.8540397350993				-0.282172185430464	-0.0652715231788079	-0.90394701986755	10.087417218543	1.82649006622517	12.1197350993378				-0.0314701986754967	0.0954701986754967	-1.06172185430464	-87.1170860927152	-111.81642384106	-39.5356291390729				1.14002649006623	0.0194966887417219	0.133933774834437	10.0317880794702	20.7719205298013	-2.57748344370861				0.127788079470199	-0.558834437086093	-1.09223841059603	28.3003973509934	-69.2823841059603	85.205298013245			
102	2040	-0.376158940397351	0.194754966887417	-0.839523178807947	0.0333774834437086	4.0553642384106	7.77509933774834				0.992953642384106	-0.0642119205298013	0.157139072847682	25.3539072847682	84.5878145695364	15.3740397350993				-0.314172185430464	-0.145271523178808	-0.88794701986755	12.887417218543	0.426490066225167	14.9197350993378				0.000529801324503301	0.127470198675497	-1.10972185430464	-43.4370860927152	-106.21642384106	-48.7756291390729				1.31602649006623	-0.124503311258278	0.0699337748344371	-4.2482119205298	9.01192052980133	-6.21748344370861				0.143788079470199	-0.462834437086093	-1.23623841059603	9.82039735099338	-55.8423841059603	95.565298013245			
103	2060	-0.488158940397351	0.146754966887417	-0.903523178807947	6.75337748344371	4.8953642384106	5.25509933774834				1.21695364238411	-0.272211920529801	0.0931390728476822	6.03390728476821	84.5878145695364	28.5340397350993				-0.394172185430464	-0.145271523178808	-0.90394701986755	7.56741721854305	2.38649006622517	17.9997350993378				-0.0474701986754967	-0.0805298013245033	-1.12572185430464	15.0829139072848	-102.01642384106	-55.7756291390729				1.30002649006623	-0.124503311258278	0.101933774834437	16.1917880794702	-3.02807947019868	-4.25748344370861				0.111788079470199	-0.334834437086093	-1.30023841059603	42.0203973509934	-60.6023841059603	112.085298013245			
104	2080	-0.600158940397351	0.0987549668874172	-1.06352317880795	-8.36662251655629	19.4553642384106	6.37509933774834				1.04095364238411	-0.208211920529801	0.205139072847682	-14.1260927152318	68.3478145695364	17.3340397350993				-0.554172185430464	-0.0492715231788079	-0.93594701986755	7.84741721854305	5.18649006622517	19.1197350993378				0.0645298013245033	-0.192529801324503	-1.02972185430464	-6.75708609271523	-95.0164238410596	-53.5356291390729				0.996026490066225	0.0194966887417219	0.229933774834437	22.6317880794702	-3.30807947019868	0.502516556291392				-0.144211920529801	-0.414834437086093	-1.02823841059603	59.9403973509934	-97.2823841059603	114.885298013245			
105	2100	-0.552158940397351	0.130754966887417	-1.09552317880795	-10.6066225165563	27.8553642384106	8.33509933774834				1.10495364238411	-0.000211920529801304	0.637139072847682	35.4339072847682	108.947814569536	19.5740397350993				-0.618172185430464	0.0467284768211921	-1.04794701986755	13.727417218543	13.8664900662252	19.6797350993378				0.160529801324503	-0.0325298013245033	-0.805721854304636	-61.0770860927152	-102.29642384106	-36.4556291390729				0.948026490066225	0.163496688741722	0.229933774834437	-2.8482119205298	11.2519205298013	7.78251655629139				-0.224211920529801	-0.494834437086093	-0.756238410596026	44.5403973509934	-115.76238410596	131.125298013245			
106	2120	-0.584158940397351	0.194754966887417	-1.23952317880795	-43.0866225165563	53.3353642384106	14.4950993377483				1.40895364238411	-0.0642119205298013	0.605139072847682	20.0339072847682	61.3478145695364	21.5340397350993				-0.586172185430464	0.0947284768211921	-1.23994701986755	33.327417218543	30.1064900662252	19.9597350993378				0.128529801324503	0.0474701986754967	-0.869721854304636	-50.1570860927152	-82.6964238410596	-21.6156291390729				1.20402649006623	0.115496688741722	0.277933774834437	8.0717880794702	9.01192052980133	9.74251655629139				-0.112211920529801	-0.670834437086093	-0.708238410596026	-17.8996026490066	-108.20238410596	150.165298013245			
107	2140	-0.648158940397351	0.274754966887417	-0.791523178807947	-20.1266225165563	52.4953642384106	23.1750993377483				1.21695364238411	-0.144211920529801	0.653139072847682	1.27390728476821	61.9078145695364	26.0140397350993				-0.442172185430464	0.110728476821192	-1.07994701986755	47.0474172185431	48.0264900662252	9.87973509933775				0.176529801324503	0.143470198675497	-0.981721854304636	-10.6770860927152	-31.1764238410596	8.90437086092715				1.09202649006623	-0.0125033112582781	0.773933774834437	33.5517880794702	15.4519205298013	17.8625165562914				0.0157880794701987	-0.718834437086093	-0.788238410596027	-45.8996026490066	-58.9223841059603	97.8052980132451			
108	2160	-0.568158940397351	0.210754966887417	-1.15952317880795	-24.0466225165563	63.6953642384106	34.0950993377484				1.15295364238411	-0.320211920529801	0.957139072847682	4.07390728476821	52.6678145695364	11.4540397350993				-0.378172185430464	0.0467284768211921	-0.91994701986755	26.3274172185431	50.5464900662252	3.99973509933775				0.192529801324503	0.303470198675497	-1.15772185430464	22.9229139072848	4.6635761589404	39.9843708609272				1.17202649006623	0.00349668874172187	1.31793377483444	-26.0882119205298	26.3719205298013	11.7025165562914				0.0797880794701987	-0.702834437086093	-0.708238410596026	-2.21960264900662	-0.122384105960265	40.965298013245			
109	2180	-0.456158940397351	0.162754966887417	-1.14352317880795	-14.5266225165563	69.8553642384106	44.4550993377484				1.28095364238411	-0.368211920529801	1.27713907284768	7.15390728476821	43.7078145695364	-9.54596026490066				-0.362172185430464	-0.241271523178808	-1.03194701986755	39.2074172185431	60.3464900662252	8.19973509933775				0.304529801324503	0.511470198675497	-1.28572185430464	64.9229139072848	23.9835761589404	44.1843708609272				1.36402649006623	-0.204503311258278	0.949933774834437	-13.7682119205298	40.6519205298013	1.62251655629139				0.111788079470199	-1.16683443708609	-0.836238410596026	57.9803973509934	25.6376158940397	-7.75470198675497			
110	2200	-0.184158940397351	0.338754966887417	-1.12752317880795	10.1133774834437	79.0953642384106	49.4950993377484				1.40895364238411	-0.304211920529801	1.24513907284768	-1.24609271523179	3.38781456953642	-24.6659602649007				-0.250172185430464	-0.305271523178808	-1.03194701986755	21.8474172185431	71.5464900662252	14.9197350993378				0.496529801324503	0.271470198675497	-1.47772185430464	112.242913907285	41.9035761589404	30.7443708609272				1.38002649006623	-0.140503311258278	0.917933774834437	-21.0482119205298	0.0519205298013249	7.78251655629139				0.511788079470199	-1.19883443708609	-1.02823841059603	5.06039735099338	59.5176158940397	-29.314701986755			
111	2220	0.087841059602649	0.354754966887417	-1.06352317880795	38.6733774834437	89.1753642384106	47.2550993377484				1.16895364238411	-0.144211920529801	0.893139072847682	-8.80609271523179	-22.3721854304636	-34.7459602649007				-0.170172185430464	-0.161271523178808	-1.14394701986755	21.0074172185431	86.9464900662252	15.1997350993378				0.784529801324503	-0.0325298013245033	-1.38172185430464	61.8429139072848	41.0635761589404	30.7443708609272				1.14002649006623	0.131496688741722	0.981933774834437	-42.3282119205298	-6.66807947019868	-0.897483443708608				0.191788079470199	-1.13483443708609	-0.788238410596027	-12.8596026490066	28.1576158940397	10.165298013245			
112	2240	0.215841059602649	0.242754966887417	-1.04752317880795	68.0733774834437	97.0153642384106	39.4150993377484				0.992953642384106	0.0317880794701987	0.909139072847682	11.6339072847682	-3.89218543046358	-34.4659602649007				-0.0421721854304636	-0.241271523178808	-1.11194701986755	18.2074172185431	97.5864900662252	11.5597350993378				0.592529801324503	0.0474701986754967	-1.44572185430464	-13.1970860927152	31.8235761589404	18.9843708609272				1.15602649006623	0.323496688741722	0.741933774834437	-42.3282119205298	-2.46807947019868	1.62251655629139				0.143788079470199	-0.734834437086093	-0.964238410596026	-22.0996026490066	60.6376158940397	-4.39470198675497			
113	2260	0.327841059602649	0.0187549668874172	-1.09552317880795	64.4333774834437	109.055364238411	35.2150993377483				1.08895364238411	-0.0322119205298013	1.11713907284768	13.5939072847682	-5.57218543046358	-15.7059602649007				0.133827814569536	-0.193271523178808	-1.09594701986755	12.047417218543	107.666490066225	3.15973509933775				0.432529801324503	0.271470198675497	-1.38172185430464	-22.4370860927152	43.5835761589404	30.1843708609272				1.18802649006623	0.243496688741722	0.709933774834437	-20.4882119205298	2.57192052980133	4.98251655629139				0.159788079470199	-0.654834437086093	-0.996238410596026	37.8203973509934	69.0376158940397	-11.954701986755			
114	2280	0.359841059602649	0.0827549668874172	-1.15952317880795	46.2333774834437	114.095364238411	31.5750993377483				1.10495364238411	-0.0322119205298013	0.877139072847682	-8.24609271523179	-21.5321854304636	-4.78596026490066				0.229827814569536	-0.193271523178808	-1.06394701986755	-0.272582781456954	117.186490066225	-7.48026490066225				0.304529801324503	0.127470198675497	-1.28572185430464	7.24291390728477	49.4635761589404	37.7443708609272				1.18802649006623	0.147496688741722	0.629933774834437	-8.4482119205298	-3.02807947019868	6.10251655629139				0.0957880794701987	-0.654834437086093	-0.996238410596026	64.9803973509934	55.3176158940397	-23.994701986755			
115	2300	0.471841059602649	0.178754966887417	-1.07952317880795	28.5933774834437	122.215364238411	25.9750993377483				1.10495364238411	-0.224211920529801	0.797139072847682	-14.9660927152318	-33.5721854304636	5.01403973509934				0.293827814569536	-0.0812715231788079	-0.99994701986755	3.08741721854305	127.266490066225	-16.7202649006623				0.272529801324503	0.0314701986754967	-1.23772185430464	9.20291390728477	53.1035761589404	37.7443708609272				1.10802649006623	0.0354966887417219	0.565933774834437	6.9517880794702	-0.508079470198675	7.78251655629139				-0.0642119205298013	-0.686834437086093	-0.900238410596026	36.1403973509934	43.5576158940397	-22.314701986755			
116	2320	0.439841059602649	0.194754966887417	-1.04752317880795	8.15337748344371	130.895364238411	23.4550993377483				1.16895364238411	-0.240211920529801	0.925139072847682	1.55390728476821	-57.3721854304636	8.65403973509934				0.309827814569536	-0.0172715231788079	-0.93594701986755	23.247417218543	134.546490066225	-18.9602649006623				0.272529801324503	-0.112529801324503	-1.09372185430464	-0.597086092715232	60.9435761589404	41.6643708609272				1.02802649006623	-0.0285033112582781	0.517933774834437	28.5117880794702	0.611920529801325	12.8225165562914				-0.0482119205298013	-0.702834437086093	-0.804238410596027	15.9803973509934	70.4376158940397	-35.194701986755			
117	2340	0.407841059602649	0.146754966887417	-1.01552317880795	-7.52662251655629	135.375364238411	17.2950993377483				1.15295364238411	-0.208211920529801	0.685139072847682	16.9539072847682	-96.8521854304636	6.97403973509934				0.357827814569536	-0.145271523178808	-0.83994701986755	38.927417218543	134.826490066225	-23.4402649006623				0.256529801324503	-0.0485298013245033	-0.997721854304636	-22.1570860927152	69.3435761589404	43.9043708609272				1.01202649006623	-0.0925033112582781	0.421933774834437	10.5917880794702	24.1319205298013	11.9825165562914				-0.0162119205298013	-0.670834437086093	-0.916238410596027	-14.2596026490066	64.8376158940397	-29.874701986755			
118	2360	0.327841059602649	0.258754966887417	-0.935523178807947	-15.9266225165563	139.575364238411	12.8150993377483				1.02495364238411	-0.224211920529801	0.557139072847682	18.9139072847682	-107.492185430464	13.6940397350993				0.245827814569536	-0.177271523178808	-0.83994701986755	31.927417218543	137.906490066225	-29.8802649006623				0.224529801324503	0.0154701986754967	-0.949721854304636	-22.9970860927152	77.7435761589404	44.1843708609272				0.996026490066225	-0.0445033112582781	0.389933774834437	2.4717880794702	33.0919205298013	7.78251655629139				-0.000211920529801336	-0.526834437086093	-0.852238410596026	-18.7396026490066	68.7576158940397	-36.314701986755			
119	2380	0.295841059602649	0.290754966887417	-0.887523178807947	-9.76662251655629	138.735364238411	7.77509933774834				0.896953642384106	-0.0802119205298013	0.189139072847682	-11.3260927152318	-100.212185430464	-1.14596026490066				0.277827814569536	-0.0972715231788079	-0.77594701986755	31.087417218543	136.506490066225	-29.6002649006623				0.240529801324503	-0.0805298013245033	-0.869721854304636	-9.55708609271523	83.0635761589404	39.7043708609272				0.948026490066225	-0.0445033112582781	0.357933774834437	-12.0882119205298	35.3319205298013	5.54251655629139				0.0157880794701987	-0.366834437086093	-0.820238410596026	2.26039735099338	72.1176158940397	-43.594701986755			
120	2400	0.263841059602649	0.242754966887417	-0.791523178807947	-5.28662251655629	136.215364238411	3.57509933774835				0.832953642384106	-0.160211920529801	0.173139072847682	-5.16609271523179	-67.4521854304636	9.21403973509934				0.245827814569536	-0.0652715231788079	-0.72794701986755	29.1274172185431	135.946490066225	-29.3202649006623				0.272529801324503	-0.0165298013245033	-0.757721854304636	7.24291390728477	86.4235761589404	29.9043708609272				0.900026490066225	-0.108503311258278	0.165933774834437	-2.0082119205298	33.0919205298013	8.06251655629139				0.0317880794701987	-0.350834437086093	-0.676238410596026	33.6203973509934	79.9576158940397	-54.514701986755			
121	2420	0.279841059602649	0.242754966887417	-0.759523178807947	-3.88662251655629	132.295364238411	-0.904900662251656				0.848953642384106	-0.0322119205298013	0.109139072847682	14.7139072847682	-59.0521854304636	6.41403973509934				0.213827814569536	-0.0972715231788079	-0.71194701986755	19.8874172185431	134.546490066225	-27.6402649006623				0.240529801324503	-0.000529801324503289	-0.693721854304636	13.4029139072848	88.3835761589404	25.1443708609272				0.884026490066225	-0.124503311258278	0.117933774834437	2.1917880794702	29.1719205298013	12.2625165562914				0.0317880794701987	-0.382834437086093	-0.676238410596026	35.0203973509934	58.6776158940397	-55.074701986755			
122	2440	0.215841059602649	0.226754966887417	-0.759523178807947	11.5133774834437	128.375364238411	-4.82490066225166				0.832953642384106	-0.112211920529801	-0.0508609271523178	25.3539072847682	-61.5721854304636	10.0540397350993				0.165827814569536	-0.0812715231788079	-0.74394701986755	11.767417218543	134.546490066225	-24.5602649006623				0.224529801324503	-0.0645298013245033	-0.661721854304636	25.7229139072848	87.8235761589404	24.3043708609272				0.788026490066225	-0.0925033112582781	0.245933774834437	0.791788079470198	-2.46807947019868	4.42251655629139				-0.000211920529801336	-0.478834437086093	-0.612238410596026	17.3803973509934	44.9576158940397	-62.354701986755			
123	2460	0.199841059602649	0.178754966887417	-0.711523178807947	24.9533774834437	125.295364238411	-8.18490066225166				0.704953642384106	-0.0162119205298013	0.0611390728476822	8.27390728476821	-36.3721854304636	6.13403973509934				0.245827814569536	-0.113271523178808	-0.74394701986755	5.88741721854305	132.586490066225	-22.6002649006623				0.240529801324503	-0.0645298013245033	-0.629721854304636	34.1229139072848	88.9435761589404	22.6243708609272				0.644026490066225	-0.0285033112582781	0.213933774834437	-10.1282119205298	-6.94807947019868	1.62251655629139				0.0157880794701987	-0.478834437086093	-0.500238410596026	-6.69960264900662	48.8776158940397	-59.834701986755			
124	2480	0.231841059602649	0.114754966887417	-0.743523178807947	36.9933774834437	123.335364238411	-9.86490066225166				0.624953642384106	0.0637880794701987	0.189139072847682	4.35390728476821	-35.5321854304636	-3.10596026490066				0.261827814569536	-0.129271523178808	-0.72794701986755	-4.47258278145695	134.546490066225	-21.4802649006623				0.240529801324503	-0.0805298013245033	-0.613721854304636	44.7629139072848	87.8235761589404	20.6643708609272				0.564026490066225	-0.0445033112582781	0.245933774834437	-7.0482119205298	-15.3480794701987	3.30251655629139				0.127788079470199	-0.430834437086093	-0.452238410596026	-27.6996026490066	58.6776158940397	-57.034701986755			
125	2500	0.359841059602649	0.0507549668874172	-0.711523178807947	36.9933774834437	122.215364238411	-7.62490066225166				0.656953642384106	-0.0802119205298013	0.157139072847682	2.95390728476821	-53.7321854304636	-1.14596026490066				0.341827814569536	-0.113271523178808	-0.64794701986755	-8.67258278145695	131.186490066225	-20.9202649006623				0.272529801324503	-0.0805298013245033	-0.613721854304636	47.0029139072848	84.7435761589404	16.7443708609272				0.580026490066225	-0.0605033112582781	0.277933774834437	-1.7282119205298	-13.9480794701987	0.502516556291392				0.255788079470199	-0.350834437086093	-0.516238410596026	-40.5796026490066	55.5976158940397	-57.034701986755			
126	2520	0.375841059602649	0.0347549668874172	-0.759523178807947	15.1533774834437	119.975364238411	-5.94490066225166				0.688953642384106	-0.144211920529801	0.0131390728476822	-6.00609271523179	-59.8921854304636	-2.54596026490066				0.453827814569536	-0.129271523178808	-0.50394701986755	-31.912582781457	127.826490066225	-18.6802649006623				0.320529801324503	-0.0805298013245033	-0.629721854304636	44.4829139072848	78.0235761589404	13.3843708609272				0.660026490066225	-0.0925033112582781	0.309933774834437	2.7517880794702	-13.1080794701987	-0.0574834437086077				0.319788079470199	-0.366834437086093	-0.548238410596027	-43.0996026490066	50.2776158940397	-65.714701986755			
127	2540	0.391841059602649	0.0667549668874172	-0.663523178807947	2.27337748344371	114.655364238411	-1.46490066225166				0.656953642384106	-0.0162119205298013	0.0771390728476822	-4.88609271523179	-43.3721854304636	-5.34596026490066				0.517827814569536	-0.0652715231788079	-0.55194701986755	-29.672582781457	128.106490066225	-19.2402649006623				0.384529801324503	-0.0965298013245033	-0.613721854304636	42.2429139072848	64.3035761589404	10.3043708609272				0.660026490066225	-0.108503311258278	0.293933774834437	-5.0882119205298	-24.8680794701987	3.02251655629139				0.335788079470199	-0.462834437086093	-0.532238410596027	-22.9396026490066	44.9576158940397	-75.794701986755			
128	2560	0.503841059602649	0.0827549668874172	-0.647523178807947	-4.16662251655629	108.215364238411	3.01509933774834				0.560953642384106	-0.0322119205298013	0.189139072847682	0.433907284768212	-40.2921854304636	-7.86596026490066				0.517827814569536	-0.0652715231788079	-0.58394701986755	-7.27258278145696	116.346490066225	-15.0402649006623				0.384529801324503	-0.112529801324503	-0.629721854304636	40.5629139072848	54.7835761589404	4.70437086092715				0.676026490066225	-0.0765033112582781	0.277933774834437	-17.4082119205298	-30.4680794701987	1.34251655629139				0.303788079470199	-0.414834437086093	-0.676238410596026	5.34039735099338	30.9576158940397	-86.714701986755			
129	2580	0.599841059602649	0.0987549668874172	-0.615523178807947	6.75337748344371	107.375364238411	4.41509933774834				0.656953642384106	-0.128211920529801	0.173139072847682	-8.80609271523179	-43.6521854304636	-10.9459602649007				0.581827814569536	-0.0972715231788079	-0.47194701986755	-18.192582781457	118.306490066225	-8.60026490066225				0.336529801324503	-0.144529801324503	-0.549721854304636	32.4429139072848	52.8235761589404	-1.17562913907285				0.596026490066225	-0.0605033112582781	0.229933774834437	-22.4482119205298	-36.9080794701987	-1.17748344370861				0.319788079470199	-0.190834437086093	-0.676238410596026	45.6603973509934	27.5976158940397	-71.594701986755			
130	2600	0.599841059602649	0.0987549668874172	-0.599523178807947	3.39337748344371	105.695364238411	3.01509933774834				0.688953642384106	-0.0162119205298013	0.141139072847682	-16.3660927152318	-49.2521854304636	-12.6259602649007				0.661827814569536	-0.0972715231788079	-0.43994701986755	-38.072582781457	119.146490066225	-4.68026490066225				0.336529801324503	-0.0965298013245033	-0.501721854304636	31.0429139072848	48.3435761589404	-6.77562913907285				0.628026490066225	-0.0445033112582781	0.181933774834437	-22.1682119205298	-38.8680794701987	-1.17748344370861				0.223788079470199	-0.334834437086093	-0.484238410596026	7.86039735099338	4.35761589403974	-62.354701986755			
131	2620	0.567841059602649	0.0827549668874172	-0.599523178807947	6.19337748344371	96.7353642384106	6.37509933774834				0.608953642384106	0.0477880794701987	0.0931390728476822	5.19390728476821	-47.8521854304636	-16.2659602649007				0.645827814569536	-0.129271523178808	-0.50394701986755	-35.552582781457	98.4264900662252	-5.80026490066225				0.336529801324503	-0.0805298013245033	-0.501721854304636	31.3229139072848	35.4635761589404	1.90437086092715				0.612026490066225	0.0674966887417219	0.181933774834437	-21.3282119205298	-36.6280794701987	-2.01748344370861				0.223788079470199	-0.382834437086093	-0.532238410596027	4.78039735099338	-9.36238410596027	-64.314701986755			
132	2640	0.631841059602649	0.0987549668874172	-0.471523178807947	-11.1666225165563	86.9353642384106	8.05509933774835				0.480953642384106	-0.112211920529801	0.141139072847682	0.153907284768212	-41.1321854304636	-12.9059602649007				0.645827814569536	-0.145271523178808	-0.42394701986755	-27.152582781457	93.3864900662252	-8.60026490066225				0.336529801324503	-0.112529801324503	-0.581721854304636	37.2029139072848	28.7435761589404	20.3843708609272				0.532026490066225	0.0354966887417219	0.261933774834437	-8.1682119205298	-38.0280794701987	0.782516556291392				0.223788079470199	-0.302834437086093	-0.516238410596026	-5.01960264900662	-16.9223841059603	-65.714701986755			
133	2660	0.711841059602649	0.0827549668874172	-0.487523178807947	-11.1666225165563	81.0553642384106	6.37509933774834				0.624953642384106	-0.144211920529801	0.141139072847682	-21.1260927152318	-20.9721854304636	-8.98596026490066				0.661827814569536	-0.0972715231788079	-0.35994701986755	-39.192582781457	82.1864900662252	-3.84026490066225				0.304529801324503	-0.176529801324503	-0.581721854304636	45.3229139072848	37.1435761589404	23.4643708609272				0.548026490066225	-0.0605033112582781	0.261933774834437	-4.5282119205298	-40.2680794701987	5.82251655629139				0.191788079470199	-0.238834437086093	-0.580238410596026	-30.7796026490066	-11.3223841059603	-68.514701986755			
134	2680	0.711841059602649	0.162754966887417	-0.519523178807947	-4.44662251655629	74.0553642384106	4.69509933774834				0.736953642384106	-0.000211920529801304	0.269139072847682	-21.4060927152318	-9.77218543046358	-14.5859602649007				0.693827814569536	-0.0972715231788079	-0.42394701986755	-58.792582781457	69.8664900662252	-2.44026490066225				0.352529801324503	-0.224529801324503	-0.533721854304636	55.4029139072848	43.3035761589404	19.8243708609272				0.660026490066225	-0.108503311258278	0.181933774834437	-15.4482119205298	-37.1880794701987	6.38251655629139				0.239788079470199	-0.270834437086093	-0.580238410596026	-29.6596026490066	-12.4423841059603	-65.994701986755			
135	2700	0.695841059602649	0.130754966887417	-0.535523178807947	-6.12662251655629	63.4153642384106	3.01509933774834				0.720953642384106	-0.0642119205298013	0.141139072847682	-9.36609271523179	-33.2921854304636	-8.98596026490066				0.773827814569536	-0.0652715231788079	-0.51994701986755	-48.712582781457	55.8664900662252	1.47973509933775				0.416529801324503	-0.240529801324503	-0.581721854304636	48.9629139072848	38.8235761589404	18.4243708609272				0.660026490066225	-0.0445033112582781	0.117933774834437	-16.0082119205298	-32.9880794701987	3.02251655629139				0.255788079470199	-0.318834437086093	-0.532238410596027	-22.0996026490066	-10.7623841059603	-62.074701986755			
136	2720	0.647841059602649	0.0827549668874172	-0.519523178807947	-25.1666225165563	50.2553642384106	5.25509933774834				0.624953642384106	-0.0802119205298013	0.157139072847682	-21.4060927152318	-17.6121854304636	-10.1059602649007				0.789827814569536	-0.0652715231788079	-0.55194701986755	-25.472582781457	37.3864900662252	-1.60026490066225				0.400529801324503	-0.224529801324503	-0.677721854304636	33.8429139072848	28.7435761589404	24.3043708609272				0.660026490066225	-0.0605033112582781	0.149933774834437	-6.7682119205298	-27.6680794701987	-0.617483443708608				0.271788079470199	-0.286834437086093	-0.676238410596026	-13.1396026490066	-6.56238410596027	-67.394701986755			
137	2740	0.695841059602649	0.0827549668874172	-0.503523178807947	-12.0066225165563	38.7753642384106	3.29509933774834				0.736953642384106	0.0477880794701987	0.221139072847682	-20.2860927152318	-3.05218543046358	-14.5859602649007				0.741827814569536	0.0307284768211921	-0.45594701986755	-14.272582781457	33.1864900662252	-7.20026490066225				0.464529801324503	-0.160529801324503	-0.741721854304636	36.6429139072848	15.5835761589404	19.5443708609272				0.692026490066225	-0.0125033112582781	0.181933774834437	-11.2482119205298	-15.3480794701987	-6.21748344370861				0.303788079470199	-0.286834437086093	-0.692238410596026	7.58039735099338	-7.40238410596027	-45.834701986755			
138	2760	0.775841059602649	0.114754966887417	-0.583523178807947	-8.64662251655629	28.9753642384106	1.61509933774834				0.800953642384106	-0.0162119205298013	0.205139072847682	-4.32609271523179	-17.3321854304636	-10.6659602649007				0.757827814569536	0.0307284768211921	-0.47194701986755	-12.312582781457	22.5464900662252	-5.80026490066225				0.528529801324503	-0.176529801324503	-0.757721854304636	44.2029139072848	8.8635761589404	10.3043708609272				0.756026490066225	-0.0125033112582781	0.197933774834437	-9.0082119205298	-1.90807947019868	-9.01748344370861				0.271788079470199	-0.446834437086093	-0.676238410596026	-3.89960264900662	-13.8423841059603	-30.714701986755			
139	2780	0.807841059602649	0.130754966887417	-0.519523178807947	-7.52662251655629	21.9753642384106	1.89509933774834				0.880953642384106	-0.0322119205298013	0.173139072847682	-0.686092715231788	-20.6921854304636	-10.9459602649007				0.821827814569536	-0.0172715231788079	-0.48794701986755	-5.31258278145695	17.7864900662252	-2.44026490066225				0.624529801324503	-0.336529801324503	-0.757721854304636	22.0829139072848	2.4235761589404	4.42437086092715				0.836026490066225	-0.0125033112582781	0.229933774834437	-5.0882119205298	-1.06807947019868	-9.57748344370861				0.351788079470199	-0.510834437086093	-0.692238410596026	13.4603973509934	-17.2023841059603	-17.834701986755			
140	2800	0.839841059602649	0.0507549668874172	-0.519523178807947	-10.3266225165563	20.5753642384106	5.53509933774834				0.944953642384106	-0.0962119205298013	0.237139072847682	-24.2060927152318	-3.89218543046358	-7.58596026490066				0.821827814569536	-0.0492715231788079	-0.48794701986755	5.32741721854305	18.6264900662252	-4.68026490066225				0.592529801324503	-0.368529801324503	-0.757721854304636	-6.75708609271523	1.0235761589404	-0.335629139072848				0.868026490066225	-0.0285033112582781	0.213933774834437	-7.6082119205298	0.331920529801325	-11.5374834437086				0.399788079470199	-0.414834437086093	-0.692238410596026	-3.33960264900662	-17.2023841059603	-0.474701986754968			
141	2820	0.823841059602649	0.0187549668874172	-0.455523178807947	0.873377483443709	21.4153642384106	1.61509933774834				0.960953642384106	-0.0162119205298013	0.205139072847682	-16.3660927152318	-10.8921854304636	-8.42596026490066				0.837827814569536	-0.0492715231788079	-0.45594701986755	1.96741721854305	7.14649006622517	-8.88026490066225				0.544529801324503	-0.224529801324503	-0.709721854304636	-19.9170860927152	-2.0564238410596	-6.21562913907285				0.916026490066225	-0.0285033112582781	0.229933774834437	-9.5682119205298	16.5719205298013	-13.4974834437086				0.415788079470199	-0.302834437086093	-0.740238410596026	-13.1396026490066	-9.92238410596027	1.20529801324503			
142	2840	0.775841059602649	0.0507549668874172	-0.471523178807947	-3.60662251655629	20.0153642384106	3.29509933774834				0.976953642384106	-0.0162119205298013	0.0611390728476822	8.55390728476821	-25.4521854304636	-8.14596026490066				0.757827814569536	-0.0812715231788079	-0.45594701986755	0.847417218543046	2.10649006622517	-9.72026490066225				0.608529801324503	-0.128529801324503	-0.693721854304636	-13.7570860927152	-4.0164238410596	-7.89562913907285				0.964026490066225	0.00349668874172187	0.309933774834437	-5.3682119205298	13.4919205298013	-9.29748344370861				0.463788079470199	-0.350834437086093	-0.708238410596026	-10.8996026490066	3.23761589403974	-4.39470198675497			
143	2860	0.823841059602649	0.0187549668874172	-0.439523178807947	-9.48662251655629	19.1753642384106	2.17509933774834				0.976953642384106	-0.0322119205298013	0.0291390728476822	1.27390728476821	-16.7721854304636	-2.54596026490066				0.789827814569536	-0.0652715231788079	-0.47194701986755	8.12741721854305	11.6264900662252	-7.76026490066225				0.640529801324503	-0.160529801324503	-0.709721854304636	1.08291390728477	-5.1364238410596	-6.77562913907285				0.996026490066225	0.0194966887417219	0.325933774834437	-6.4882119205298	-4.98807947019868	-3.97748344370861				0.431788079470199	-0.414834437086093	-0.708238410596026	-3.89960264900662	20.0376158940397	-6.63470198675497			
144	2880	0.919841059602649	0.0827549668874172	-0.391523178807947	-8.92662251655629	18.3353642384106	1.05509933774834				1.02495364238411	-0.0322119205298013	0.173139072847682	-6.84609271523179	1.42781456953642	-2.26596026490066				0.917827814569536	0.0147284768211921	-0.45594701986755	3.08741721854305	19.4664900662252	-8.32026490066225				0.608529801324503	-0.224529801324503	-0.725721854304636	6.12291390728477	-2.8964238410596	-9.29562913907285				0.980026490066225	-0.0285033112582781	0.261933774834437	-2.2882119205298	-11.4280794701987	-2.01748344370861				0.367788079470199	-0.366834437086093	-0.788238410596027	-4.45960264900662	18.6376158940397	-6.91470198675497			
145	2900	0.871841059602649	0.162754966887417	-0.471523178807947	-9.48662251655629	15.8153642384106	1.33509933774834				1.02495364238411	0.0157880794701987	0.157139072847682	3.23390728476821	-8.37218543046358	-1.14596026490066				0.933827814569536	0.0147284768211921	-0.45594701986755	4.76741721854305	19.1864900662252	-7.48026490066225				0.624529801324503	-0.240529801324503	-0.709721854304636	3.04291390728477	0.4635761589404	-13.4956291390728				0.932026490066225	0.00349668874172187	0.261933774834437	0.791788079470198	-6.10807947019868	-4.25748344370861				0.399788079470199	-0.318834437086093	-0.804238410596027	-14.8196026490066	20.3176158940397	-7.19470198675497			
146	2920	0.791841059602649	0.178754966887417	-0.471523178807947	4.79337748344371	17.2153642384106	0.215099337748344				0.928953642384106	-0.0322119205298013	0.125139072847682	7.43390728476821	-13.4121854304636	-0.86596026490066				0	0	0	0	0	0				0.640529801324503	-0.176529801324503	-0.725721854304636	-0.0370860927152318	0.7435761589404	-17.9756291390729				0.900026490066225	0.00349668874172187	0.293933774834437	5.2717880794702	-1.06807947019868	-4.25748344370861				0.463788079470199	-0.350834437086093	-0.804238410596027	-13.1396026490066	22.5576158940397	-1.03470198675497			
147	2940	0	0	0	0	0	0				0	0	0	0	0	0				0	0	0	0	0	0				0.608529801324503	-0.208529801324503	-0.693721854304636	-2.27708609271523	1.8635761589404	-15.1756291390728				0.964026490066225	0.00349668874172187	0.245933774834437	2.4717880794702	-2.74807947019868	-3.13748344370861				0.479788079470199	-0.382834437086093	-0.804238410596027	-0.259602649006623	12.4776158940397	4.00529801324503			
148	2960	0	0	0	0	0	0				0	0	0	0	0	0				0.853827814569536	-0.0332715231788079	-0.42394701986755	6.44741721854305	19.4664900662252	-5.52026490066225				0.576529801324503	-0.256529801324503	-0.709721854304636	5.00291390728477	-4.2964238410596	-10.9756291390728				0.916026490066225	0.00349668874172187	0.245933774834437	3.5917880794702	-0.508079470198675	-1.17748344370861				0.495788079470199	-0.366834437086093	-0.804238410596027	-17.3396026490066	8.83761589403974	4.00529801324503			
149	2980	0.871841059602649	0.114754966887417	-0.471523178807947	2.83337748344371	13.2953642384106	-9.02490066225166				1.08895364238411	0.0317880794701987	0.0451390728476822	20.8739072847682	-16.7721854304636	-0.30596026490066				0.917827814569536	-0.00127152317880793	-0.47194701986755	6.44741721854305	18.6264900662252	-6.64026490066225				0.560529801324503	-0.224529801324503	-0.725721854304636	7.52291390728477	-5.4164238410596	-10.1356291390728				0.916026490066225	-0.0125033112582781	0.277933774834437	3.0317880794702	0.0519205298013249	-0.0574834437086077				0.431788079470199	-0.302834437086093	-0.756238410596026	-19.5796026490066	14.4376158940397	1.76529801324503			
150	3000	0.823841059602649	0.178754966887417	-0.455523178807947	8.43337748344371	9.3753642384106	-6.50490066225166				0.992953642384106	0.0317880794701987	0.189139072847682	14.1539072847682	-16.2121854304636	-3.94596026490066				0.773827814569536	0.0147284768211921	-0.45594701986755	7.28741721854305	17.2264900662252	-7.48026490066225				0.560529801324503	-0.208529801324503	-0.725721854304636	2.48291390728477	-0.3764238410596	-13.2156291390728				0.868026490066225	0.00349668874172187	0.277933774834437	3.5917880794702	3.13192052980133	-2.01748344370861				0.399788079470199	-0.286834437086093	-0.692238410596026	-11.1796026490066	15.2776158940397	1.76529801324503			
151	3020	0.791841059602649	0.146754966887417	-0.423523178807947	20.7533774834437	13.2953642384106	-2.02490066225166				0.960953642384106	-0.0802119205298013	0.0931390728476822	7.99390728476821	-31.3321854304636	-2.82596026490066				0.773827814569536	0.0147284768211921	-0.48794701986755	8.40741721854305	13.0264900662252	-3.56026490066225				0.576529801324503	-0.224529801324503	-0.693721854304636	-1.71708609271523	5.2235761589404	-12.6556291390728				0.900026490066225	-0.0285033112582781	0.325933774834437	7.7917880794702	7.33192052980133	-0.337483443708608				0.479788079470199	-0.334834437086093	-0.740238410596026	-3.89960264900662	12.4776158940397	0.925298013245032			
152	3040	0.855841059602649	0.0347549668874172	-0.423523178807947	17.9533774834437	15.8153642384106	-0.0649006622516557				0.960953642384106	-0.0962119205298013	-0.0668609271523178	3.51390728476821	-30.7721854304636	-4.22596026490066				0.933827814569536	-0.0172715231788079	-0.43994701986755	4.48741721854305	13.3064900662252	0.0797350993377501				0.608529801324503	-0.208529801324503	-0.661721854304636	6.96291390728477	9.1435761589404	-7.61562913907285				0.996026490066225	-0.0605033112582781	0.309933774834437	3.5917880794702	1.73192052980133	0.502516556291392				0.543788079470199	-0.414834437086093	-0.788238410596027	-5.85960264900662	12.1976158940397	-4.67470198675497			
153	3060	0.855841059602649	0.0507549668874172	-0.471523178807947	0.873377483443709	13.0153642384106	-2.02490066225166				0.992953642384106	-0.0162119205298013	0.0451390728476822	1.27390728476821	1.14781456953642	-2.26596026490066				0.933827814569536	-0.0492715231788079	-0.39194701986755	0.847417218543046	8.82649006622517	0.0797350993377501				0.624529801324503	-0.208529801324503	-0.677721854304636	19.8429139072848	11.1035761589404	-5.93562913907285				0.964026490066225	0.00349668874172187	0.277933774834437	-0.888211920529802	-7.22807947019868	0.222516556291392				0.527788079470199	-0.398834437086093	-0.804238410596027	-6.13960264900662	15.8376158940397	-4.95470198675497			
154	3080	0.823841059602649	0.114754966887417	-0.487523178807947	-6.40662251655629	9.0953642384106	-6.22490066225166				0.976953642384106	-0.0162119205298013	0.141139072847682	2.67390728476821	-5.57218543046358	1.65403973509934				0.805827814569536	-0.00127152317880793	-0.34394701986755	-6.43258278145695	7.70649006622517	-3.56026490066225				0.624529801324503	-0.240529801324503	-0.741721854304636	15.6429139072848	9.1435761589404	-5.09562913907285				0.916026490066225	0.0194966887417219	0.309933774834437	1.3517880794702	-1.34807947019868	-0.0574834437086077				0.479788079470199	-0.302834437086093	-0.772238410596026	-5.85960264900662	9.95761589403974	-0.474701986754968			
155	3100	0.775841059602649	0.178754966887417	-0.455523178807947	2.83337748344371	8.5353642384106	-6.50490066225166				0.944953642384106	-0.000211920529801304	0.0291390728476822	-0.966092715231788	-19.2921854304636	-0.30596026490066				0.789827814569536	-0.0172715231788079	-0.35994701986755	-5.87258278145695	6.86649006622517	-4.68026490066225				0.608529801324503	-0.272529801324503	-0.741721854304636	9.48291390728477	8.3035761589404	-1.73562913907285				0.900026490066225	-0.0285033112582781	0.309933774834437	3.5917880794702	-1.90807947019868	0.782516556291392				0.479788079470199	-0.334834437086093	-0.788238410596027	-4.45960264900662	-2.08238410596027	1.76529801324503			
156	3120	0.791841059602649	0.210754966887417	-0.487523178807947	3.39337748344371	8.8153642384106	-6.22490066225166				0.912953642384106	0.0157880794701987	-0.0188609271523178	-1.24609271523179	-14.2521854304636	-2.82596026490066				0.901827814569536	0.0307284768211921	-0.42394701986755	0.287417218543046	8.82649006622517	-6.08026490066225				0.560529801324503	-0.256529801324503	-0.725721854304636	5.28291390728477	6.3435761589404	0.224370860927152				0.948026490066225	0.00349668874172187	0.245933774834437	0.231788079470198	-8.62807947019868	-0.0574834437086077				0.495788079470199	-0.350834437086093	-0.820238410596026	-4.45960264900662	-6.28238410596027	2.32529801324503			
157	3140	0.871841059602649	0.130754966887417	-0.487523178807947	9.27337748344371	10.7753642384106	-5.10490066225166				1.00895364238411	-0.0322119205298013	-0.0508609271523178	-0.406092715231788	-2.49218543046358	-0.30596026490066				0.885827814569536	0.0147284768211921	-0.43994701986755	3.36741721854305	10.2264900662252	-6.36026490066225				0.560529801324503	-0.272529801324503	-0.741721854304636	5.00291390728477	4.1035761589404	5.82437086092715				0.980026490066225	0.00349668874172187	0.181933774834437	-0.888211920529802	0.0519205298013249	1.06251655629139				0.495788079470199	-0.286834437086093	-0.820238410596026	-0.539602649006623	-1.52238410596026	4.28529801324503			
158	3160	0.855841059602649	0.0507549668874172	-0.471523178807947	9.27337748344371	6.2953642384106	-3.14490066225166				1.08895364238411	-0.0802119205298013	0.109139072847682	-5.72609271523179	-1.65218543046358	-0.0259602649006601				0.853827814569536	-0.0172715231788079	-0.45594701986755	-8.11258278145695	13.8664900662252	-3.56026490066225				0.592529801324503	-0.256529801324503	-0.837721854304636	5.84291390728477	-3.4564238410596	8.62437086092715				0.948026490066225	-0.0445033112582781	0.229933774834437	2.7517880794702	7.61192052980133	2.18251655629139				0.447788079470199	-0.254834437086093	-0.740238410596026	-5.85960264900662	5.19761589403974	0.645298013245032			
159	3180	0.823841059602649	0.00275496688741723	-0.455523178807947	7.03337748344371	6.5753642384106	-4.54490066225166				1.02495364238411	0.0157880794701987	0.0771390728476822	-5.44609271523179	-23.2121854304636	-4.50596026490066				0.853827814569536	-0.0972715231788079	-0.47194701986755	-12.312582781457	19.7464900662252	-4.12026490066225				0.608529801324503	-0.320529801324503	-0.837721854304636	-7.59708609271523	-16.6164238410596	6.38437086092715				0.932026490066225	-0.0445033112582781	0.245933774834437	-0.608211920529802	7.05192052980133	1.62251655629139				0.463788079470199	-0.366834437086093	-0.772238410596026	-2.21960264900662	3.23761589403974	0.0852980132450323			
160	3200	0.823841059602649	0.0827549668874172	-0.471523178807947	-1.36662251655629	6.0153642384106	-4.26490066225166				0.848953642384106	0.0477880794701987	-0.0988609271523179	1.83390728476821	-26.5721854304636	-4.22596026490066				0.885827814569536	-0.0492715231788079	-0.34394701986755	-14.272582781457	12.4664900662252	-2.72026490066225				0.592529801324503	-0.320529801324503	-0.805721854304636	-19.0770860927152	-23.3364238410596	3.58437086092715				0.948026490066225	-0.0125033112582781	0.197933774834437	-5.0882119205298	0.331920529801325	-0.617483443708608				0.447788079470199	-0.414834437086093	-0.756238410596026	0.0203973509933773	-4.60238410596027	4.84529801324503			
161	3220	0.807841059602649	0.146754966887417	-0.439523178807947	-2.48662251655629	4.8953642384106	-1.46490066225166				0.896953642384106	-0.0322119205298013	-0.130860927152318	-0.966092715231788	-5.85218543046358	-1.42596026490066				0.821827814569536	0.0307284768211921	-0.39194701986755	-18.472582781457	5.74649006622517	-1.32026490066225				0.528529801324503	-0.224529801324503	-0.773721854304636	-24.3970860927152	-26.1364238410596	-4.25562913907285				0.932026490066225	-0.0285033112582781	0.213933774834437	-3.1282119205298	0.0519205298013249	-3.41748344370861				0.399788079470199	-0.334834437086093	-0.740238410596026	-10.3396026490066	-0.122384105960265	9.60529801324503			
162	3240	0.839841059602649	0.0827549668874172	-0.455523178807947	5.07337748344371	6.0153642384106	1.05509933774834				1.00895364238411	-0.0322119205298013	0.0611390728476822	-10.2060927152318	7.30781456953642	0.25403973509934				0.853827814569536	0.0627284768211921	-0.39194701986755	-18.192582781457	4.34649006622517	0.63973509933775				0.496529801324503	-0.208529801324503	-0.741721854304636	-27.4770860927152	-20.5364238410596	-7.33562913907285				0.948026490066225	-0.0445033112582781	0.277933774834437	-0.0482119205298018	1.17192052980133	-3.97748344370861				0.399788079470199	-0.254834437086093	-0.756238410596026	-9.49960264900662	3.79761589403974	8.48529801324503			
163	3260	0.839841059602649	0.0347549668874172	-0.455523178807947	1.15337748344371	4.3353642384106	0.215099337748344				0.992953642384106	0.0477880794701987	0.0931390728476822	-11.0460927152318	-7.25218543046358	-1.42596026490066				0.901827814569536	0.0307284768211921	-0.39194701986755	-12.592582781457	0.706490066225167	2.59973509933775				0.480529801324503	-0.176529801324503	-0.677721854304636	-22.4370860927152	-12.6964238410596	-3.97562913907285				0.932026490066225	-0.0125033112582781	0.229933774834437	-7.0482119205298	-3.30807947019868	-3.41748344370861				0.431788079470199	-0.270834437086093	-0.756238410596026	3.10039735099338	3.51761589403974	5.96529801324503			
164	3280	0.823841059602649	0.114754966887417	-0.503523178807947	-11.1666225165563	2.3753642384106	-0.0649006622516557				0.880953642384106	0.0317880794701987	-0.0988609271523179	-2.92609271523179	-18.7321854304636	-1.14596026490066				0.885827814569536	0.0307284768211921	-0.39194701986755	-3.91258278145695	-4.89350993377483	2.03973509933775				0.480529801324503	-0.160529801324503	-0.661721854304636	-7.87708609271523	-4.5764238410596	-2.29562913907285				0.916026490066225	0.0354966887417219	0.165933774834437	-6.4882119205298	-2.74807947019868	-3.97748344370861				0.447788079470199	-0.334834437086093	-0.740238410596026	1.42039735099338	2.39761589403974	7.36529801324503			
165	3300	0.823841059602649	0.162754966887417	-0.471523178807947	-14.2466225165563	4.8953642384106	1.89509933774834				0.960953642384106	-0.0162119205298013	-0.130860927152318	-0.126092715231788	-0.252185430463576	0.25403973509934				0.837827814569536	0.0147284768211921	-0.37594701986755	-2.23258278145695	-6.01350993377483	1.47973509933775				0.496529801324503	-0.144529801324503	-0.693721854304636	4.16291390728477	3.5435761589404	-1.73562913907285				0.916026490066225	-0.0125033112582781	0.261933774834437	-1.4482119205298	-1.34807947019868	-2.29748344370861				0.463788079470199	-0.334834437086093	-0.740238410596026	-6.13960264900662	5.75761589403974	9.32529801324503			
166	3320	0.839841059602649	0.146754966887417	-0.439523178807947	-8.92662251655629	4.8953642384106	1.89509933774834				1.02495364238411	-0.0322119205298013	0.0611390728476822	-10.2060927152318	8.42781456953642	-0.585960264900661				0.837827814569536	-0.0332715231788079	-0.39194701986755	-9.23258278145695	-2.09350993377483	3.71973509933775				0.544529801324503	-0.160529801324503	-0.725721854304636	12.2829139072848	6.9035761589404	2.46437086092715				0.948026490066225	-0.0125033112582781	0.293933774834437	-6.2082119205298	-6.66807947019868	-0.617483443708608				0.463788079470199	-0.286834437086093	-0.756238410596026	-12.5796026490066	11.6376158940397	8.76529801324503			
167	3340	0.871841059602649	0.130754966887417	-0.455523178807947	-4.44662251655629	5.4553642384106	-0.624900662251656				1.04095364238411	0.0317880794701987	0.0291390728476822	-9.64609271523179	-8.93218543046358	-1.98596026490066				0.901827814569536	0.0307284768211921	-0.40794701986755	-16.232582781457	-0.133509933774833	5.95973509933775				0.608529801324503	-0.224529801324503	-0.773721854304636	16.4829139072848	9.7035761589404	3.86437086092715				0.980026490066225	0.0194966887417219	0.245933774834437	-9.8482119205298	-11.4280794701987	-0.617483443708608				0.479788079470199	-0.286834437086093	-0.772238410596026	-4.17960264900662	9.39761589403974	4.28529801324503			
168	3360	0.871841059602649	0.130754966887417	-0.439523178807947	-1.92662251655629	5.4553642384106	-1.74490066225166				0.992953642384106	0.0477880794701987	-0.0988609271523179	-3.20609271523179	-17.6121854304636	-0.0259602649006601				0.869827814569536	0.0787284768211921	-0.42394701986755	-13.992582781457	2.10649006622517	3.71973509933775				0.608529801324503	-0.272529801324503	-0.789721854304636	13.6829139072848	12.5035761589404	5.54437086092715				0.996026490066225	0.0194966887417219	0.229933774834437	-6.7682119205298	-11.7080794701987	-0.897483443708608				0.511788079470199	-0.302834437086093	-0.804238410596027	-2.21960264900662	6.59761589403974	1.48529801324503			
169	3380	0.823841059602649	0.130754966887417	-0.407523178807947	-6.68662251655629	5.7353642384106	-1.46490066225166				0.992953642384106	0.0157880794701987	-0.0988609271523179	-9.36609271523179	-8.37218543046358	-1.70596026490066				0.853827814569536	0.0947284768211921	-0.43994701986755	-5.59258278145695	1.54649006622517	1.19973509933775				0.592529801324503	-0.256529801324503	-0.789721854304636	6.68291390728477	10.2635761589404	5.82437086092715				0.964026490066225	-0.0125033112582781	0.229933774834437	-4.2482119205298	-8.90807947019868	-0.617483443708608				0.479788079470199	-0.334834437086093	-0.804238410596027	-4.17960264900662	7.43761589403974	0.645298013245032			
170	3400	0.839841059602649	0.130754966887417	-0.327523178807947	-3.60662251655629	9.9353642384106	0.495099337748344				0.992953642384106	-0.000211920529801304	-0.00286092715231785	-11.8860927152318	-3.33218543046358	-1.14596026490066				0.821827814569536	0.0947284768211921	-0.43994701986755	3.92741721854305	4.06649006622517	-0.20026490066225				0.576529801324503	-0.224529801324503	-0.789721854304636	2.20291390728477	5.2235761589404	2.74437086092715				0.948026490066225	-0.0285033112582781	0.261933774834437	-5.3682119205298	-7.50807947019868	-0.337483443708608				0.463788079470199	-0.334834437086093	-0.804238410596027	-5.01960264900662	7.15761589403974	2.60529801324503			
171	3420	0.903841059602649	0.114754966887417	-0.391523178807947	2.55337748344371	11.3353642384106	-0.0649006622516557				1.04095364238411	-0.000211920529801304	-0.0188609271523178	-9.64609271523179	-7.53218543046358	-2.82596026490066				0.885827814569536	0.0627284768211921	-0.40794701986755	7.56741721854305	5.18649006622517	0.0797350993377501				0.592529801324503	-0.240529801324503	-0.773721854304636	0.242913907284768	1.8635761589404	-0.335629139072848				0.948026490066225	-0.0125033112582781	0.245933774834437	-5.9282119205298	-8.06807947019868	-1.17748344370861				0.447788079470199	-0.302834437086093	-0.804238410596027	-7.53960264900662	6.87761589403974	2.88529801324503			
172	3440	0.903841059602649	0.114754966887417	-0.391523178807947	0.873377483443709	10.4953642384106	-0.0649006622516557				1.00895364238411	0.0157880794701987	-0.0828609271523179	-5.44609271523179	-12.8521854304636	-2.82596026490066				0.917827814569536	-0.00127152317880793	-0.37594701986755	7.00741721854305	4.90649006622517	2.87973509933775				0.576529801324503	-0.240529801324503	-0.741721854304636	-1.99708609271523	1.8635761589404	-0.895629139072848				0.948026490066225	0.0194966887417219	0.165933774834437	-7.3282119205298	-5.82807947019868	0.222516556291392				0.447788079470199	-0.286834437086093	-0.820238410596026	-3.89960264900662	6.31761589403974	0.645298013245032			
173	3460	0.855841059602649	0.114754966887417	-0.359523178807947	-1.64662251655629	9.3753642384106	-0.904900662251656				0.928953642384106	0.0157880794701987	-0.0188609271523178	-2.64609271523179	-9.49218543046358	-2.26596026490066				0.869827814569536	-0.0332715231788079	-0.35994701986755	8.40741721854305	3.78649006622517	3.43973509933775				0.576529801324503	-0.208529801324503	-0.709721854304636	-2.83708609271523	-0.0964238410596001	-1.45562913907285				0.932026490066225	-0.0125033112582781	0.197933774834437	1.9117880794702	2.01192052980133	1.06251655629139				0.447788079470199	-0.286834437086093	-0.820238410596026	2.26039735099338	3.79761589403974	-0.474701986754968			
174	3480	0.855841059602649	0.130754966887417	-0.375523178807947	0.873377483443709	4.3353642384106	-2.02490066225166				0.928953642384106	0.0317880794701987	-0.0508609271523178	-5.16609271523179	-0.812185430463576	-3.38596026490066				0.853827814569536	-0.0332715231788079	-0.37594701986755	8.68741721854305	5.18649006622517	3.43973509933775				0.592529801324503	-0.208529801324503	-0.709721854304636	-0.877086092715232	-0.0964238410596001	-1.17562913907285				0.932026490066225	0.00349668874172187	0.213933774834437	4.1517880794702	-2.18807947019868	1.62251655629139				0.431788079470199	-0.286834437086093	-0.804238410596027	4.50039735099338	3.23761589403974	0.365298013245032			
175	3500	0.871841059602649	0.130754966887417	-0.375523178807947	0.873377483443709	2.6553642384106	-2.02490066225166				0.944953642384106	0.0157880794701987	-0.0188609271523178	-3.76609271523179	3.38781456953642	-2.26596026490066				0.837827814569536	-0.0172715231788079	-0.39194701986755	3.08741721854305	4.90649006622517	2.59973509933775				0.576529801324503	-0.208529801324503	-0.725721854304636	4.44291390728477	1.5835761589404	-2.01562913907285				0.916026490066225	0.0354966887417219	0.229933774834437	5.8317880794702	-4.42807947019868	2.18251655629139				0.399788079470199	-0.286834437086093	-0.772238410596026	3.38039735099338	1.83761589403974	0.645298013245032			
176	3520	0.903841059602649	0.114754966887417	-0.455523178807947	4.23337748344371	3.2153642384106	-1.74490066225166				1.00895364238411	-0.0162119205298013	-0.0348609271523178	-6.84609271523179	5.62781456953642	-0.30596026490066				0.917827814569536	-0.00127152317880793	-0.34394701986755	2.52741721854305	9.38649006622517	1.75973509933775				0.560529801324503	-0.224529801324503	-0.709721854304636	7.52291390728477	5.7835761589404	-2.29562913907285				0.900026490066225	-0.0125033112582781	0.197933774834437	10.5917880794702	-3.86807947019868	3.02251655629139				0.431788079470199	-0.318834437086093	-0.772238410596026	0.580397350993377	2.95761589403974	4.00529801324503			
177	3540	0.871841059602649	0.0827549668874172	-0.375523178807947	7.31337748344371	3.7753642384106	-3.14490066225166				0.976953642384106	-0.000211920529801304	-0.00286092715231785	-7.40609271523179	1.98781456953642	1.65403973509934				0.901827814569536	0.0307284768211921	-0.35994701986755	3.64741721854305	7.14649006622517	3.71973509933775				0.544529801324503	-0.240529801324503	-0.693721854304636	8.36291390728477	8.3035761589404	-3.13562913907285				0.900026490066225	-0.0445033112582781	0.229933774834437	10.8717880794702	3.97192052980133	2.74251655629139				0.463788079470199	-0.334834437086093	-0.788238410596027	3.94039735099338	1.27761589403974	5.12529801324503			
178	3560	0.855841059602649	0.0987549668874172	-0.359523178807947	4.23337748344371	3.4953642384106	-1.46490066225166				0.928953642384106	0.0157880794701987	-0.00286092715231785	-3.48609271523179	3.38781456953642	-2.82596026490066				0.837827814569536	0.0307284768211921	-0.39194701986755	3.64741721854305	4.06649006622517	2.03973509933775				0.560529801324503	-0.240529801324503	-0.725721854304636	8.92291390728477	7.1835761589404	-3.41562913907285				0.916026490066225	-0.0285033112582781	0.245933774834437	7.7917880794702	7.33192052980133	1.34251655629139				0.495788079470199	-0.334834437086093	-0.756238410596026	4.50039735099338	-1.80238410596026	2.32529801324503			
