No	Time	12-AccX	12-AccY	12-AccZ	12-GyroX	12-GyroY	12-GyroZ	13-AccX	13-AccY	13-AccZ	13-GyroX	13-GyroY	13-GyroZ	14-AccX	14-AccY	14-AccZ	14-GyroX	14-GyroY	14-GyroZ	15-AccX	15-AccY	15-AccZ	15-GyroX	15-GyroY	15-GyroZ	16-AccX	16-AccY	16-AccZ	16-GyroX	16-GyroY	16-GyroZ	17-AccX	17-AccY	17-AccZ	17-GyroX	17-GyroY	17-GyroZ
0	20	0	0	0	0	0	0				0.960953642384106	0.0317880794701987	0.221139072847682	0.153907284768212	-2.77218543046358	-0.86596026490066				-0.234172185430464	-0.193271523178808	-0.85594701986755	-1.39258278145695	0.146490066225167	0.0797350993377501				0.560529801324503	-0.192529801324503	-0.741721854304636	0.522913907284768	1.8635761589404	0.224370860927152				0.948026490066225	0.0834966887417219	0.245933774834437	-5.3682119205298	-0.508079470198675	-0.897483443708608				0.447788079470199	-0.126834437086093	-0.852238410596026	-2.21960264900662	2.39761589403974	0.925298013245032			
1	40	-0.248158940397351	0.114754966887417	-0.935523178807947	-0.246622516556291	-0.704635761589404	-0.344900662251656				0.960953642384106	0.0157880794701987	0.205139072847682	-1.24609271523179	-3.89218543046358	-1.14596026490066				-0.234172185430464	-0.177271523178808	-0.85594701986755	-1.67258278145695	-0.413509933774833	0.91973509933775				0.560529801324503	-0.208529801324503	-0.757721854304636	2.76291390728477	1.5835761589404	3.86437086092715				0.932026490066225	0.0834966887417219	0.245933774834437	-5.0882119205298	-1.90807947019868	0.222516556291392				0.447788079470199	-0.126834437086093	-0.820238410596026	-3.05960264900662	2.11761589403974	2.32529801324503			
2	60	-0.248158940397351	0.114754966887417	-0.951523178807947	-0.526622516556291	-0.704635761589404	-0.344900662251656				0.976953642384106	0.0157880794701987	0.205139072847682	-2.08609271523179	-1.65218543046358	-5.62596026490066				-0.234172185430464	-0.177271523178808	-0.88794701986755	-0.552582781456954	-1.81350993377483	0.35973509933775				0.560529801324503	-0.208529801324503	-0.757721854304636	3.04291390728477	3.2635761589404	4.70437086092715				0.932026490066225	0.0674966887417219	0.229933774834437	-4.5282119205298	-0.508079470198675	1.06251655629139				0.447788079470199	-0.126834437086093	-0.836238410596026	-1.37960264900662	2.11761589403974	1.48529801324503			
3	80	-0.232158940397351	0.114754966887417	-0.935523178807947	-0.806622516556291	-0.144635761589404	-0.344900662251656				0.976953642384106	0.0157880794701987	0.205139072847682	-1.52609271523179	-0.532185430463576	-0.30596026490066				-0.234172185430464	-0.193271523178808	-0.88794701986755	0.567417218543046	0.146490066225167	0.91973509933775				0.560529801324503	-0.224529801324503	-0.757721854304636	1.36291390728477	3.2635761589404	3.30437086092715				0.948026490066225	0.0514966887417219	0.245933774834437	-4.8082119205298	0.891920529801325	0.782516556291392				0.463788079470199	-0.142834437086093	-0.820238410596026	0.860397350993377	2.67761589403974	-0.194701986754968			
4	100	-0.248158940397351	0.114754966887417	-0.919523178807947	-0.526622516556291	-0.424635761589404	-0.0649006622516557				0.976953642384106	0.0157880794701987	0.205139072847682	-1.24609271523179	-1.37218543046358	-1.14596026490066				-0.234172185430464	-0.177271523178808	-0.88794701986755	-0.832582781456954	1.26649006622517	0.91973509933775				0.560529801324503	-0.224529801324503	-0.757721854304636	0.802913907284768	3.5435761589404	2.18437086092715				0.948026490066225	0.0514966887417219	0.229933774834437	-6.7682119205298	0.331920529801325	-0.897483443708608				0.447788079470199	-0.158834437086093	-0.820238410596026	-0.259602649006623	2.95761589403974	-1.03470198675497			
5	120	-0.248158940397351	0.130754966887417	-0.935523178807947	-0.526622516556291	-0.424635761589404	-0.904900662251656				0.976953642384106	0.0317880794701987	0.221139072847682	-2.92609271523179	-3.05218543046358	-0.86596026490066				-0.234172185430464	-0.177271523178808	-0.85594701986755	-1.39258278145695	0.706490066225167	0.35973509933775				0.560529801324503	-0.224529801324503	-0.757721854304636	-0.317086092715232	2.4235761589404	2.46437086092715				0.932026490066225	0.0514966887417219	0.261933774834437	-5.6482119205298	2.57192052980133	-1.17748344370861				0.447788079470199	-0.158834437086093	-0.836238410596026	-1.65960264900662	2.39761589403974	-0.194701986754968			
6	140	-0.264158940397351	0.114754966887417	-0.935523178807947	-1.36662251655629	0.415364238410596	-0.904900662251656				0.976953642384106	0.0157880794701987	0.205139072847682	-2.64609271523179	-4.17218543046358	-1.70596026490066				-0.234172185430464	-0.177271523178808	-0.87194701986755	-2.79258278145695	0.706490066225167	2.31973509933775				0.576529801324503	-0.224529801324503	-0.757721854304636	-1.99708609271523	1.8635761589404	2.74437086092715				0.964026490066225	0.0674966887417219	0.213933774834437	-8.4482119205298	-3.30807947019868	-0.897483443708608				0.431788079470199	-0.142834437086093	-0.836238410596026	-1.65960264900662	2.67761589403974	-0.474701986754968			
7	160	-0.248158940397351	0.130754966887417	-0.935523178807947	-1.08662251655629	1.5353642384106	-0.624900662251656				0.992953642384106	0.0317880794701987	0.205139072847682	-0.406092715231788	-5.57218543046358	-0.86596026490066				-0.250172185430464	-0.177271523178808	-0.87194701986755	-3.07258278145695	-0.693509933774834	1.19973509933775				0.592529801324503	-0.224529801324503	-0.773721854304636	-0.317086092715232	2.1435761589404	2.46437086092715				0.948026490066225	0.0514966887417219	0.213933774834437	-9.5682119205298	0.0519205298013249	-2.57748344370861				0.431788079470199	-0.142834437086093	-0.852238410596026	-0.259602649006623	1.83761589403974	-0.474701986754968			
8	180	-0.248158940397351	0.114754966887417	-0.935523178807947	0.0333774834437086	0.695364238410596	-0.904900662251656				0.960953642384106	0.0317880794701987	0.189139072847682	-0.966092715231788	-4.45218543046358	-1.42596026490066				-0.234172185430464	-0.161271523178808	-0.87194701986755	-1.95258278145695	-1.25350993377483	1.75973509933775				0.576529801324503	-0.224529801324503	-0.773721854304636	0.522913907284768	3.5435761589404	0.504370860927152				0.948026490066225	0.0514966887417219	0.245933774834437	-7.8882119205298	2.29192052980133	-2.57748344370861				0.431788079470199	-0.158834437086093	-0.820238410596026	1.70039735099338	0.157615894039735	-0.474701986754968			
9	200	-0.248158940397351	0.130754966887417	-0.935523178807947	-0.526622516556291	0.415364238410596	-0.904900662251656				0.976953642384106	0.0317880794701987	0.189139072847682	-0.126092715231788	-3.61218543046358	-1.42596026490066				-0.234172185430464	-0.177271523178808	-0.85594701986755	-0.552582781456954	-0.133509933774833	1.47973509933775				0.576529801324503	-0.224529801324503	-0.757721854304636	-0.317086092715232	4.3835761589404	-0.0556291390728476				0.964026490066225	0.0514966887417219	0.213933774834437	-6.4882119205298	-1.34807947019868	-2.85748344370861				0.399788079470199	-0.158834437086093	-0.852238410596026	-0.259602649006623	0.157615894039735	-0.754701986754968			
10	220	-0.248158940397351	0.130754966887417	-0.935523178807947	-1.08662251655629	-0.144635761589404	-0.624900662251656				0.976953642384106	0.0477880794701987	0.189139072847682	4.07390728476821	-8.37218543046358	-1.14596026490066				-0.250172185430464	-0.177271523178808	-0.87194701986755	-0.272582781456954	1.26649006622517	1.19973509933775				0.592529801324503	-0.208529801324503	-0.741721854304636	-1.99708609271523	2.4235761589404	-0.615629139072848				0.948026490066225	0.0674966887417219	0.229933774834437	-3.1282119205298	-1.90807947019868	-2.57748344370861				0.399788079470199	-0.142834437086093	-0.852238410596026	-1.09960264900662	0.157615894039735	0.365298013245032			
11	240	-0.248158940397351	0.130754966887417	-0.935523178807947	0.313377483443709	0.415364238410596	0.215099337748344				0.976953642384106	0.0317880794701987	0.157139072847682	4.63390728476821	-6.69218543046358	-1.14596026490066				-0.266172185430464	-0.161271523178808	-0.87194701986755	-0.552582781456954	-0.693509933774834	1.19973509933775				0.592529801324503	-0.208529801324503	-0.757721854304636	-0.877086092715232	1.8635761589404	-0.895629139072848				0.948026490066225	0.0834966887417219	0.197933774834437	-3.1282119205298	-3.30807947019868	-1.73748344370861				0.399788079470199	-0.158834437086093	-0.836238410596026	-2.77960264900662	0.437615894039735	0.0852980132450323			
12	260	-0.248158940397351	0.130754966887417	-0.935523178807947	0.313377483443709	0.415364238410596	-0.904900662251656				0.976953642384106	0.0477880794701987	0.173139072847682	4.63390728476821	-3.33218543046358	-0.86596026490066				-0.250172185430464	-0.161271523178808	-0.88794701986755	-0.832582781456954	0.426490066225167	1.19973509933775				0.608529801324503	-0.224529801324503	-0.757721854304636	1.64291390728477	0.7435761589404	-1.73562913907285				0.948026490066225	0.0674966887417219	0.197933774834437	-0.0482119205298018	-3.02807947019868	-2.01748344370861				0.399788079470199	-0.142834437086093	-0.836238410596026	-3.33960264900662	0.157615894039735	-0.474701986754968			
13	280	-0.264158940397351	0.130754966887417	-0.935523178807947	0.0333774834437086	0.135364238410596	-0.344900662251656				0.976953642384106	0.0317880794701987	0.173139072847682	4.63390728476821	-2.49218543046358	0.81403973509934				-0.266172185430464	-0.161271523178808	-0.87194701986755	-1.39258278145695	-1.25350993377483	-0.20026490066225				0.592529801324503	-0.240529801324503	-0.773721854304636	0.242913907284768	1.3035761589404	-3.69562913907285				0.948026490066225	0.0674966887417219	0.213933774834437	2.1917880794702	-4.14807947019868	-3.41748344370861				0.399788079470199	-0.142834437086093	-0.852238410596026	-4.17960264900662	1.55761589403974	-0.194701986754968			
14	300	-0.248158940397351	0.114754966887417	-0.935523178807947	-0.806622516556291	0.415364238410596	-0.624900662251656				0.992953642384106	0.0317880794701987	0.173139072847682	6.59390728476821	-3.61218543046358	0.81403973509934				-0.250172185430464	-0.161271523178808	-0.88794701986755	1.12741721854305	-0.133509933774833	-0.76026490066225				0.576529801324503	-0.240529801324503	-0.757721854304636	-1.99708609271523	2.1435761589404	-4.25562913907285				0.948026490066225	0.0514966887417219	0.197933774834437	-0.0482119205298018	-4.42807947019868	-3.97748344370861				0.399788079470199	-0.158834437086093	-0.852238410596026	-3.61960264900662	0.997615894039735	1.20529801324503			
15	320	-0.248158940397351	0.130754966887417	-0.919523178807947	-1.08662251655629	0.975364238410596	-1.18490066225166				0.992953642384106	0.0317880794701987	0.189139072847682	10.2339072847682	-10.3321854304636	1.37403973509934				-0.250172185430464	-0.145271523178808	-0.85594701986755	-0.552582781456954	0.706490066225167	-1.04026490066225				0.560529801324503	-0.224529801324503	-0.757721854304636	-3.39708609271523	-0.0964238410596001	-4.53562913907285				0.948026490066225	0.0674966887417219	0.197933774834437	-0.608211920529802	-2.74807947019868	-4.53748344370861				0.415788079470199	-0.174834437086093	-0.836238410596026	-5.57960264900662	1.55761589403974	1.76529801324503			
16	340	-0.248158940397351	0.146754966887417	-0.935523178807947	-0.806622516556291	-0.144635761589404	-0.344900662251656				0.976953642384106	0.0317880794701987	0.157139072847682	11.3539072847682	-16.7721854304636	0.25403973509934				-0.250172185430464	-0.145271523178808	-0.87194701986755	0.567417218543046	1.54649006622517	-1.32026490066225				0.576529801324503	-0.224529801324503	-0.773721854304636	-3.67708609271523	-2.0564238410596	-5.65562913907285				0.948026490066225	0.0514966887417219	0.213933774834437	0.511788079470198	-2.46807947019868	-4.25748344370861				0.431788079470199	-0.158834437086093	-0.820238410596026	-8.37960264900662	0.997615894039735	1.76529801324503			
17	360	-0.248158940397351	0.130754966887417	-0.935523178807947	-0.806622516556291	0.415364238410596	-0.0649006622516557				0.960953642384106	0.0157880794701987	0.141139072847682	7.15390728476821	-7.53218543046358	-0.585960264900661				-0.234172185430464	-0.161271523178808	-0.87194701986755	2.24741721854305	-0.693509933774834	-1.32026490066225				0.576529801324503	-0.240529801324503	-0.773721854304636	-4.23708609271523	-2.3364238410596	-6.77562913907285				0.948026490066225	0.0514966887417219	0.213933774834437	0.791788079470198	-2.18807947019868	-5.37748344370861				0.415788079470199	-0.142834437086093	-0.852238410596026	-6.69960264900662	-0.962384105960265	3.44529801324503			
18	380	-0.248158940397351	0.130754966887417	-0.935523178807947	-0.526622516556291	0.975364238410596	0.215099337748344				0.976953642384106	0.0317880794701987	0.173139072847682	4.63390728476821	-4.45218543046358	-1.98596026490066				-0.250172185430464	-0.177271523178808	-0.87194701986755	2.52741721854305	-0.413509933774833	-1.88026490066225				0.560529801324503	-0.240529801324503	-0.789721854304636	-7.03708609271523	-0.3764238410596	-7.33562913907285				0.948026490066225	0.0514966887417219	0.197933774834437	1.6317880794702	-1.62807947019868	-4.81748344370861				0.415788079470199	-0.142834437086093	-0.852238410596026	-5.85960264900662	1.83761589403974	4.28529801324503			
19	400	-0.248158940397351	0.0987549668874172	-0.935523178807947	0.0333774834437086	0.695364238410596	0.215099337748344				0.992953642384106	0.0157880794701987	0.157139072847682	4.35390728476821	-6.69218543046358	-1.98596026490066				-0.234172185430464	-0.193271523178808	-0.87194701986755	1.68741721854305	-1.25350993377483	-2.44026490066225				0.544529801324503	-0.224529801324503	-0.773721854304636	-9.83708609271523	-2.6164238410596	-7.33562913907285				0.932026490066225	0.0514966887417219	0.181933774834437	-2.0082119205298	1.45192052980132	-6.77748344370861				0.415788079470199	-0.158834437086093	-0.852238410596026	-3.61960264900662	4.35761589403974	4.84529801324503			
20	420	-0.248158940397351	0.130754966887417	-0.935523178807947	-2.76662251655629	0.975364238410596	1.05509933774834				0.960953642384106	0.0157880794701987	0.189139072847682	2.67390728476821	-3.05218543046358	-2.26596026490066				-0.234172185430464	-0.177271523178808	-0.87194701986755	0.567417218543046	-1.25350993377483	-1.60026490066225				0.528529801324503	-0.192529801324503	-0.805721854304636	-12.6370860927152	-7.0964238410596	-10.4156291390728				0.932026490066225	0.0674966887417219	0.181933774834437	-2.0082119205298	3.97192052980133	-6.49748344370861				0.399788079470199	-0.158834437086093	-0.804238410596027	-4.17960264900662	3.23761589403974	6.80529801324503			
21	440	-0.248158940397351	0.114754966887417	-0.935523178807947	-3.32662251655629	0.415364238410596	1.89509933774834				0.944953642384106	-0.000211920529801304	0.173139072847682	-1.80609271523179	-0.252185430463576	-1.98596026490066				-0.234172185430464	-0.177271523178808	-0.85594701986755	0.847417218543046	-0.693509933774834	-1.32026490066225				0.528529801324503	-0.176529801324503	-0.773721854304636	-14.5970860927152	-10.1764238410596	-14.3356291390729				0.948026490066225	0.0674966887417219	0.197933774834437	-0.328211920529802	7.05192052980133	-7.05748344370861				0.415788079470199	-0.158834437086093	-0.836238410596026	-12.5796026490066	6.03761589403974	9.88529801324503			
22	460	-0.248158940397351	0.114754966887417	-0.951523178807947	-5.00662251655629	0.975364238410596	1.61509933774834				0.976953642384106	-0.0162119205298013	0.157139072847682	-7.40609271523179	7.58781456953643	-3.66596026490066				-0.234172185430464	-0.193271523178808	-0.85594701986755	1.96741721854305	1.26649006622517	-0.76026490066225				0.512529801324503	-0.192529801324503	-0.789721854304636	-13.7570860927152	-10.4564238410596	-15.1756291390728				0.948026490066225	0.0674966887417219	0.197933774834437	-2.2882119205298	5.09192052980133	-6.49748344370861				0.431788079470199	-0.158834437086093	-0.852238410596026	-13.1396026490066	7.99761589403974	12.965298013245			
23	480	-0.248158940397351	0.0987549668874172	-0.935523178807947	-5.00662251655629	1.5353642384106	3.01509933774834				0.992953642384106	0.0317880794701987	0.189139072847682	-11.3260927152318	-0.252185430463576	-6.18596026490066				-0.234172185430464	-0.193271523178808	-0.85594701986755	0.287417218543046	0.146490066225167	-0.20026490066225				0.496529801324503	-0.176529801324503	-0.757721854304636	-14.0370860927152	-5.9764238410596	-12.6556291390728				0.964026490066225	0.0674966887417219	0.181933774834437	-4.5282119205298	3.97192052980133	-5.37748344370861				0.431788079470199	-0.158834437086093	-0.836238410596026	-10.6196026490066	11.0776158940397	16.885298013245			
24	500	-0.264158940397351	0.0987549668874172	-0.919523178807947	-7.24662251655629	0.695364238410596	1.89509933774834				0.976953642384106	0.0317880794701987	0.125139072847682	-9.36609271523179	-4.17218543046358	-5.62596026490066				-0.250172185430464	-0.193271523178808	-0.85594701986755	-2.23258278145695	-1.25350993377483	0.35973509933775				0.528529801324503	-0.176529801324503	-0.709721854304636	-17.6770860927152	-5.1364238410596	-11.2556291390728				0.964026490066225	0.0834966887417219	0.197933774834437	-5.3682119205298	1.73192052980133	-3.97748344370861				0.479788079470199	-0.126834437086093	-0.852238410596026	-12.8596026490066	10.7976158940397	20.245298013245			
25	520	-0.248158940397351	0.114754966887417	-0.935523178807947	-8.36662251655629	-0.144635761589404	2.17509933774834				0.976953642384106	0.0317880794701987	0.109139072847682	-8.80609271523179	7.58781456953643	-4.78596026490066				-0.250172185430464	-0.193271523178808	-0.88794701986755	-1.39258278145695	-1.53350993377483	2.03973509933775				0.528529801324503	-0.160529801324503	-0.741721854304636	-15.4370860927152	-2.6164238410596	-7.33562913907285				0.996026490066225	0.0834966887417219	0.197933774834437	-11.2482119205298	-0.508079470198675	-2.01748344370861				0.495788079470199	-0.0948344370860927	-0.900238410596026	-19.5796026490066	7.43761589403974	23.605298013245			
26	540	-0.248158940397351	0.130754966887417	-0.935523178807947	-1.92662251655629	0.135364238410596	3.29509933774834				0.992953642384106	0.0477880794701987	0.221139072847682	-7.40609271523179	8.98781456953643	-4.22596026490066				-0.250172185430464	-0.193271523178808	-0.87194701986755	-1.67258278145695	-0.413509933774833	1.75973509933775				0.496529801324503	-0.144529801324503	-0.757721854304636	-0.317086092715232	7.7435761589404	-0.615629139072848				0.980026490066225	0.0994966887417219	0.229933774834437	-8.4482119205298	-1.34807947019868	-0.617483443708608				0.511788079470199	-0.0948344370860927	-0.900238410596026	-16.2196026490066	4.91761589403974	22.205298013245			
27	560	-0.248158940397351	0.146754966887417	-0.935523178807947	-0.526622516556291	0.695364238410596	2.17509933774834				0.992953642384106	0.0317880794701987	0.205139072847682	-7.12609271523179	2.82781456953642	-3.38596026490066				-0.266172185430464	-0.161271523178808	-0.87194701986755	-3.35258278145695	0.706490066225167	2.31973509933775				0.512529801324503	-0.128529801324503	-0.725721854304636	14.2429139072848	19.2235761589404	4.70437086092715				0.932026490066225	0.0994966887417219	0.293933774834437	-2.8482119205298	0.331920529801325	0.782516556291392				0.495788079470199	-0.142834437086093	-0.884238410596026	-11.4596026490066	4.63761589403974	21.365298013245			
28	580	-0.264158940397351	0.146754966887417	-0.951523178807947	-3.04662251655629	2.3753642384106	1.89509933774834				1.00895364238411	0.0317880794701987	0.205139072847682	-8.24609271523179	3.94781456953642	-3.94596026490066				-0.250172185430464	-0.177271523178808	-0.88794701986755	-1.67258278145695	3.78649006622517	2.03973509933775				0.592529801324503	-0.144529801324503	-0.773721854304636	16.7629139072848	18.3835761589404	4.98437086092715				0.916026490066225	0.0674966887417219	0.293933774834437	-4.8082119205298	-0.788079470198675	2.46251655629139				0.495788079470199	-0.174834437086093	-0.836238410596026	-11.7396026490066	5.19761589403974	25.285298013245			
29	600	-0.248158940397351	0.146754966887417	-0.935523178807947	-2.76662251655629	2.6553642384106	2.73509933774834				0.992953642384106	0.0157880794701987	0.205139072847682	-8.24609271523179	-6.13218543046358	-6.18596026490066				-0.250172185430464	-0.177271523178808	-0.87194701986755	-2.23258278145695	1.54649006622517	2.03973509933775				0.704529801324503	-0.176529801324503	-0.805721854304636	2.48291390728477	4.9435761589404	3.30437086092715				0.948026490066225	0.0354966887417219	0.277933774834437	-8.7282119205298	-0.508079470198675	1.90251655629139				0.511788079470199	-0.158834437086093	-0.788238410596027	-13.4196026490066	3.79761589403974	27.805298013245			
30	620	-0.232158940397351	0.146754966887417	-0.935523178807947	-1.92662251655629	3.7753642384106	1.89509933774834				0.976953642384106	0.0317880794701987	0.189139072847682	-6.56609271523179	-7.25218543046358	-6.74596026490066				-0.234172185430464	-0.177271523178808	-0.88794701986755	-4.75258278145695	0.986490066225167	1.47973509933775				0.784529801324503	-0.208529801324503	-0.789721854304636	-14.5970860927152	-4.0164238410596	-0.615629139072848				0.996026490066225	0.0514966887417219	0.277933774834437	-9.0082119205298	-4.98807947019868	0.782516556291392				0.543788079470199	-0.158834437086093	-0.804238410596027	-14.5396026490066	2.39761589403974	28.645298013245			
31	640	-0.184158940397351	0.146754966887417	-0.919523178807947	-1.92662251655629	2.0953642384106	1.61509933774834				1.00895364238411	-0.000211920529801304	0.221139072847682	-6.00609271523179	-13.6921854304636	-8.14596026490066				-0.186172185430464	-0.177271523178808	-0.85594701986755	-1.39258278145695	-0.413509933774833	-0.76026490066225				0.768529801324503	-0.176529801324503	-0.773721854304636	-20.4770860927152	-9.8964238410596	-1.73562913907285				1.01202649006623	0.0674966887417219	0.293933774834437	-8.7282119205298	-17.5880794701987	1.06251655629139				0.543788079470199	-0.158834437086093	-0.820238410596026	-6.97960264900662	1.83761589403974	25.565298013245			
32	660	-0.216158940397351	0.146754966887417	-0.887523178807947	-4.16662251655629	0.695364238410596	1.61509933774834				1.00895364238411	0.0477880794701987	0.141139072847682	0.433907284768212	-53.1721854304636	-8.14596026490066				-0.234172185430464	-0.145271523178808	-0.83994701986755	-2.79258278145695	-2.09350993377483	-1.60026490066225				0.640529801324503	-0.192529801324503	-0.773721854304636	-20.4770860927152	-16.3364238410596	-0.615629139072848				0.964026490066225	0.0834966887417219	0.261933774834437	-12.9282119205298	-21.7880794701987	0.502516556291392				0.495788079470199	-0.158834437086093	-0.804238410596027	-5.01960264900662	6.87761589403974	23.885298013245			
33	680	-0.264158940397351	0.146754966887417	-0.919523178807947	-2.76662251655629	-0.984635761589404	0.775099337748344				0.896953642384106	0.0797880794701987	0.0131390728476822	1.83390728476821	-43.3721854304636	-5.62596026490066				-0.266172185430464	-0.145271523178808	-0.87194701986755	-4.19258278145695	-0.973509933774833	-1.32026490066225				0.592529801324503	-0.144529801324503	-0.725721854304636	-17.1170860927152	-17.7364238410596	-2.29562913907285				0.916026490066225	0.0834966887417219	0.245933774834437	-9.0082119205298	-24.8680794701987	-0.337483443708608				0.399788079470199	-0.222834437086093	-0.740238410596026	-0.539602649006623	-0.962384105960265	22.205298013245			
34	700	-0.280158940397351	0.146754966887417	-0.951523178807947	-3.04662251655629	-0.424635761589404	0.495099337748344				0.976953642384106	0.0797880794701987	0.157139072847682	-6.84609271523179	-7.81218543046358	-3.38596026490066				-0.266172185430464	-0.145271523178808	-0.91994701986755	-5.03258278145695	0.426490066225167	-0.76026490066225				0.560529801324503	-0.112529801324503	-0.741721854304636	-16.8370860927152	-28.0964238410596	-7.61562913907285				0.868026490066225	0.0674966887417219	0.229933774834437	-9.8482119205298	-14.7880794701987	-2.85748344370861				0.383788079470199	-0.222834437086093	-0.772238410596026	-29.6596026490066	2.39761589403974	27.805298013245			
35	720	-0.264158940397351	0.162754966887417	-0.935523178807947	-5.28662251655629	3.7753642384106	1.89509933774834				1.07295364238411	0.0317880794701987	0.253139072847682	-9.64609271523179	-15.9321854304636	-6.46596026490066				-0.250172185430464	-0.161271523178808	-0.88794701986755	-0.552582781456954	0.706490066225167	-1.04026490066225				0.480529801324503	-0.0805298013245033	-0.725721854304636	-19.9170860927152	-27.8164238410596	-9.85562913907285				0.868026490066225	0.0834966887417219	0.229933774834437	-11.2482119205298	-8.90807947019868	-2.57748344370861				0.399788079470199	-0.110834437086093	-0.820238410596026	-33.2996026490066	2.11761589403974	33.405298013245			
36	740	-0.200158940397351	0.146754966887417	-0.919523178807947	-4.44662251655629	4.0553642384106	3.29509933774834				1.00895364238411	0.0477880794701987	0.205139072847682	0.993907284768212	-47.0121854304636	-10.9459602649007				-0.218172185430464	-0.161271523178808	-0.83994701986755	1.40741721854305	0.426490066225167	-1.88026490066225				0.464529801324503	-0.0805298013245033	-0.677721854304636	-10.3970860927152	-9.3364238410596	-3.69562913907285				0.932026490066225	0.115496688741722	0.229933774834437	-4.2482119205298	-6.38807947019868	-0.897483443708608				0.431788079470199	-0.0308344370860927	-0.788238410596027	-32.7396026490066	4.07761589403974	30.045298013245			
37	760	-0.184158940397351	0.146754966887417	-0.919523178807947	-6.40662251655629	-0.144635761589404	3.29509933774834				0.928953642384106	0.0637880794701987	0.0131390728476822	5.47390728476821	-54.8521854304636	-8.98596026490066				-0.218172185430464	-0.161271523178808	-0.83994701986755	0.287417218543046	-0.133509933774833	-1.60026490066225				0.496529801324503	-0.0485298013245033	-0.709721854304636	3.32291390728477	-0.0964238410596001	2.46437086092715				0.964026490066225	0.115496688741722	0.149933774834437	-5.3682119205298	-6.94807947019868	1.06251655629139				0.431788079470199	-0.0148344370860927	-0.820238410596026	-22.9396026490066	10.5176158940397	23.045298013245			
38	780	-0.232158940397351	0.130754966887417	-0.935523178807947	-5.84662251655629	-1.5446357615894	2.17509933774834				0.896953642384106	0.0957880794701987	-0.0188609271523178	-0.686092715231788	-29.0921854304636	-4.78596026490066				-0.250172185430464	-0.177271523178808	-0.88794701986755	-1.39258278145695	-2.93350993377483	-2.16026490066225				0.528529801324503	-0.112529801324503	-0.773721854304636	9.48291390728477	-0.3764238410596	4.42437086092715				0.948026490066225	0.115496688741722	0.117933774834437	-5.3682119205298	-12.8280794701987	1.90251655629139				0.415788079470199	-0.0948344370860927	-0.804238410596027	-11.1796026490066	13.5976158940397	12.405298013245			
39	800	-0.248158940397351	0.146754966887417	-0.935523178807947	-3.32662251655629	-0.984635761589404	1.33509933774834				0.928953642384106	0.0957880794701987	0.0451390728476822	-2.64609271523179	-17.6121854304636	-1.42596026490066				-0.250172185430464	-0.193271523178808	-0.88794701986755	-3.91258278145695	-3.49350993377483	-2.44026490066225				0.592529801324503	-0.176529801324503	-0.837721854304636	3.88291390728477	-5.9764238410596	3.30437086092715				0.900026490066225	0.0994966887417219	0.149933774834437	-5.0882119205298	-12.5480794701987	1.34251655629139				0.431788079470199	-0.110834437086093	-0.852238410596026	-18.4596026490066	10.5176158940397	12.685298013245			
40	820	-0.248158940397351	0.146754966887417	-0.935523178807947	-5.00662251655629	0.975364238410596	0.215099337748344				0.976953642384106	0.0637880794701987	0.0451390728476822	-3.20609271523179	-3.61218543046358	1.09403973509934				-0.250172185430464	-0.209271523178808	-0.87194701986755	-1.95258278145695	-0.413509933774833	-0.20026490066225				0.560529801324503	-0.192529801324503	-0.821721854304636	-10.6770860927152	-11.0164238410596	7.22437086092715				0.916026490066225	0.115496688741722	0.181933774834437	-1.1682119205298	-10.0280794701987	2.46251655629139				0.415788079470199	-0.0468344370860927	-0.932238410596026	-26.8596026490066	6.87761589403974	26.125298013245			
41	840	-0.264158940397351	0.178754966887417	-0.919523178807947	-7.24662251655629	1.8153642384106	0.495099337748344				1.04095364238411	0.0317880794701987	0.157139072847682	-3.20609271523179	-8.37218543046358	1.09403973509934				-0.234172185430464	-0.289271523178808	-0.82394701986755	-2.23258278145695	1.54649006622517	3.15973509933775				0.496529801324503	-0.112529801324503	-0.869721854304636	-12.6370860927152	-4.8564238410596	14.2243708609272				0.948026490066225	0.115496688741722	0.197933774834437	2.1917880794702	-8.06807947019868	3.86251655629139				0.399788079470199	-0.0308344370860927	-0.900238410596026	-17.3396026490066	4.35761589403974	33.405298013245			
42	860	-0.232158940397351	0.194754966887417	-0.903523178807947	-6.96662251655629	0.975364238410596	1.61509933774834				0.992953642384106	0.0477880794701987	0.125139072847682	-7.96609271523179	-14.8121854304636	1.65403973509934				-0.218172185430464	-0.337271523178808	-0.82394701986755	-10.072582781457	-0.413509933774833	8.75973509933775				0.576529801324503	-0.144529801324503	-0.933721854304636	-12.3570860927152	-11.2964238410596	12.8243708609272				0.948026490066225	0.0674966887417219	0.149933774834437	8.0717880794702	-5.82807947019868	4.42251655629139				0.463788079470199	-0.0628344370860927	-0.900238410596026	-7.81960264900662	4.91761589403974	31.725298013245			
43	880	-0.216158940397351	0.178754966887417	-0.951523178807947	-5.84662251655629	-0.424635761589404	1.61509933774834				0.976953642384106	0.0637880794701987	0.0771390728476822	-9.92609271523179	-14.5321854304636	2.49403973509934				-0.218172185430464	-0.257271523178808	-0.85594701986755	-13.992582781457	-2.93350993377483	13.2397350993378				0.672529801324503	-0.176529801324503	-0.949721854304636	-10.1170860927152	-32.0164238410596	4.14437086092715				0.980026490066225	0.0354966887417219	0.133933774834437	6.9517880794702	-0.228079470198675	1.90251655629139				0.495788079470199	-0.110834437086093	-0.916238410596027	-8.93960264900662	-1.24238410596026	28.365298013245			
44	900	-0.232158940397351	0.162754966887417	-0.983523178807947	-6.40662251655629	2.3753642384106	1.89509933774834				1.07295364238411	0.0317880794701987	0.0131390728476822	-11.0460927152318	-24.8921854304636	3.89403973509934				-0.266172185430464	-0.129271523178808	-0.88794701986755	-19.032582781457	0.706490066225167	13.7997350993378				0.672529801324503	-0.256529801324503	-0.981721854304636	-22.1570860927152	-54.1364238410596	-13.2156291390728				0.980026490066225	0.0194966887417219	0.165933774834437	3.5917880794702	3.41192052980132	-0.337483443708608				0.527788079470199	-0.126834437086093	-0.980238410596026	-1.93960264900662	-7.40238410596027	29.485298013245			
45	920	-0.232158940397351	0.194754966887417	-0.983523178807947	-10.6066225165563	4.6153642384106	4.13509933774834				1.00895364238411	0.0477880794701987	-0.0188609271523178	-10.4860927152318	-33.2921854304636	4.73403973509934				-0.266172185430464	-0.0652715231788079	-0.87194701986755	-7.27258278145696	4.06649006622517	9.59973509933775				0.560529801324503	-0.208529801324503	-1.10972185430464	-18.5170860927152	-75.6964238410596	-33.6556291390729				0	0	0	0	0	0				0	0	0	0	0	0			
46	940	-0.232158940397351	0.226754966887417	-0.967523178807947	-27.1266225165563	6.2953642384106	7.77509933774834				0.976953642384106	0.0637880794701987	-0.0668609271523178	-17.4860927152318	-29.6521854304636	3.61403973509934				-0.218172185430464	-0.0492715231788079	-0.88794701986755	-5.03258278145695	6.02649006622517	6.51973509933775				0	0	0	0	0	0				0	0	0	0	0	0				0	0	0	0	0	0			
47	960	0	0	0	0	0	0				0.880953642384106	0.0477880794701987	-0.0508609271523178	-14.4060927152318	-13.1321854304636	5.57403973509934				0	0	0	0	0	0				0.544529801324503	-0.0805298013245033	-1.18972185430464	-63.0370860927152	-132.25642384106	-48.7756291390729				0.964026490066225	0.0674966887417219	-0.0420662251655629	-0.608211920529802	9.29192052980133	-1.45748344370861				0.383788079470199	-0.0948344370860927	-1.02823841059603	26.9003973509934	-30.0823841059603	55.805298013245			
48	980	-0.136158940397351	0.114754966887417	-0.855523178807947	-48.9666225165563	-9.38463576158941	9.45509933774835				0.752953642384106	0.0637880794701987	0.0131390728476822	-8.24609271523179	4.78781456953642	7.25403973509934				-0.218172185430464	-0.0332715231788079	-0.83994701986755	-10.352582781457	-4.89350993377483	-0.20026490066225				0.496529801324503	-0.0805298013245033	-1.10972185430464	-51.5570860927152	-152.97642384106	-68.3756291390729				1.04402649006623	0.0194966887417219	-0.0420662251655629	-0.608211920529802	6.77192052980133	-4.81748344370861				0.335788079470199	-0.0948344370860927	-1.09223841059603	24.9403973509934	-59.2023841059603	67.005298013245			
49	1000	-0.312158940397351	0.130754966887417	-0.967523178807947	-7.24662251655629	-10.5046357615894	0.775099337748344				0.928953642384106	0.143788079470199	-0.00286092715231785	-10.7660927152318	18.5078145695364	5.01403973509934				-0.314172185430464	-0.0332715231788079	-0.88794701986755	-9.23258278145695	-6.29350993377483	-1.04026490066225				0.256529801324503	-0.224529801324503	-1.09372185430464	-68.6370860927152	-172.29642384106	-76.4956291390729				1.04402649006623	0.0514966887417219	-0.0420662251655629	2.4717880794702	-7.22807947019868	-5.65748344370861				0.255788079470199	-0.0628344370860927	-1.18823841059603	21.0203973509934	-70.4023841059603	81.005298013245			
50	1020	-0.376158940397351	0.226754966887417	-0.951523178807947	-29.3666225165563	-0.984635761589404	1.61509933774834				1.05695364238411	0.0957880794701987	-0.194860927152318	-14.9660927152318	31.9478145695364	6.13403973509934				-0.330172185430464	-0.113271523178808	-0.95194701986755	-4.19258278145695	1.82649006622517	-1.04026490066225				0.0965298013245033	-0.320529801324503	-1.22172185430464	-108.677086092715	-178.45642384106	-77.3356291390729				0.900026490066225	0.211496688741722	-0.0900662251655629	-9.5682119205298	-5.82807947019868	-3.41748344370861				0.111788079470199	-0.0468344370860927	-1.23623841059603	23.8203973509934	-89.1623841059603	92.765298013245			
51	1040	-0.264158940397351	0.274754966887417	-0.839523178807947	-40.2866225165563	4.3353642384106	8.05509933774835				0.976953642384106	0.127788079470199	-0.0828609271523179	-8.52609271523179	48.1878145695364	6.13403973509934				-0.314172185430464	-0.0972715231788079	-0.90394701986755	8.12741721854305	-6.57350993377483	-1.04026490066225				-0.0794701986754967	-0.176529801324503	-1.12572185430464	-162.157086092715	-168.09642384106	-93.0156291390729				1.01202649006623	0.259496688741722	-0.266066225165563	-7.0482119205298	10.9719205298013	0.502516556291392				0.207788079470199	0.0171655629139073	-1.20423841059603	28.8603973509934	-95.0423841059603	99.205298013245			
52	1060	-0.248158940397351	0.146754966887417	-0.887523178807947	-24.0466225165563	0.975364238410596	9.73509933774834				0.992953642384106	0.159788079470199	0.0451390728476822	1.55390728476821	53.2278145695364	14.2540397350993				-0.346172185430464	-0.0972715231788079	-0.83994701986755	7.00741721854305	-8.25350993377483	-0.48026490066225				-0.0634701986754967	0.0474701986754967	-0.869721854304636	-204.997086092715	-163.05642384106	-114.295629139073				1.22002649006623	0.0834966887417219	-0.282066225165563	2.7517880794702	32.8119205298013	7.22251655629139				0.159788079470199	-0.0308344370860927	-1.25223841059603	65.5403973509934	-98.1223841059603	99.765298013245			
53	1080	-0.392158940397351	0.194754966887417	-0.903523178807947	3.67337748344371	-2.1046357615894	4.41509933774834				1.04095364238411	0.175788079470199	-0.226860927152318	3.23390728476821	63.0278145695364	21.5340397350993				-0.362172185430464	-0.129271523178808	-0.93594701986755	5.60741721854305	0.146490066225167	-0.76026490066225				0.0165298013245033	0.319470198675497	-0.853721854304636	-159.357086092715	-149.33642384106	-122.415629139073				1.30002649006623	0.147496688741722	0.0539337748344371	-0.0482119205298018	31.4119205298013	11.9825165562914				0.143788079470199	-0.0468344370860927	-1.22023841059603	69.7403973509934	-69.8423841059603	123.005298013245			
54	1100	-0.456158940397351	0.306754966887417	-0.631523178807947	-2.48662251655629	25.3353642384106	3.57509933774835				1.07295364238411	0.0797880794701987	-0.290860927152318	-6.84609271523179	88.7878145695364	24.0540397350993				-0.410172185430464	-0.161271523178808	-1.07994701986755	11.767417218543	12.1864900662252	-2.72026490066225				-0.207470198675497	0.367470198675497	-0.917721854304636	-71.9970860927152	-136.73642384106	-84.3356291390729				1.30002649006623	0.259496688741722	0.0859337748344371	10.0317880794702	13.4919205298013	9.74251655629139				0.0797880794701987	-0.126834437086093	-1.04423841059603	61.3403973509934	-68.1623841059603	136.445298013245			
55	1120	-0.328158940397351	0.354754966887417	-0.807523178807947	-5.00662251655629	40.1753642384106	6.09509933774834				1.21695364238411	0.159788079470199	0.0611390728476822	12.1939072847682	123.787814569536	25.4540397350993				-0.442172185430464	-0.129271523178808	-1.20794701986755	20.1674172185431	16.1064900662252	-3.28026490066225				-0.207470198675497	0.383470198675497	-0.837721854304636	-46.5170860927152	-91.6564238410596	-67.5356291390729				1.38002649006623	0.275496688741722	0.101933774834437	36.3517880794702	4.25192052980133	16.4625165562914				0.0157880794701987	-0.286834437086093	-1.02823841059603	44.2603973509934	-78.2423841059603	126.645298013245			
56	1140	-0.376158940397351	0.290754966887417	-0.855523178807947	-8.64662251655629	74.6153642384106	6.37509933774834				1.28095364238411	0.159788079470199	0.0931390728476822	30.1139072847682	121.547814569536	34.6940397350993				-0.506172185430464	-0.0332715231788079	-1.17594701986755	3.64741721854305	33.1864900662252	-5.52026490066225				-0.223470198675497	0.415470198675497	-0.933721854304636	23.4829139072848	-40.4164238410596	-40.0956291390729				1.46002649006623	0.211496688741722	0.309933774834437	50.9117880794702	10.1319205298013	17.3025165562914				0.191788079470199	-0.510834437086093	-1.06023841059603	6.74039735099338	-45.7623841059603	132.245298013245			
57	1160	-0.952158940397351	0.866754966887417	-1.73552317880795	3.67337748344371	72.3753642384106	20.3750993377483				1.48895364238411	0.239788079470199	0.477139072847682	26.7539072847682	135.547814569536	27.9740397350993				-0.554172185430464	-0.00127152317880793	-0.91994701986755	-8.39258278145695	38.7864900662252	-8.32026490066225				0.0645298013245033	0.479470198675497	-1.17372185430464	50.9229139072848	-8.4964238410596	-3.97562913907285				1.39602649006623	0.179496688741722	0.677933774834437	55.1117880794702	1.45192052980132	13.9425165562914				0.447788079470199	-0.590834437086093	-1.04423841059603	-36.6596026490066	-16.3623841059603	137.845298013245			
58	1180	-0.072158940397351	0.162754966887417	0.056476821192053	-3.04662251655629	65.0953642384106	34.3750993377484				1.92095364238411	-0.0802119205298013	0.621139072847682	20.0339072847682	86.5478145695364	29.6540397350993				-0.906172185430464	0.0147284768211921	-0.96794701986755	-3.35258278145695	55.8664900662252	-7.20026490066225				0.256529801324503	0.847470198675497	-1.07772185430464	61.2829139072848	-6.2564238410596	6.38437086092715				1.28402649006623	0.131496688741722	0.869933774834437	41.6717880794702	-2.18807947019868	16.7425165562914				0.383788079470199	-0.798834437086093	-0.740238410596026	-60.4596026490066	16.3976158940397	132.805298013245			
59	1200	-1.03215894039735	0.786754966887417	-0.247523178807947	86.5533774834437	65.0953642384106	32.9750993377484				2.00095364238411	-0.0642119205298013	0.989139072847682	4.35390728476821	79.5478145695364	9.21403973509934				-0.554172185430464	0.142728476821192	-1.23994701986755	11.767417218543	64.8264900662252	1.47973509933775				0.160529801324503	0.719470198675497	-1.49372185430464	91.5229139072848	16.4235761589404	28.2243708609272				1.71602649006623	-0.108503311258278	1.07793377483444	52.8717880794702	27.7719205298013	10.3025165562914				0.399788079470199	-1.05483443708609	-0.788238410596027	-57.3796026490066	76.5976158940397	98.085298013245			
60	1220	-0.312158940397351	0.194754966887417	-0.919523178807947	24.3933774834437	103.455364238411	59.0150993377484				1.72895364238411	-0.272211920529801	1.21313907284768	24.2339072847682	-13.6921854304636	5.57403973509934				-0.170172185430464	-0.401271523178808	-1.27194701986755	53.7674172185431	91.4264900662252	-14.4802649006623				0.336529801324503	0.287470198675497	-1.68572185430464	40.2829139072848	57.8635761589404	53.7043708609272				1.58802649006623	0.0994966887417219	1.07793377483444	-28.0482119205298	-10.0280794701987	-2.85748344370861				0.719788079470199	-0.686834437086093	-1.25223841059603	-71.6596026490066	103.75761589404	56.365298013245			
61	1240	0.263841059602649	0.274754966887417	-1.15952317880795	24.6733774834437	112.975364238411	39.9750993377484				1.45695364238411	-0.0962119205298013	0.429139072847682	11.3539072847682	-36.9321854304636	-7.02596026490066				-0.122172185430464	-0.497271523178808	-1.06394701986755	28.0074172185431	111.306490066225	-21.2002649006623				0.256529801324503	0.351470198675497	-1.39772185430464	40.2829139072848	65.4235761589404	59.8643708609272				1.31602649006623	0.243496688741722	0.437933774834437	-22.4482119205298	-28.2280794701987	5.26251655629139				0.623788079470199	-0.590834437086093	-1.01223841059603	-13.4196026490066	104.59761589404	32.845298013245			
62	1260	-0.040158940397351	0.498754966887417	-1.15952317880795	55.4733774834437	118.295364238411	26.2550993377483				1.26495364238411	0.0157880794701987	0.509139072847682	1.83390728476821	-45.8921854304636	0.81403973509934				-0.0581721854304636	-0.513271523178808	-1.06394701986755	-20.712582781457	126.706490066225	-10.2802649006622				0.144529801324503	0.479470198675497	-1.09372185430464	45.6029139072848	61.7835761589404	53.1443708609272				1.17202649006623	0.0994966887417219	0.469933774834437	14.2317880794702	6.21192052980133	7.22251655629139				0.335788079470199	-0.798834437086093	-0.804238410596027	35.8603973509934	117.47761589404	42.365298013245			
63	1280	0.167841059602649	0.242754966887417	-1.12752317880795	89.9133774834437	132.855364238411	19.8150993377483				1.20095364238411	-0.000211920529801304	0.493139072847682	-2.64609271523179	-69.4121854304636	6.69403973509934				0.101827814569536	-0.0812715231788079	-1.09594701986755	-28.272582781457	140.146490066225	-4.12026490066225				0.176529801324503	0.319470198675497	-1.04572185430464	19.0029139072848	67.9435761589404	70.7843708609272				1.25202649006623	-0.0285033112582781	0.645933774834437	-6.7682119205298	-4.98807947019868	-3.41748344370861				0.143788079470199	-0.686834437086093	-0.820238410596026	30.8203973509934	118.31761589404	27.245298013245			
64	1300	0.279841059602649	0.00275496688741723	-1.07952317880795	57.1533774834437	138.455364238411	16.7350993377483				1.36095364238411	0.0797880794701987	0.317139072847682	0.153907284768212	-66.0521854304636	5.85403973509934				0.197827814569536	-0.145271523178808	-1.04794701986755	-8.11258278145695	146.026490066225	-2.72026490066225				0.000529801324503301	0.0634701986754967	-1.12572185430464	14.2429139072848	113.02357615894	94.0243708609272				1.22002649006623	0.0674966887417219	0.325933774834437	-40.3682119205298	-39.9880794701987	-2.29748344370861				0.191788079470199	-0.366834437086093	-0.964238410596026	-0.259602649006623	147.99761589404	17.725298013245			
65	1320	0.263841059602649	0.0667549668874172	-1.01552317880795	28.0333774834437	154.695364238411	10.8550993377483				1.23295364238411	-0.112211920529801	0.381139072847682	-4.60609271523179	-46.7321854304636	2.77403973509934				0.277827814569536	-0.209271523178808	-0.88794701986755	8.40741721854305	155.826490066225	-10.0002649006623				-0.0314701986754967	0.0474701986754967	-0.997721854304636	55.9629139072848	151.66357615894	77.2243708609272				0.996026490066225	0.00349668874172187	0.0859337748344371	-19.6482119205298	-26.5480794701987	-0.617483443708608				0.479788079470199	-0.254834437086093	-0.932238410596026	-1.93960264900662	156.39761589404	14.085298013245			
66	1340	0.295841059602649	0.0827549668874172	-0.967523178807947	8.43337748344371	163.655364238411	16.1750993377483				1.16895364238411	-0.0802119205298013	0.413139072847682	-4.04609271523179	-65.2121854304636	-1.70596026490066				0.293827814569536	-0.161271523178808	-0.85594701986755	29.6874172185431	160.866490066225	-9.16026490066225				0.144529801324503	0.207470198675497	-0.725721854304636	66.3229139072848	152.22357615894	59.8643708609272				0.980026490066225	-0.124503311258278	0.165933774834437	-0.328211920529802	13.4919205298013	-3.97748344370861				0.463788079470199	-0.286834437086093	-0.868238410596026	20.1803973509934	147.43761589404	0.925298013245032			
67	1360	0.391841059602649	0.0827549668874172	-0.903523178807947	1.15337748344371	168.695364238411	17.2950993377483				0.944953642384106	-0.0482119205298013	0.157139072847682	2.39390728476821	-89.5721854304636	-2.82596026490066				0.325827814569536	-0.241271523178808	-0.79194701986755	44.5274172185431	156.666490066225	-3.28026490066225				0.240529801324503	0.207470198675497	-0.853721854304636	55.9629139072848	134.58357615894	71.9043708609272				0.996026490066225	-0.0445033112582781	0.197933774834437	-19.0882119205298	7.05192052980133	-6.77748344370861				0.287788079470199	-0.254834437086093	-0.708238410596026	23.8203973509934	146.31761589404	-16.714701986755			
68	1380	0.471841059602649	0.0827549668874172	-0.887523178807947	11.5133774834437	171.215364238411	17.0150993377483				0.848953642384106	-0.112211920529801	-0.0508609271523178	-13.2860927152318	-62.4121854304636	0.81403973509934				0.357827814569536	-0.353271523178808	-0.72794701986755	29.6874172185431	151.346490066225	1.75973509933775				0.304529801324503	-0.0965298013245033	-0.949721854304636	53.4429139072848	141.86357615894	73.3043708609272				0.964026490066225	0.00349668874172187	0.117933774834437	-18.2482119205298	-24.0280794701987	-4.25748344370861				0.351788079470199	-0.238834437086093	-0.756238410596026	-1.65960264900662	147.71761589404	-31.834701986755			
69	1400	0.439841059602649	0.00275496688741723	-0.823523178807947	14.8733774834437	167.295364238411	17.0150993377483				0.912953642384106	-0.0802119205298013	-0.00286092715231785	-21.4060927152318	-28.2521854304636	-6.46596026490066				0.405827814569536	-0.353271523178808	-0.66394701986755	15.127417218543	152.186490066225	3.71973509933775				0.432529801324503	0.0314701986754967	-0.757721854304636	62.6829139072848	135.42357615894	38.5843708609272				0.916026490066225	-0.0125033112582781	0.0699337748344371	-18.2482119205298	-36.0680794701987	-3.13748344370861				0.399788079470199	-0.238834437086093	-0.708238410596026	-16.2196026490066	149.67761589404	-31.834701986755			
70	1420	0.423841059602649	-0.0612450331125828	-0.743523178807947	6.19337748344371	159.455364238411	15.8950993377483				0.880953642384106	-0.0322119205298013	0.157139072847682	-16.3660927152318	-34.6921854304636	-6.18596026490066				0.453827814569536	-0.321271523178808	-0.72794701986755	-2.79258278145695	148.546490066225	5.11973509933775				0.464529801324503	0.0474701986754967	-0.725721854304636	64.3629139072848	118.34357615894	32.4243708609272				0.836026490066225	0.0514966887417219	0.0539337748344371	-24.1282119205298	-37.7480794701987	-0.617483443708608				0.495788079470199	-0.206834437086093	-0.772238410596026	-4.17960264900662	149.95761589404	-26.514701986755			
71	1440	0.503841059602649	-0.0292450331125828	-0.743523178807947	-10.6066225165563	150.495364238411	14.2150993377483				0.784953642384106	-0.0482119205298013	0.0131390728476822	-19.7260927152318	-50.9321854304636	-5.34596026490066				0.501827814569536	-0.305271523178808	-0.72794701986755	-25.192582781457	148.546490066225	7.35973509933775				0.304529801324503	-0.0645298013245033	-0.725721854304636	47.8429139072848	107.98357615894	31.8643708609272				0.756026490066225	-0.0125033112582781	0.0699337748344371	-10.6882119205298	-36.6280794701987	1.06251655629139				0.463788079470199	-0.254834437086093	-0.724238410596026	20.7403973509934	125.31761589404	-20.074701986755			
72	1460	0.567841059602649	0.0187549668874172	-0.695523178807947	-18.7266225165563	138.735364238411	11.1350993377483				0.736953642384106	-0.0962119205298013	-0.0988609271523179	-28.6860927152318	-38.0521854304636	0.53403973509934				0.501827814569536	-0.241271523178808	-0.67994701986755	-44.792582781457	152.186490066225	7.63973509933775				0.336529801324503	-0.0805298013245033	-0.805721854304636	31.0429139072848	100.14357615894	18.4243708609272				0.740026490066225	-0.0445033112582781	0.149933774834437	-22.1682119205298	-39.9880794701987	-0.617483443708608				0.527788079470199	-0.430834437086093	-0.596238410596026	6.46039735099338	117.47761589404	-19.794701986755			
73	1480	0.631841059602649	0.0827549668874172	-0.583523178807947	-3.32662251655629	133.135364238411	10.8550993377483				0.784953642384106	-0.0482119205298013	0.0451390728476822	-28.4060927152318	-17.0521854304636	3.05403973509934				0.517827814569536	-0.113271523178808	-0.63194701986755	-60.472582781457	154.146490066225	3.99973509933775				0.432529801324503	-0.0325298013245033	-0.773721854304636	57.9229139072848	100.70357615894	8.62437086092715				0.804026490066225	-0.0125033112582781	0.101933774834437	-29.7282119205298	-60.9880794701987	5.54251655629139				0.671788079470199	-0.414834437086093	-0.548238410596027	-19.0196026490066	122.51761589404	-21.194701986755			
74	1500	0.567841059602649	0.0507549668874172	-0.599523178807947	9.27337748344371	134.535364238411	12.5350993377483				0.768953642384106	-0.000211920529801304	0.221139072847682	-24.4860927152318	-22.0921854304636	-3.94596026490066				0.501827814569536	-0.0332715231788079	-0.56794701986755	-74.472582781457	153.866490066225	2.03973509933775				0.464529801324503	-0.112529801324503	-0.757721854304636	55.1229139072848	79.4235761589404	1.06437086092715				0.740026490066225	0.0194966887417219	-0.0900662251655629	-22.1682119205298	-61.8280794701987	9.18251655629139				0.799788079470199	-0.158834437086093	-0.628238410596026	-44.4996026490066	117.19761589404	-20.634701986755			
75	1520	0.567841059602649	0.0347549668874172	-0.535523178807947	12.6333774834437	134.535364238411	11.9750993377483				0.656953642384106	-0.0482119205298013	0.0931390728476822	-19.4460927152318	-57.0921854304636	-3.10596026490066				0.501827814569536	0.142728476821192	-0.58394701986755	-62.992582781457	151.346490066225	-5.52026490066225				0.432529801324503	-0.112529801324503	-0.629721854304636	16.7629139072848	54.2235761589404	-8.17562913907285				0.612026490066225	0.0834966887417219	0.0379337748344371	-17.4082119205298	-29.9080794701987	6.38251655629139				0.527788079470199	-0.0148344370860927	-0.564238410596026	-28.5396026490066	90.0376158940397	-10.554701986755			
76	1540	0.615841059602649	-0.0292450331125828	-0.471523178807947	8.43337748344371	135.935364238411	8.33509933774834				0.608953642384106	0.0477880794701987	-0.130860927152318	-27.0060927152318	-45.0521854304636	-0.30596026490066				0.597827814569536	0.110728476821192	-0.51994701986755	-48.152582781457	160.306490066225	-8.32026490066225				0.416529801324503	-0.0645298013245033	-0.517721854304636	7.80291390728477	41.9035761589404	-3.13562913907285				0.580026490066225	0.0194966887417219	0.101933774834437	-13.7682119205298	-36.6280794701987	11.4225165562914				0.447788079470199	-0.142834437086093	-0.452238410596026	2.26039735099338	67.6376158940397	-10.554701986755			
77	1560	0.599841059602649	0.0187549668874172	-0.471523178807947	4.23337748344371	140.135364238411	11.4150993377483				0.640953642384106	0.111788079470199	-0.0828609271523179	-25.6060927152318	-27.6921854304636	4.45403973509934				0.629827814569536	0.0947284768211921	-0.39194701986755	-41.992582781457	156.106490066225	-14.4802649006623				0.384529801324503	-0.0805298013245033	-0.517721854304636	4.44291390728477	38.8235761589404	3.30437086092715				0.644026490066225	0.0514966887417219	0.00593377483443711	-20.7682119205298	-42.5080794701987	8.06251655629139				0.479788079470199	-0.302834437086093	-0.452238410596026	-5.01960264900662	51.6776158940397	-12.514701986755			
78	1580	0.711841059602649	0.0667549668874172	-0.407523178807947	-12.5666225165563	142.935364238411	12.8150993377483				0.592953642384106	0.0637880794701987	0.0291390728476822	-23.9260927152318	-22.3721854304636	5.29403973509934				0.629827814569536	0.0947284768211921	-0.40794701986755	-41.152582781457	156.106490066225	-9.16026490066225				0.288529801324503	0.0154701986754967	-0.501721854304636	6.12291390728477	43.0235761589404	0.224370860927152				0.660026490066225	0.0354966887417219	-0.0260662251655629	-21.3282119205298	-53.9880794701987	8.90251655629139				0.543788079470199	-0.222834437086093	-0.468238410596026	-12.5796026490066	56.1576158940397	-10.834701986755			
79	1600	0.711841059602649	0.0827549668874172	-0.359523178807947	-13.9666225165563	137.335364238411	17.2950993377483				0.592953642384106	-0.0482119205298013	0.0131390728476822	-14.9660927152318	-22.6521854304636	3.05403973509934				0.645827814569536	0.0307284768211921	-0.31194701986755	-47.032582781457	154.426490066225	-15.0402649006623				0.272529801324503	0.0474701986754967	-0.485721854304636	15.0829139072848	42.4635761589404	-5.93562913907285				0.580026490066225	0.0514966887417219	-0.0580662251655629	-14.8882119205298	-42.2280794701987	12.2625165562914				0.495788079470199	0.0331655629139073	-0.516238410596026	-32.1796026490066	33.1976158940397	-15.314701986755			
80	1620	0.583841059602649	0.114754966887417	-0.375523178807947	-16.7666225165563	131.735364238411	24.0150993377483				0.560953642384106	0.0317880794701987	-0.0348609271523178	-19.7260927152318	-18.4521854304636	-1.70596026490066				0.565827814569536	0.0147284768211921	-0.27994701986755	-48.432582781457	158.906490066225	-17.0002649006623				0.304529801324503	0.0154701986754967	-0.469721854304636	31.8829139072848	37.1435761589404	-13.4956291390728				0.516026490066225	0.0514966887417219	-0.0100662251655629	-1.4482119205298	-27.9480794701987	9.74251655629139				0.367788079470199	0.113165562913907	-0.436238410596026	-27.1396026490066	24.5176158940397	-20.074701986755			
81	1640	0.615841059602649	0.194754966887417	-0.343523178807947	-15.0866225165563	138.455364238411	24.5750993377483				0.480953642384106	0.207788079470199	0.0611390728476822	-10.4860927152318	-8.09218543046358	-3.10596026490066				0.629827814569536	-0.0812715231788079	-0.32794701986755	-41.712582781457	164.226490066225	-15.0402649006623				0.352529801324503	-0.0805298013245033	-0.437721854304636	33.0029139072848	36.5835761589404	-19.3756291390728				0.500026490066225	0.0834966887417219	0.00593377483443711	-11.5282119205298	-34.6680794701987	8.62251655629139				0.319788079470199	0.00116556291390731	-0.404238410596026	-23.4996026490066	25.0776158940397	-18.954701986755			
82	1660	0.743841059602649	0.226754966887417	-0.311523178807947	-10.6066225165563	127.815364238411	15.3350993377483				0.496953642384106	-0.000211920529801304	0.0451390728476822	-7.68609271523179	-14.2521854304636	4.17403973509934				0.517827814569536	-0.257271523178808	-0.32794701986755	-34.712582781457	140.986490066225	-11.1202649006623				0.336529801324503	-0.112529801324503	-0.405721854304636	16.2029139072848	31.5435761589404	-17.1356291390729				0.484026490066225	0.0514966887417219	-0.0740662251655629	-2.2882119205298	-37.7480794701987	4.98251655629139				0.415788079470199	0.0331655629139073	-0.404238410596026	-1.37960264900662	20.5976158940397	-21.754701986755			
83	1680	0.727841059602649	0.210754966887417	-0.279523178807947	-3.88662251655629	105.975364238411	12.8150993377483				0.480953642384106	-0.160211920529801	0.0291390728476822	-16.6460927152318	0.587814569536424	5.57403973509934				0.629827814569536	-0.257271523178808	-0.27994701986755	-36.952582781457	99.2664900662252	-3.28026490066225				0.352529801324503	-0.112529801324503	-0.389721854304636	30.4829139072848	30.9835761589404	-10.4156291390728				0.484026490066225	-0.0125033112582781	-0.0900662251655629	2.1917880794702	-28.2280794701987	7.78251655629139				0.559788079470199	0.0331655629139073	-0.404238410596026	0.300397350993377	13.0376158940397	-29.874701986755			
84	1700	0.647841059602649	0.242754966887417	-0.263523178807947	5.63337748344371	102.895364238411	14.2150993377483				0.496953642384106	0.0637880794701987	0.0451390728476822	-23.3660927152318	6.18781456953642	-2.54596026490066				0.757827814569536	-0.0172715231788079	-0.37594701986755	-57.392582781457	72.9464900662252	1.19973509933775				0.416529801324503	-0.128529801324503	-0.453721854304636	49.8029139072848	32.9435761589404	-8.17562913907285				0.564026490066225	-0.0285033112582781	0.0379337748344371	-1.1682119205298	-14.2280794701987	8.06251655629139				0.479788079470199	-0.110834437086093	-0.420238410596026	5.34039735099338	10.5176158940397	-34.914701986755			
85	1720	0.775841059602649	0.0827549668874172	-0.359523178807947	-14.8066225165563	91.4153642384106	11.6950993377483				0.624953642384106	0.0957880794701987	0.109139072847682	-9.36609271523179	12.3478145695364	-1.98596026490066				0.677827814569536	0.0947284768211921	-0.35994701986755	-56.832582781457	68.7464900662252	0.0797350993377501				0.448529801324503	-0.160529801324503	-0.533721854304636	49.5229139072848	34.9035761589404	-4.53562913907285				0.660026490066225	0.0194966887417219	0.0219337748344371	-1.1682119205298	-11.4280794701987	6.38251655629139				0.463788079470199	-0.206834437086093	-0.452238410596026	7.02039735099338	7.43761589403974	-38.834701986755			
86	1740	0.919841059602649	0.178754966887417	-0.359523178807947	-17.8866225165563	62.5753642384106	8.33509933774834				0.752953642384106	-0.0482119205298013	0.0611390728476822	-2.08609271523179	14.0278145695364	0.81403973509934				0.789827814569536	0.190728476821192	-0.29594701986755	-22.392582781457	72.9464900662252	-0.76026490066225				0.560529801324503	-0.192529801324503	-0.549721854304636	48.6829139072848	39.6635761589404	-0.0556291390728476				0.708026490066225	-0.0445033112582781	-0.0100662251655629	-0.0482119205298018	-11.9880794701987	4.42251655629139				0.527788079470199	-0.190834437086093	-0.436238410596026	-1.93960264900662	2.39761589403974	-34.354701986755			
87	1760	0.871841059602649	0.194754966887417	-0.327523178807947	-13.1266225165563	54.1753642384106	4.41509933774834				0.784953642384106	0.0157880794701987	0.0771390728476822	0.153907284768212	14.5878145695364	-5.90596026490066				0.917827814569536	0.206728476821192	-0.32794701986755	5.88741721854305	46.3464900662252	-3.56026490066225				0.704529801324503	-0.192529801324503	-0.597721854304636	45.8829139072848	39.6635761589404	-1.17562913907285				0.804026490066225	0.00349668874172187	-0.0260662251655629	-3.6882119205298	-11.1480794701987	0.782516556291392				0.639788079470199	-0.190834437086093	-0.436238410596026	-1.37960264900662	2.67761589403974	-30.434701986755			
88	1780	0.903841059602649	0.146754966887417	-0.375523178807947	4.23337748344371	49.6953642384106	4.41509933774834				0.864953642384106	0.0957880794701987	0.0931390728476822	13.0339072847682	16.8278145695364	-5.06596026490066				0.901827814569536	0.126728476821192	-0.42394701986755	26.8874172185431	20.8664900662252	-2.44026490066225				0.752529801324503	-0.176529801324503	-0.645721854304636	35.8029139072848	28.4635761589404	-0.335629139072848				0.836026490066225	0.0674966887417219	0.0219337748344371	-2.8482119205298	-3.30807947019868	-2.01748344370861				0.671788079470199	-0.174834437086093	-0.516238410596026	-1.37960264900662	1.83761589403974	-26.234701986755			
89	1800	0.903841059602649	0.0667549668874172	-0.279523178807947	14.3133774834437	33.4553642384106	3.01509933774834				0.960953642384106	-0.0162119205298013	0.0451390728476822	16.6739072847682	8.14781456953643	-3.10596026490066				0.949827814569536	0.0627284768211921	-0.55194701986755	36.1274172185431	14.1464900662252	2.31973509933775				0.752529801324503	-0.208529801324503	-0.725721854304636	30.2029139072848	15.3035761589404	3.58437086092715				0.868026490066225	0.00349668874172187	0.00593377483443711	6.1117880794702	-3.02807947019868	-2.01748344370861				0.687788079470199	-0.126834437086093	-0.532238410596027	8.42039735099338	9.39761589403974	-21.754701986755			
90	1820	0.935841059602649	-0.0772450331125828	-0.231523178807947	17.9533774834437	30.3753642384106	4.13509933774834				0.944953642384106	-0.0482119205298013	0.0291390728476822	10.7939072847682	5.90781456953642	-6.46596026490066				0.997827814569536	-0.0332715231788079	-0.48794701986755	19.8874172185431	26.1864900662252	-0.48026490066225				0.880529801324503	-0.224529801324503	-0.757721854304636	13.1229139072848	12.5035761589404	0.224370860927152				0.980026490066225	-0.0605033112582781	-0.0100662251655629	9.7517880794702	-1.34807947019868	-5.09748344370861				0.799788079470199	-0.142834437086093	-0.548238410596027	7.02039735099338	5.75761589403974	-22.314701986755			
91	1840	0.951841059602649	-0.109245033112583	-0.263523178807947	6.47337748344371	28.9753642384106	2.45509933774835				1.05695364238411	-0.000211920529801304	0.0611390728476822	8.83390728476821	8.14781456953643	-5.06596026490066				1.01382781456954	-0.0812715231788079	-0.37594701986755	10.087417218543	20.5864900662252	-2.44026490066225				0.864529801324503	-0.224529801324503	-0.693721854304636	5.56291390728477	8.5835761589404	-7.61562913907285				1.02802649006623	0.0194966887417219	-0.0260662251655629	8.3517880794702	3.41192052980132	-7.05748344370861				0.863788079470199	-0.174834437086093	-0.516238410596026	6.18039735099338	-2.08238410596027	-28.194701986755			
92	1860	0.935841059602649	-0.0612450331125828	-0.199523178807947	-0.526622516556291	34.2953642384106	1.89509933774834				1.02495364238411	0.0157880794701987	0.0931390728476822	12.4739072847682	-11.1721854304636	-6.74596026490066				0.965827814569536	-0.113271523178808	-0.26394701986755	17.3674172185431	6.58649006622517	-1.88026490066225				0.784529801324503	-0.144529801324503	-0.677721854304636	3.60291390728477	-4.2964238410596	-5.93562913907285				1.02802649006623	0.0194966887417219	-0.0100662251655629	9.1917880794702	5.09192052980133	-7.33748344370861				0.847788079470199	-0.190834437086093	-0.548238410596027	-2.21960264900662	4.07761589403974	-30.154701986755			
93	1880	0.951841059602649	0.0507549668874172	-0.215523178807947	-0.246622516556291	29.5353642384106	1.05509933774834				1.00895364238411	-0.0322119205298013	-0.0668609271523178	13.8739072847682	-28.5321854304636	-3.66596026490066				0.901827814569536	-0.0652715231788079	-0.21594701986755	20.447417218543	4.62649006622517	-0.76026490066225				0.752529801324503	-0.0965298013245033	-0.645721854304636	4.44291390728477	-12.6964238410596	-2.57562913907285				1.01202649006623	0.00349668874172187	0.00593377483443711	9.1917880794702	0.611920529801325	-7.89748344370861				0.799788079470199	-0.206834437086093	-0.532238410596027	7.86039735099338	-2.36238410596027	-26.794701986755			
94	1900	0.967841059602649	0.0827549668874172	-0.231523178807947	7.87337748344371	30.0953642384106	-0.0649006622516557				0.960953642384106	0.0157880794701987	-0.0988609271523179	14.1539072847682	-19.8521854304636	-5.62596026490066				0.885827814569536	-0.0492715231788079	-0.19994701986755	14.847417218543	14.7064900662252	0.0797350993377501				0.736529801324503	-0.160529801324503	-0.677721854304636	10.8829139072848	-21.0964238410596	-1.73562913907285				1.01202649006623	0.00349668874172187	-0.0420662251655629	10.8717880794702	-4.70807947019868	-6.49748344370861				0.879788079470199	-0.190834437086093	-0.516238410596026	3.94039735099338	-0.122384105960265	-25.674701986755			
95	1920	0.935841059602649	0.0507549668874172	-0.151523178807947	20.1933774834437	23.6553642384106	-2.86490066225166				0.976953642384106	0.0477880794701987	0.0131390728476822	12.7539072847682	-4.45218543046358	-4.78596026490066				0.901827814569536	-0.0172715231788079	-0.19994701986755	21.0074172185431	19.4664900662252	-2.16026490066225				0.752529801324503	-0.176529801324503	-0.693721854304636	12.5629139072848	-20.5364238410596	-2.85562913907285				0.996026490066225	0.0514966887417219	-0.0260662251655629	15.0717880794702	-4.70807947019868	-3.69748344370861				0.911788079470199	-0.190834437086093	-0.548238410596027	3.94039735099338	-6.28238410596027	-24.274701986755			
96	1940	0.919841059602649	-0.0132450331125828	-0.135523178807947	29.4333774834437	29.2553642384106	-0.904900662251656				0.992953642384106	-0.0162119205298013	0.109139072847682	24.2339072847682	-2.49218543046358	-0.585960264900661				0.917827814569536	0.0147284768211921	-0.15194701986755	22.127417218543	21.1464900662252	-3.56026490066225				0.720529801324503	-0.160529801324503	-0.725721854304636	11.1629139072848	-25.5764238410596	-2.85562913907285				0.964026490066225	0.0354966887417219	-0.0740662251655629	19.8317880794702	-13.9480794701987	-0.617483443708608				0.815788079470199	-0.174834437086093	-0.596238410596026	3.38039735099338	-1.24238410596026	-21.754701986755			
97	1960	0.983841059602649	-0.0612450331125828	-0.167523178807947	28.8733774834437	27.0153642384106	1.05509933774834				0.992953642384106	-0.0802119205298013	0.109139072847682	20.5939072847682	14.5878145695364	1.65403973509934				0.997827814569536	-0.0652715231788079	-0.18394701986755	20.727417218543	22.5464900662252	-0.20026490066225				0	0	0	0	0	0				0	0	0	0	0	0				0	0	0	0	0	0			
98	1980	0	0	0	0	0	0				1.00895364238411	-0.000211920529801304	0.173139072847682	14.9939072847682	14.5878145695364	2.49403973509934				1.01382781456954	-0.177271523178808	-0.23194701986755	20.727417218543	20.5864900662252	1.75973509933775				0	0	0	0	0	0				0	0	0	0	0	0				0	0	0	0	0	0			
99	2000	0.951841059602649	0.0187549668874172	-0.135523178807947	12.9133774834437	20.8553642384106	-1.46490066225166				0.960953642384106	-0.000211920529801304	0.0611390728476822	16.6739072847682	4.22781456953642	8.93403973509934				0.997827814569536	-0.225271523178808	-0.21594701986755	8.12741721854305	17.7864900662252	2.87973509933775				0.672529801324503	-0.192529801324503	-0.677721854304636	-10.9570860927152	-25.0164238410596	-13.4956291390728				0.964026490066225	0.00349668874172187	-0.0420662251655629	12.8317880794702	1.17192052980133	-4.81748344370861				0.879788079470199	-0.158834437086093	-0.548238410596027	14.8603973509934	-17.4823841059603	-8.03470198675497			
100	2020	0.919841059602649	0.0187549668874172	-0.087523178807947	10.6733774834437	16.0953642384106	-2.02490066225166				0.896953642384106	-0.0482119205298013	0.0131390728476822	11.0739072847682	0.307814569536424	8.09403973509934				0.933827814569536	-0.129271523178808	-0.10394701986755	1.12741721854305	9.94649006622517	1.75973509933775				0.608529801324503	-0.160529801324503	-0.645721854304636	-8.15708609271523	-16.3364238410596	-11.8156291390728				0.996026490066225	0.00349668874172187	-0.0100662251655629	12.2717880794702	6.49192052980132	-3.41748344370861				0.879788079470199	-0.174834437086093	-0.516238410596026	14.0203973509934	-22.2423841059603	-11.114701986755			
101	2040	0.935841059602649	-0.0132450331125828	-0.119523178807947	7.59337748344371	10.4953642384106	-1.74490066225166				0.912953642384106	-0.0482119205298013	0.0131390728476822	10.7939072847682	6.18781456953642	8.09403973509934				0.933827814569536	-0.0172715231788079	-0.0559470198675496	11.207417218543	6.58649006622517	0.0797350993377501				0.560529801324503	-0.0805298013245033	-0.645721854304636	1.64291390728477	-16.0564238410596	-9.57562913907285				0.948026490066225	0.00349668874172187	0.00593377483443711	11.9917880794702	7.89192052980133	-2.29748344370861				0.767788079470199	-0.190834437086093	-0.500238410596026	12.6203973509934	-18.3223841059603	-9.99470198675497			
102	2060	0.967841059602649	-0.0132450331125828	-0.087523178807947	6.75337748344371	9.3753642384106	-2.58490066225166				0.992953642384106	-0.0482119205298013	0.0451390728476822	7.15390728476821	1.70781456953642	4.73403973509934				0.949827814569536	0.0307284768211921	-0.10394701986755	12.607417218543	6.58649006622517	-2.44026490066225				0.560529801324503	-0.0965298013245033	-0.629721854304636	3.88291390728477	-16.0564238410596	-10.4156291390728				0.932026490066225	-0.0125033112582781	0.00593377483443711	10.3117880794702	2.85192052980133	0.502516556291392				0.735788079470199	-0.222834437086093	-0.468238410596026	15.1403973509934	-11.3223841059603	-3.83470198675497			
103	2080	0.967841059602649	0.00275496688741723	-0.103523178807947	3.95337748344371	5.7353642384106	-2.86490066225166				1.00895364238411	-0.0162119205298013	0.0771390728476822	-2.36609271523179	0.0278145695364242	2.49403973509934				0.981827814569536	-0.00127152317880793	-0.10394701986755	9.52741721854305	10.2264900662252	-3.56026490066225				0.624529801324503	-0.160529801324503	-0.645721854304636	7.80291390728477	-9.3364238410596	-9.85562913907285				0.932026490066225	-0.0125033112582781	-0.0100662251655629	4.9917880794702	2.29192052980133	2.18251655629139				0.799788079470199	-0.206834437086093	-0.484238410596026	15.1403973509934	-10.7623841059603	-3.83470198675497			
104	2100	0.967841059602649	0.00275496688741723	-0.135523178807947	-0.246622516556291	5.4553642384106	-2.86490066225166				0.976953642384106	-0.000211920529801304	0.0931390728476822	1.83390728476821	-8.65218543046358	0.25403973509934				0.965827814569536	-0.0492715231788079	-0.15194701986755	5.88741721854305	12.1864900662252	-4.40026490066225				0.624529801324503	-0.144529801324503	-0.709721854304636	-0.597086092715232	-5.6964238410596	-10.4156291390728				0.932026490066225	0.00349668874172187	0.0379337748344371	3.8717880794702	6.77192052980133	-0.0574834437086077				0.815788079470199	-0.190834437086093	-0.500238410596026	12.6203973509934	-12.1623841059603	-4.67470198675497			
105	2120	0.967841059602649	0.0507549668874172	-0.151523178807947	-2.20662251655629	0.415364238410596	-2.86490066225166				0.880953642384106	0.0477880794701987	0.0611390728476822	-9.36609271523179	-13.1321854304636	-2.54596026490066				0.901827814569536	-0.0812715231788079	-0.16794701986755	8.12741721854305	10.5064900662252	-2.72026490066225				0.608529801324503	-0.112529801324503	-0.709721854304636	2.20291390728477	-1.7764238410596	-11.5356291390728				0.916026490066225	0.0354966887417219	0.0539337748344371	-0.0482119205298018	10.6919205298013	-1.17748344370861				0.783788079470199	-0.190834437086093	-0.452238410596026	7.58039735099338	-11.6023841059603	-1.87470198675497			
106	2140	0.935841059602649	0.0987549668874172	-0.087523178807947	-5.84662251655629	-1.2646357615894	-1.18490066225166				0.976953642384106	-0.0162119205298013	0.173139072847682	4.35390728476821	2.82781456953642	1.93403973509934				0.949827814569536	-0.0812715231788079	-0.15194701986755	3.64741721854305	7.70649006622517	-1.04026490066225				0.656529801324503	-0.0805298013245033	-0.629721854304636	1.36291390728477	-4.8564238410596	-9.01562913907285				0.948026490066225	0.0674966887417219	0.00593377483443711	1.9117880794702	10.4119205298013	-0.897483443708608				0.703788079470199	-0.190834437086093	-0.452238410596026	8.70039735099338	-6.00238410596027	1.48529801324503			
107	2160	0.951841059602649	0.0827549668874172	-0.151523178807947	-1.92662251655629	-3.2246357615894	-1.46490066225166				0.992953642384106	-0.000211920529801304	0.0771390728476822	4.91390728476821	-0.532185430463576	1.09403973509934				0.997827814569536	-0.0172715231788079	-0.19994701986755	3.64741721854305	5.18649006622517	-0.48026490066225				0.688529801324503	-0.128529801324503	-0.709721854304636	0.802913907284768	-2.0564238410596	-3.97562913907285				0.932026490066225	0.0354966887417219	0.0219337748344371	-0.0482119205298018	2.29192052980133	-1.45748344370861				0.751788079470199	-0.142834437086093	-0.452238410596026	5.06039735099338	-6.00238410596027	-1.03470198675497			
108	2180	0.999841059602649	0.0347549668874172	-0.167523178807947	4.79337748344371	-2.9446357615894	-2.86490066225166				0.992953642384106	0.0157880794701987	0.0611390728476822	6.03390728476821	-0.252185430463576	-0.30596026490066				0.997827814569536	0.0307284768211921	-0.26394701986755	2.80741721854305	2.38649006622517	-1.32026490066225				0.688529801324503	-0.192529801324503	-0.805721854304636	-6.19708609271523	6.6235761589404	-4.25562913907285				0.916026490066225	0.0354966887417219	0.0379337748344371	-0.608211920529802	5.37192052980133	-3.13748344370861				0.815788079470199	-0.110834437086093	-0.452238410596026	7.58039735099338	-13.5623841059603	-8.59470198675497			
109	2200	0.967841059602649	0.00275496688741723	-0.167523178807947	8.71337748344371	-3.2246357615894	-4.26490066225166				0.976953642384106	-0.000211920529801304	0.141139072847682	6.59390728476821	-4.45218543046358	-0.86596026490066				0.949827814569536	0.0307284768211921	-0.23194701986755	12.887417218543	-0.133509933774833	-3.00026490066225				0.640529801324503	-0.128529801324503	-0.741721854304636	-12.9170860927152	1.0235761589404	-10.4156291390728				0.948026490066225	0.0354966887417219	0.0379337748344371	0.791788079470198	14.3319205298013	-3.97748344370861				0.831788079470199	-0.158834437086093	-0.548238410596027	-4.73960264900662	-7.40238410596027	-10.554701986755			
110	2220	0.903841059602649	0.0187549668874172	-0.151523178807947	5.91337748344371	-9.38463576158941	-2.86490066225166				0.960953642384106	-0.000211920529801304	0.0451390728476822	6.31390728476821	-13.9721854304636	-1.42596026490066				0.933827814569536	0.0147284768211921	-0.23194701986755	12.607417218543	-2.09350993377483	-4.12026490066225				0.608529801324503	-0.0325298013245033	-0.629721854304636	-15.9970860927152	-12.9764238410596	-9.85562913907285				0.980026490066225	0.0514966887417219	0.0219337748344371	-1.7282119205298	14.3319205298013	-4.81748344370861				0.767788079470199	-0.190834437086093	-0.564238410596026	9.26039735099338	-11.0423841059603	-7.47470198675497			
111	2240	0.919841059602649	0.0347549668874172	-0.151523178807947	0.593377483443709	-6.3046357615894	1.05509933774834				0.976953642384106	0.0157880794701987	-0.0348609271523178	4.91390728476821	-10.3321854304636	0.81403973509934				0.933827814569536	-0.0172715231788079	-0.19994701986755	12.327417218543	0.706490066225167	-6.08026490066225				0.656529801324503	-0.0645298013245033	-0.661721854304636	-14.3170860927152	-17.1764238410596	-0.0556291390728476				0.948026490066225	0.0514966887417219	0.0219337748344371	-3.4082119205298	5.93192052980133	-1.73748344370861				0.735788079470199	-0.206834437086093	-0.516238410596026	1.14039735099338	-4.88238410596027	-4.11470198675497			
112	2260	0.967841059602649	0.00275496688741723	-0.199523178807947	-0.526622516556291	-2.3846357615894	0.775099337748344				1.02495364238411	-0.0162119205298013	-0.0508609271523178	2.11390728476821	-8.37218543046358	0.53403973509934				0.965827814569536	-0.0332715231788079	-0.23194701986755	15.127417218543	-0.413509933774833	-6.92026490066225				0.640529801324503	-0.112529801324503	-0.709721854304636	-15.7170860927152	-11.5764238410596	2.74437086092715				0.964026490066225	0.0194966887417219	0.0219337748344371	1.3517880794702	3.13192052980133	-0.337483443708608				0.767788079470199	-0.206834437086093	-0.516238410596026	-2.21960264900662	-3.48238410596027	-2.71470198675497			
113	2280	0.967841059602649	0.0347549668874172	-0.231523178807947	4.51337748344371	0.415364238410596	-2.02490066225166				1.02495364238411	-0.000211920529801304	0.0131390728476822	0.153907284768212	-11.1721854304636	-1.70596026490066				0.949827814569536	-0.0172715231788079	-0.23194701986755	3.92741721854305	1.54649006622517	-6.08026490066225				0.608529801324503	-0.112529801324503	-0.645721854304636	-11.5170860927152	-5.9764238410596	2.18437086092715				0.964026490066225	0.00349668874172187	0.0539337748344371	1.9117880794702	6.77192052980133	-1.17748344370861				0.767788079470199	-0.206834437086093	-0.564238410596026	-1.09960264900662	-5.72238410596027	0.645298013245032			
114	2300	0.951841059602649	0.0347549668874172	-0.247523178807947	4.23337748344371	-3.5046357615894	-2.58490066225166				0.976953642384106	0.0157880794701987	0.0131390728476822	-0.686092715231788	-18.1721854304636	-2.54596026490066				0.949827814569536	-0.0172715231788079	-0.24794701986755	3.92741721854305	-0.133509933774833	-4.96026490066225				0.624529801324503	-0.0485298013245033	-0.661721854304636	-2.27708609271523	-6.2564238410596	4.70437086092715				0.996026490066225	0.0194966887417219	-0.0100662251655629	-3.6882119205298	-1.90807947019868	-2.29748344370861				0.751788079470199	-0.222834437086093	-0.532238410596027	-3.61960264900662	-5.16238410596027	4.00529801324503			
115	2320	0.935841059602649	0.0667549668874172	-0.199523178807947	-1.92662251655629	-2.9446357615894	-1.46490066225166				0.976953642384106	0.0317880794701987	-0.0348609271523178	1.83390728476821	-17.0521854304636	-0.86596026490066				0.949827814569536	-0.0492715231788079	-0.19994701986755	10.087417218543	2.66649006622517	-4.40026490066225				0.640529801324503	-0.0965298013245033	-0.773721854304636	-8.15708609271523	-6.8164238410596	3.86437086092715				0.980026490066225	0.0194966887417219	-0.0100662251655629	-9.5682119205298	-6.94807947019868	-2.57748344370861				0.751788079470199	-0.158834437086093	-0.500238410596026	-6.97960264900662	0.717615894039735	6.80529801324503			
116	2340	0.935841059602649	0.0507549668874172	-0.183523178807947	4.51337748344371	-1.5446357615894	-2.30490066225166				0.992953642384106	-0.000211920529801304	-0.0988609271523179	-4.60609271523179	-16.7721854304636	0.53403973509934				0.965827814569536	-0.0332715231788079	-0.18394701986755	4.76741721854305	3.78649006622517	-3.56026490066225				0.592529801324503	-0.160529801324503	-0.789721854304636	-6.19708609271523	-0.6564238410596	1.34437086092715				0.980026490066225	0.00349668874172187	0.00593377483443711	-5.3682119205298	-5.54807947019868	-2.57748344370861				0.783788079470199	-0.110834437086093	-0.532238410596027	-10.0596026490066	4.35761589403974	3.44529801324503			
117	2360	0.951841059602649	-0.0132450331125828	-0.167523178807947	4.79337748344371	2.6553642384106	-1.46490066225166				1.00895364238411	-0.0162119205298013	-0.0828609271523179	-9.92609271523179	-13.1321854304636	-3.38596026490066				0.965827814569536	-0.0332715231788079	-0.18394701986755	-4.19258278145695	2.10649006622517	-2.72026490066225				0.624529801324503	-0.0805298013245033	-0.741721854304636	-8.99708609271523	-1.4964238410596	-4.81562913907285				0.980026490066225	-0.0125033112582781	0.00593377483443711	-5.6482119205298	-3.58807947019868	-2.29748344370861				0.783788079470199	-0.126834437086093	-0.548238410596027	-1.65960264900662	-1.80238410596026	-4.39470198675497			
118	2380	0.967841059602649	-0.0292450331125828	-0.167523178807947	1.71337748344371	4.3353642384106	-2.58490066225166				0.992953642384106	-0.000211920529801304	-0.0668609271523178	-11.8860927152318	-13.1321854304636	-5.34596026490066				0.965827814569536	-0.0492715231788079	-0.18394701986755	-0.272582781456954	3.22649006622517	-1.88026490066225				0.640529801324503	-0.0325298013245033	-0.709721854304636	-12.0770860927152	-10.7364238410596	-6.21562913907285				1.01202649006623	0.0354966887417219	-0.0420662251655629	-9.0082119205298	-8.34807947019868	-2.01748344370861				0.767788079470199	-0.158834437086093	-0.532238410596027	-8.65960264900662	1.55761589403974	-8.31470198675497			
119	2400	0.951841059602649	0.0187549668874172	-0.167523178807947	-5.56662251655629	0.975364238410596	-2.58490066225166				0.960953642384106	0.0317880794701987	-0.0668609271523178	-10.4860927152318	-13.1321854304636	-3.66596026490066				0.949827814569536	-0.0332715231788079	-0.16794701986755	-2.23258278145695	6.86649006622517	-2.72026490066225				0.640529801324503	-0.0645298013245033	-0.741721854304636	-1.15708609271523	-13.2564238410596	-2.85562913907285				1.01202649006623	0.0834966887417219	-0.0580662251655629	-9.0082119205298	-13.6680794701987	-1.73748344370861				0.767788079470199	-0.110834437086093	-0.580238410596026	-9.77960264900662	4.35761589403974	-10.274701986755			
120	2420	0.935841059602649	0.0507549668874172	-0.151523178807947	-9.20662251655629	-0.424635761589404	-2.58490066225166				1.02495364238411	0.0317880794701987	-0.0508609271523178	-9.64609271523179	-11.7321854304636	-0.30596026490066				0.997827814569536	-0.0332715231788079	-0.16794701986755	-5.59258278145695	6.58649006622517	-2.16026490066225				0.624529801324503	-0.0965298013245033	-0.773721854304636	-2.55708609271523	-10.7364238410596	-2.57562913907285				0.948026490066225	0.0994966887417219	-0.0420662251655629	-5.0882119205298	-14.5080794701987	-0.617483443708608				0.799788079470199	-0.0788344370860927	-0.580238410596026	-12.8596026490066	9.39761589403974	-6.07470198675497			
121	2440	0.967841059602649	0.0667549668874172	-0.135523178807947	-2.76662251655629	2.6553642384106	-2.58490066225166				0.992953642384106	0.0317880794701987	-0.0508609271523178	-8.52609271523179	-13.1321854304636	2.77403973509934				0.965827814569536	-0.0332715231788079	-0.18394701986755	-4.47258278145695	6.02649006622517	-2.16026490066225				0.576529801324503	-0.0965298013245033	-0.741721854304636	-3.95708609271523	-6.8164238410596	-4.53562913907285				0.932026490066225	0.0354966887417219	-0.0260662251655629	-0.608211920529802	-10.0280794701987	-0.0574834437086077				0.767788079470199	-0.0628344370860927	-0.596238410596026	-5.85960264900662	4.35761589403974	-3.27470198675497			
122	2460	0.967841059602649	0.0347549668874172	-0.135523178807947	3.39337748344371	4.6153642384106	-2.58490066225166				0.992953642384106	0.0477880794701987	-0.0348609271523178	-9.36609271523179	-5.29218543046358	3.61403973509934				0.965827814569536	-0.00127152317880793	-0.21594701986755	-4.47258278145695	6.02649006622517	-0.48026490066225				0.528529801324503	-0.0805298013245033	-0.709721854304636	-0.877086092715232	-8.4964238410596	-5.65562913907285				0.916026490066225	0.0674966887417219	-0.0740662251655629	-5.3682119205298	-10.8680794701987	-1.45748344370861				0.751788079470199	-0.0788344370860927	-0.596238410596026	-4.45960264900662	-1.24238410596026	-3.55470198675497			
123	2480	0.951841059602649	0.0347549668874172	-0.103523178807947	2.83337748344371	4.8953642384106	-2.30490066225166				1.00895364238411	0.0157880794701987	0.0611390728476822	-6.56609271523179	-3.05218543046358	4.73403973509934				0.949827814569536	-0.0172715231788079	-0.18394701986755	-10.632582781457	7.14649006622517	0.0797350993377501				0.544529801324503	-0.0485298013245033	-0.725721854304636	-1.43708609271523	-8.4964238410596	-4.25562913907285				0.932026490066225	0.0834966887417219	-0.0420662251655629	-5.3682119205298	-8.34807947019868	-2.01748344370861				0.767788079470199	-0.0948344370860927	-0.564238410596026	-3.61960264900662	-4.60238410596027	-3.27470198675497			
124	2500	0.951841059602649	0.0507549668874172	-0.119523178807947	2.83337748344371	2.3753642384106	-1.46490066225166				0.928953642384106	0.0157880794701987	-0.0188609271523178	-4.32609271523179	-11.4521854304636	7.53403973509934				0.949827814569536	-0.00127152317880793	-0.18394701986755	-11.192582781457	2.94649006622517	1.47973509933775				0.560529801324503	-0.0805298013245033	-0.773721854304636	2.20291390728477	-3.1764238410596	-1.17562913907285				0.964026490066225	0.0674966887417219	-0.0580662251655629	-0.888211920529802	-10.0280794701987	-0.337483443708608				0.767788079470199	-0.110834437086093	-0.564238410596026	-6.97960264900662	-5.44238410596027	-2.15470198675497			
125	2520	0.967841059602649	0.0667549668874172	-0.119523178807947	4.51337748344371	1.5353642384106	-1.46490066225166				0.960953642384106	0.0157880794701987	-0.0348609271523178	-2.92609271523179	4.78781456953642	8.37403973509934				0.933827814569536	0.0307284768211921	-0.13594701986755	-7.55258278145695	1.26649006622517	-0.20026490066225				0.576529801324503	-0.160529801324503	-0.741721854304636	0.802913907284768	2.1435761589404	0.504370860927152				0.916026490066225	0.0514966887417219	-0.0740662251655629	-2.0082119205298	-11.1480794701987	-0.617483443708608				0.767788079470199	-0.0468344370860927	-0.580238410596026	-9.49960264900662	-0.962384105960265	-2.71470198675497			
126	2540	0.983841059602649	0.0987549668874172	-0.071523178807947	3.95337748344371	-1.8246357615894	-2.30490066225166				0.992953642384106	-0.000211920529801304	0.125139072847682	-1.80609271523179	17.9478145695364	7.53403973509934				0.965827814569536	0.0627284768211921	-0.13594701986755	-0.832582781456954	1.26649006622517	-1.60026490066225				0.528529801324503	-0.144529801324503	-0.757721854304636	-6.19708609271523	1.3035761589404	-0.335629139072848				0.852026490066225	0.0194966887417219	-0.0100662251655629	-2.8482119205298	0.331920529801325	-0.617483443708608				0.735788079470199	-0.0148344370860927	-0.612238410596026	-5.85960264900662	-0.682384105960265	-4.11470198675497			
127	2560	0.967841059602649	0.114754966887417	-0.071523178807947	7.87337748344371	-4.9046357615894	-2.02490066225166				0.928953642384106	0.0477880794701987	0.0611390728476822	4.07390728476821	-1.65218543046358	5.29403973509934				0.949827814569536	0.0307284768211921	-0.13594701986755	4.76741721854305	0.426490066225167	-2.44026490066225				0.560529801324503	-0.0325298013245033	-0.757721854304636	-3.11708609271523	0.7435761589404	0.784370860927152				0.900026490066225	0.0674966887417219	-0.0420662251655629	-1.7282119205298	4.53192052980133	-1.45748344370861				0.719788079470199	-0.0628344370860927	-0.564238410596026	7.86039735099338	-3.48238410596027	-4.95470198675497			
128	2580	0.951841059602649	0.0667549668874172	-0.071523178807947	10.6733774834437	-7.7046357615894	-2.30490066225166				0.944953642384106	-0.000211920529801304	-0.114860927152318	2.95390728476821	-8.09218543046358	5.29403973509934				0.933827814569536	-0.00127152317880793	-0.0719470198675496	3.64741721854305	0.986490066225167	-3.00026490066225				0.672529801324503	-0.0485298013245033	-0.741721854304636	8.08291390728477	6.6235761589404	1.34437086092715				1.02802649006623	0.0514966887417219	-0.0580662251655629	1.3517880794702	2.29192052980133	-1.73748344370861				0.815788079470199	-0.0948344370860927	-0.596238410596026	8.42039735099338	0.717615894039735	-3.55470198675497			
129	2600	0.983841059602649	0.00275496688741723	-0.087523178807947	5.91337748344371	-9.66463576158941	-2.58490066225166				0.976953642384106	-0.000211920529801304	-0.0828609271523179	2.67390728476821	-4.73218543046358	1.37403973509934				0.981827814569536	-0.0332715231788079	-0.0879470198675496	4.20741721854305	-0.133509933774833	-2.44026490066225				0.720529801324503	-0.0965298013245033	-0.709721854304636	9.76291390728477	16.1435761589404	1.34437086092715				1.09202649006623	0.0354966887417219	-0.0260662251655629	3.8717880794702	2.01192052980133	-0.617483443708608				0.879788079470199	-0.126834437086093	-0.612238410596026	0.300397350993377	-0.122384105960265	-6.63470198675497			
130	2620	0.983841059602649	-0.0132450331125828	-0.103523178807947	2.27337748344371	-10.7846357615894	-1.46490066225166				1.04095364238411	0.0157880794701987	-0.0988609271523179	8.55390728476821	-10.3321854304636	1.09403973509934				0.981827814569536	-0.0332715231788079	-0.13594701986755	8.40741721854305	-7.97350993377484	-3.00026490066225				0.672529801324503	-0.0645298013245033	-0.757721854304636	9.76291390728477	8.5835761589404	1.62437086092715				1.02802649006623	0.0354966887417219	-0.0100662251655629	3.0317880794702	0.611920529801325	1.06251655629139				0.863788079470199	-0.110834437086093	-0.660238410596027	0.300397350993377	-3.20238410596026	-11.394701986755			
131	2640	0.967841059602649	0.0507549668874172	-0.119523178807947	-0.246622516556291	-10.7846357615894	-1.46490066225166				0.992953642384106	0.0157880794701987	-0.0988609271523179	9.11390728476821	-8.09218543046358	0.25403973509934				0.965827814569536	-0.0172715231788079	-0.15194701986755	1.12741721854305	-5.17350993377483	-1.88026490066225				0.608529801324503	-0.112529801324503	-0.805721854304636	10.6029139072848	7.1835761589404	0.224370860927152				0.964026490066225	0.0354966887417219	-0.0740662251655629	4.7117880794702	-1.62807947019868	1.90251655629139				0.783788079470199	-0.0788344370860927	-0.660238410596027	12.3403973509934	-9.36238410596027	-9.71470198675497			
132	2660	0.935841059602649	0.0987549668874172	-0.119523178807947	-2.76662251655629	-9.66463576158941	-2.02490066225166				0.960953642384106	-0.0162119205298013	-0.0508609271523178	8.83390728476821	-5.01218543046358	-1.14596026490066				0.933827814569536	-0.0172715231788079	-0.16794701986755	-6.99258278145695	-5.73350993377484	0.35973509933775				0.576529801324503	-0.144529801324503	-0.773721854304636	7.24291390728477	6.9035761589404	-4.53562913907285				0.932026490066225	0.0354966887417219	-0.0420662251655629	4.7117880794702	4.25192052980133	0.782516556291392				0.751788079470199	-0.142834437086093	-0.596238410596026	18.2203973509934	-12.4423841059603	-1.87470198675497			
133	2680	0.951841059602649	0.0827549668874172	-0.167523178807947	1.71337748344371	-5.7446357615894	-1.18490066225166				0.992953642384106	-0.0162119205298013	-0.00286092715231785	5.47390728476821	0.867814569536424	-0.0259602649006601				0.933827814569536	0.0147284768211921	-0.23194701986755	-3.91258278145695	-4.89350993377483	-0.76026490066225				0.592529801324503	-0.144529801324503	-0.741721854304636	6.96291390728477	1.3035761589404	-4.25562913907285				0.948026490066225	0.0354966887417219	-0.106066225165563	2.7517880794702	3.41192052980132	1.34251655629139				0.751788079470199	-0.158834437086093	-0.548238410596027	10.3803973509934	-13.8423841059603	4.84529801324503			
134	2700	0.951841059602649	0.0347549668874172	-0.199523178807947	6.47337748344371	0.135364238410596	-2.58490066225166				1.00895364238411	-0.000211920529801304	-0.0348609271523178	1.83390728476821	5.06781456953642	0.53403973509934				0.949827814569536	0.0307284768211921	-0.24794701986755	-3.07258278145695	-4.05350993377483	-0.20026490066225				0.592529801324503	-0.176529801324503	-0.773721854304636	-0.877086092715232	-0.9364238410596	-3.41562913907285				0.948026490066225	0.00349668874172187	-0.0420662251655629	-0.0482119205298018	6.49192052980132	-0.617483443708608				0.719788079470199	-0.142834437086093	-0.532238410596027	4.50039735099338	-10.2023841059603	5.68529801324503			
135	2720	0.951841059602649	0.0347549668874172	-0.215523178807947	5.07337748344371	-2.1046357615894	-3.70490066225166				0.960953642384106	0.0157880794701987	-0.0828609271523179	3.51390728476821	3.38781456953642	0.25403973509934				0.965827814569536	0.0467284768211921	-0.24794701986755	-4.47258278145695	-2.37350993377483	-0.76026490066225				0.544529801324503	-0.160529801324503	-0.741721854304636	-4.23708609271523	2.7035761589404	-0.0556291390728476				0.916026490066225	0.00349668874172187	-0.0420662251655629	-3.6882119205298	4.25192052980133	-0.337483443708608				0.703788079470199	-0.110834437086093	-0.532238410596027	3.10039735099338	-6.56238410596027	6.52529801324503			
136	2740	0.919841059602649	0.0667549668874172	-0.231523178807947	6.47337748344371	-5.1846357615894	-3.14490066225166				0.944953642384106	0.0317880794701987	-0.0508609271523178	8.27390728476821	3.66781456953642	-2.54596026490066				0.949827814569536	0.0467284768211921	-0.19994701986755	-1.39258278145695	-2.65350993377483	-1.04026490066225				0.560529801324503	-0.112529801324503	-0.709721854304636	-4.23708609271523	4.6635761589404	0.224370860927152				0.916026490066225	0.0514966887417219	-0.0740662251655629	-0.608211920529802	4.53192052980133	-0.337483443708608				0.671788079470199	-0.0628344370860927	-0.484238410596026	-3.33960264900662	3.79761589403974	5.96529801324503			
137	2760	0.935841059602649	0.0187549668874172	-0.231523178807947	9.27337748344371	-7.7046357615894	-1.74490066225166				0.928953642384106	0.0157880794701987	-0.0988609271523179	7.43390728476821	-4.73218543046358	-1.70596026490066				0.917827814569536	0.0307284768211921	-0.18394701986755	7.84741721854305	-4.89350993377483	-3.28026490066225				0.592529801324503	-0.0965298013245033	-0.725721854304636	-0.877086092715232	6.9035761589404	1.06437086092715				0.932026490066225	0.0354966887417219	-0.0260662251655629	-0.328211920529802	9.29192052980133	-2.85748344370861				0.703788079470199	-0.0788344370860927	-0.516238410596026	-0.819602649006623	9.95761589403974	2.04529801324503			
138	2780	0.919841059602649	0.00275496688741723	-0.183523178807947	5.35337748344371	-10.7846357615894	-0.624900662251656				0.960953642384106	-0.000211920529801304	-0.130860927152318	9.11390728476821	-6.41218543046358	-0.30596026490066				0.933827814569536	0.0147284768211921	-0.18394701986755	13.727417218543	-3.77350993377483	-3.28026490066225				0.640529801324503	-0.0645298013245033	-0.709721854304636	0.802913907284768	8.0235761589404	1.06437086092715				0.964026490066225	0.0194966887417219	-0.0260662251655629	1.0717880794702	5.65192052980133	-1.73748344370861				0.735788079470199	-0.142834437086093	-0.548238410596027	1.98039735099338	10.2376158940397	-2.43470198675497			
139	2800	0.935841059602649	-0.0292450331125828	-0.183523178807947	4.51337748344371	-8.26463576158941	0.775099337748344				0.976953642384106	-0.000211920529801304	-0.114860927152318	3.79390728476821	-11.1721854304636	-4.22596026490066				0.981827814569536	-0.0172715231788079	-0.19994701986755	7.28741721854305	-1.53350993377483	-3.00026490066225				0.688529801324503	-0.0485298013245033	-0.725721854304636	-0.597086092715232	5.5035761589404	-0.895629139072848				1.02802649006623	0.0194966887417219	-0.0100662251655629	0.231788079470198	2.57192052980133	-2.01748344370861				0.799788079470199	-0.142834437086093	-0.612238410596026	-1.09960264900662	7.43761589403974	-5.79470198675497			
140	2820	0.951841059602649	-0.0132450331125828	-0.215523178807947	-2.76662251655629	-7.7046357615894	0.215099337748344				1.00895364238411	-0.000211920529801304	-0.114860927152318	1.27390728476821	-14.5321854304636	-5.34596026490066				0.997827814569536	-0.0972715231788079	-0.18394701986755	2.24741721854305	-2.93350993377483	-1.60026490066225				0.688529801324503	-0.0645298013245033	-0.725721854304636	3.04291390728477	1.8635761589404	-1.17562913907285				1.02802649006623	0.0514966887417219	0.0379337748344371	-2.2882119205298	0.611920529801325	-2.85748344370861				0.815788079470199	-0.126834437086093	-0.596238410596026	-5.01960264900662	4.63761589403974	-4.67470198675497			
141	2840	0.951841059602649	0.0187549668874172	-0.215523178807947	-6.12662251655629	-3.7846357615894	-2.02490066225166				1.02495364238411	-0.0162119205298013	-0.0988609271523179	-3.20609271523179	-7.25218543046358	-3.10596026490066				0.949827814569536	-0.0972715231788079	-0.19994701986755	-3.07258278145695	-7.41350993377483	-0.76026490066225				0.608529801324503	-0.0805298013245033	-0.773721854304636	4.16291390728477	5.2235761589404	-3.13562913907285				0.980026490066225	0.0674966887417219	-0.0580662251655629	-2.8482119205298	-6.94807947019868	-2.01748344370861				0.815788079470199	-0.0788344370860927	-0.612238410596026	-7.53960264900662	1.55761589403974	-5.79470198675497			
142	2860	0.951841059602649	0.0667549668874172	-0.215523178807947	-4.44662251655629	-2.6646357615894	-1.74490066225166				0.992953642384106	-0.0162119205298013	0.0291390728476822	-7.68609271523179	2.26781456953642	0.81403973509934				0.933827814569536	-0.0332715231788079	-0.21594701986755	-13.712582781457	-5.45350993377483	-0.20026490066225				0.576529801324503	-0.128529801324503	-0.773721854304636	-0.597086092715232	4.6635761589404	-4.81562913907285				0.948026490066225	0.0514966887417219	-0.0740662251655629	-4.2482119205298	-6.10807947019868	-2.57748344370861				0.767788079470199	-0.0628344370860927	-0.628238410596026	3.10039735099338	-2.92238410596027	-6.91470198675497			
143	2880	0.951841059602649	0.0667549668874172	-0.199523178807947	-3.32662251655629	-3.5046357615894	-1.74490066225166				0.960953642384106	-0.000211920529801304	-0.0348609271523178	-6.28609271523179	-1.65218543046358	0.81403973509934				0.917827814569536	0.0627284768211921	-0.23194701986755	-12.032582781457	-3.49350993377483	-1.32026490066225				0.576529801324503	-0.112529801324503	-0.773721854304636	3.60291390728477	-0.6564238410596	-4.53562913907285				0.932026490066225	0.0194966887417219	-0.0260662251655629	-3.1282119205298	-1.06807947019868	-2.29748344370861				0.735788079470199	-0.0948344370860927	-0.580238410596026	4.50039735099338	-2.92238410596027	-4.11470198675497			
144	2900	0.935841059602649	0.0507549668874172	-0.183523178807947	-4.16662251655629	-5.7446357615894	-2.02490066225166				0.928953642384106	0.0157880794701987	-0.114860927152318	-2.08609271523179	-0.812185430463576	-0.0259602649006601				0.933827814569536	0.0627284768211921	-0.23194701986755	-5.31258278145695	-1.53350993377483	-2.16026490066225				0.608529801324503	-0.160529801324503	-0.725721854304636	-3.95708609271523	-3.1764238410596	-3.69562913907285				0.932026490066225	0.0514966887417219	-0.0740662251655629	-2.8482119205298	-0.788079470198675	-0.897483443708608				0.735788079470199	-0.142834437086093	-0.580238410596026	3.66039735099338	-0.962384105960265	-0.474701986754968			
145	2920	0.935841059602649	0.0347549668874172	-0.167523178807947	2.55337748344371	-4.0646357615894	-1.46490066225166				0.976953642384106	0.0637880794701987	-0.0828609271523179	1.55390728476821	-1.65218543046358	-1.42596026490066				0.933827814569536	0.0467284768211921	-0.21594701986755	0.567417218543046	-2.37350993377483	-2.72026490066225				0.624529801324503	-0.0965298013245033	-0.709721854304636	-11.5170860927152	-0.9364238410596	-0.0556291390728476				0.948026490066225	0.0674966887417219	-0.0420662251655629	-1.7282119205298	4.53192052980133	-0.617483443708608				0.783788079470199	-0.110834437086093	-0.580238410596026	-2.21960264900662	0.717615894039735	1.76529801324503			
146	2940	0.935841059602649	0.0347549668874172	-0.135523178807947	4.51337748344371	-4.6246357615894	-0.624900662251656				0.976953642384106	0.0317880794701987	-0.0988609271523179	3.79390728476821	-4.17218543046358	-0.585960264900661				0.949827814569536	-0.00127152317880793	-0.21594701986755	2.52741721854305	-3.21350993377483	-2.16026490066225				0.592529801324503	-0.0645298013245033	-0.709721854304636	-3.95708609271523	4.3835761589404	3.30437086092715				0.964026490066225	0.0674966887417219	-0.0260662251655629	-0.888211920529802	6.21192052980133	0.502516556291392				0.783788079470199	-0.0948344370860927	-0.580238410596026	-2.77960264900662	3.51761589403974	4.56529801324503			
147	2960	0.951841059602649	0.0347549668874172	-0.167523178807947	2.83337748344371	-1.2646357615894	-0.624900662251656				0.960953642384106	-0.000211920529801304	-0.130860927152318	5.47390728476821	-9.77218543046358	-0.30596026490066				0.933827814569536	-0.0332715231788079	-0.18394701986755	3.64741721854305	-4.33350993377483	-1.60026490066225				0.624529801324503	-0.0805298013245033	-0.725721854304636	4.72291390728477	6.9035761589404	4.14437086092715				0.980026490066225	0.0514966887417219	-0.0420662251655629	2.1917880794702	9.85192052980133	1.62251655629139				0.783788079470199	-0.0948344370860927	-0.596238410596026	0.300397350993377	6.59761589403974	7.64529801324503			
148	2980	0.951841059602649	0.0507549668874172	-0.183523178807947	3.39337748344371	-2.1046357615894	-1.74490066225166				0.976953642384106	0.0157880794701987	-0.114860927152318	6.87390728476821	-8.37218543046358	-0.585960264900661				0.949827814569536	-0.00127152317880793	-0.16794701986755	4.76741721854305	-3.49350993377483	-0.76026490066225				0	0	0	0	0	0				0	0	0	0	0	0				0	0	0	0	0	0			
149	3000	0	0	0	0	0	0				1.00895364238411	-0.0162119205298013	-0.114860927152318	6.31390728476821	-9.77218543046358	-0.0259602649006601				0	0	0	0	0	0				0	0	0	0	0	0				0.996026490066225	0.0514966887417219	0.0219337748344371	1.0717880794702	1.45192052980132	2.18251655629139				0	0	0	0	0	0			
150	3020	0.951841059602649	0.0347549668874172	-0.183523178807947	2.27337748344371	-5.7446357615894	-2.02490066225166				0.992953642384106	-0.000211920529801304	-0.0828609271523179	3.79390728476821	-7.53218543046358	-0.0259602649006601				0.949827814569536	-0.0172715231788079	-0.18394701986755	2.80741721854305	-1.81350993377483	-1.04026490066225				0.672529801324503	-0.0805298013245033	-0.725721854304636	0.802913907284768	2.7035761589404	3.86437086092715				0.996026490066225	0.0514966887417219	-0.0580662251655629	1.9117880794702	-1.62807947019868	2.74251655629139				0.799788079470199	-0.110834437086093	-0.580238410596026	-6.41960264900662	-1.52238410596026	3.16529801324503			
151	3040	0.951841059602649	0.00275496688741723	-0.167523178807947	-0.806622516556291	-3.7846357615894	-1.46490066225166				1.00895364238411	0.0157880794701987	0.0131390728476822	-0.966092715231788	1.14781456953642	3.33403973509934				0.965827814569536	-0.0172715231788079	-0.18394701986755	1.40741721854305	-0.973509933774833	-1.60026490066225				0.624529801324503	-0.112529801324503	-0.757721854304636	2.76291390728477	2.7035761589404	4.14437086092715				0.964026490066225	0.0514966887417219	-0.0740662251655629	2.1917880794702	-4.42807947019868	1.62251655629139				0.751788079470199	-0.0788344370860927	-0.596238410596026	-4.17960264900662	-1.80238410596026	1.48529801324503			
152	3060	0.967841059602649	0.0187549668874172	-0.215523178807947	-1.92662251655629	-2.1046357615894	-0.624900662251656				0.976953642384106	-0.0322119205298013	-0.0348609271523178	-4.60609271523179	4.78781456953642	2.21403973509934				0.949827814569536	0.0147284768211921	-0.23194701986755	1.12741721854305	-2.09350993377483	-2.44026490066225				0.560529801324503	-0.160529801324503	-0.805721854304636	2.20291390728477	2.9835761589404	2.46437086092715				0.900026490066225	-0.0125033112582781	-0.0100662251655629	-1.1682119205298	-1.34807947019868	-0.0574834437086077				0.703788079470199	-0.0788344370860927	-0.628238410596026	3.66039735099338	-1.24238410596026	-1.31470198675497			
153	3080	0.951841059602649	0.0667549668874172	-0.199523178807947	1.15337748344371	-2.9446357615894	-0.624900662251656				0.944953642384106	0.0157880794701987	0.0131390728476822	0.153907284768212	9.82781456953643	0.81403973509934				0.933827814569536	0.0307284768211921	-0.23194701986755	-3.35258278145695	-0.133509933774833	-1.60026490066225				0.576529801324503	-0.160529801324503	-0.757721854304636	-3.95708609271523	-1.2164238410596	-2.29562913907285				0.884026490066225	0.0194966887417219	-0.0900662251655629	-2.8482119205298	0.611920529801325	-0.0574834437086077				0.719788079470199	-0.110834437086093	-0.564238410596026	5.90039735099338	-2.08238410596027	-0.194701986754968			
154	3100	0.935841059602649	0.0987549668874172	-0.199523178807947	1.99337748344371	-2.1046357615894	-1.46490066225166				0.912953642384106	0.0317880794701987	-0.0828609271523179	4.91390728476821	5.06781456953642	-1.42596026490066				0.949827814569536	0.0147284768211921	-0.21594701986755	0.00741721854304636	-2.09350993377483	-1.04026490066225				0.624529801324503	-0.144529801324503	-0.725721854304636	-12.9170860927152	-3.1764238410596	-3.69562913907285				0.948026490066225	0.0354966887417219	-0.0420662251655629	1.3517880794702	12.6519205298013	-1.73748344370861				0.719788079470199	-0.110834437086093	-0.548238410596027	3.66039735099338	-1.24238410596026	-0.474701986754968			
155	3120	0.935841059602649	0.0667549668874172	-0.183523178807947	3.95337748344371	-2.3846357615894	-2.58490066225166				0.944953642384106	0.0157880794701987	-0.130860927152318	9.11390728476821	5.06781456953642	-0.585960264900661				0.933827814569536	0.0147284768211921	-0.23194701986755	6.16741721854305	-2.65350993377483	-2.16026490066225				0.672529801324503	-0.0645298013245033	-0.709721854304636	-12.9170860927152	0.7435761589404	-0.335629139072848				0.980026490066225	0.0514966887417219	0.00593377483443711	-0.888211920529802	14.8919205298013	-3.97748344370861				0.751788079470199	-0.0948344370860927	-0.548238410596027	-1.93960264900662	1.83761589403974	-0.754701986754968			
156	3140	0.935841059602649	0.0187549668874172	-0.199523178807947	6.47337748344371	-4.6246357615894	-2.30490066225166				1.02495364238411	0.0157880794701987	-0.178860927152318	6.59390728476821	6.46781456953642	1.65403973509934				0.949827814569536	-0.00127152317880793	-0.21594701986755	6.72741721854305	-2.93350993377483	-1.60026490066225				0.656529801324503	-0.0325298013245033	-0.677721854304636	-2.27708609271523	2.4235761589404	0.784370860927152				1.01202649006623	0.0354966887417219	0.00593377483443711	2.4717880794702	11.2519205298013	-2.29748344370861				0.783788079470199	-0.110834437086093	-0.580238410596026	0.300397350993377	4.35761589403974	-1.87470198675497			
157	3160	0.935841059602649	0.0187549668874172	-0.215523178807947	4.79337748344371	-4.9046357615894	-2.86490066225166				0.976953642384106	-0.000211920529801304	-0.146860927152318	3.79390728476821	-3.89218543046358	1.37403973509934				0.949827814569536	0.0147284768211921	-0.19994701986755	3.08741721854305	-2.65350993377483	-1.60026490066225				0.656529801324503	-0.0325298013245033	-0.677721854304636	-0.597086092715232	3.8235761589404	-0.895629139072848				1.01202649006623	0.0354966887417219	0.00593377483443711	2.1917880794702	10.6919205298013	-1.17748344370861				0.815788079470199	-0.142834437086093	-0.580238410596026	0.860397350993377	4.91761589403974	-2.43470198675497			
158	3180	0.935841059602649	0.0187549668874172	-0.215523178807947	-0.526622516556291	-6.3046357615894	-0.904900662251656				0.976953642384106	-0.000211920529801304	-0.178860927152318	1.83390728476821	-8.65218543046358	-0.86596026490066				0.933827814569536	0.0147284768211921	-0.19994701986755	3.08741721854305	-3.49350993377483	-2.16026490066225				0.656529801324503	-0.0165298013245033	-0.661721854304636	2.20291390728477	3.2635761589404	-2.57562913907285				1.02802649006623	0.0354966887417219	0.0219337748344371	2.1917880794702	5.37192052980133	1.62251655629139				0.831788079470199	-0.158834437086093	-0.580238410596026	4.50039735099338	0.717615894039735	-1.87470198675497			
159	3200	0.935841059602649	0.0187549668874172	-0.199523178807947	-4.16662251655629	-3.5046357615894	-0.344900662251656				1.02495364238411	0.0157880794701987	-0.146860927152318	5.19390728476821	-6.97218543046358	-0.585960264900661				0.949827814569536	-0.00127152317880793	-0.21594701986755	4.48741721854305	-4.61350993377483	-2.44026490066225				0.672529801324503	-0.0165298013245033	-0.693721854304636	7.80291390728477	2.9835761589404	-2.85562913907285				0.980026490066225	0.0514966887417219	0.0379337748344371	1.0717880794702	0.891920529801325	2.46251655629139				0.799788079470199	-0.142834437086093	-0.580238410596026	1.70039735099338	-3.20238410596026	-3.83470198675497			
160	3220	0.935841059602649	0.0507549668874172	-0.215523178807947	-4.16662251655629	-0.984635761589404	-0.624900662251656				1.05695364238411	0.0157880794701987	-0.130860927152318	2.67390728476821	-12.8521854304636	1.37403973509934				0.949827814569536	-0.00127152317880793	-0.24794701986755	1.96741721854305	-4.61350993377483	-2.16026490066225				0.640529801324503	-0.0805298013245033	-0.725721854304636	10.6029139072848	6.6235761589404	-2.57562913907285				0.932026490066225	0.0674966887417219	0.0379337748344371	-0.0482119205298018	-0.228079470198675	2.18251655629139				0.767788079470199	-0.0948344370860927	-0.580238410596026	0.860397350993377	-5.44238410596027	-2.43470198675497			
161	3240	0.951841059602649	0.0507549668874172	-0.231523178807947	-4.16662251655629	0.975364238410596	-1.74490066225166				0.960953642384106	0.0157880794701987	-0.00286092715231785	-6.28609271523179	-10.3321854304636	0.81403973509934				0.933827814569536	-0.00127152317880793	-0.24794701986755	-0.272582781456954	-2.37350993377483	-1.88026490066225				0.640529801324503	-0.112529801324503	-0.709721854304636	8.08291390728477	9.9835761589404	-2.01562913907285				0.964026490066225	0.0354966887417219	-0.0420662251655629	4.9917880794702	-0.508079470198675	2.74251655629139				0.719788079470199	-0.0788344370860927	-0.580238410596026	6.74039735099338	-7.96238410596027	-1.03470198675497			
162	3260	0.951841059602649	0.0507549668874172	-0.279523178807947	2.55337748344371	1.2553642384106	-2.86490066225166				0.976953642384106	-0.000211920529801304	-0.0188609271523178	0.433907284768212	-8.09218543046358	1.09403973509934				0.965827814569536	-0.00127152317880793	-0.26394701986755	-4.19258278145695	-0.413509933774833	-1.60026490066225				0.624529801324503	-0.0965298013245033	-0.725721854304636	7.24291390728477	8.3035761589404	-2.57562913907285				0.964026490066225	0.0354966887417219	-0.0740662251655629	2.4717880794702	-4.98807947019868	2.18251655629139				0.735788079470199	-0.0948344370860927	-0.564238410596026	6.46039735099338	-7.12238410596027	-3.27470198675497			
163	3280	0.919841059602649	0.0667549668874172	-0.247523178807947	6.47337748344371	-0.144635761589404	-3.14490066225166				0.928953642384106	0.0157880794701987	-0.114860927152318	-0.686092715231788	0.307814569536424	0.53403973509934				0.949827814569536	0.0147284768211921	-0.26394701986755	-3.91258278145695	-0.413509933774833	-0.76026490066225				0.576529801324503	-0.112529801324503	-0.773721854304636	7.24291390728477	7.1835761589404	-3.69562913907285				0.916026490066225	0.0354966887417219	-0.0420662251655629	3.8717880794702	-6.38807947019868	1.62251655629139				0.735788079470199	-0.110834437086093	-0.596238410596026	7.86039735099338	-2.36238410596027	-6.35470198675497			
164	3300	0.935841059602649	0.0667549668874172	-0.231523178807947	4.79337748344371	-3.5046357615894	-2.02490066225166				0.944953642384106	0.0477880794701987	-0.0348609271523178	3.51390728476821	12.6278145695364	0.25403973509934				0.933827814569536	0.0307284768211921	-0.24794701986755	-1.67258278145695	-1.25350993377483	0.0797350993377501				0.608529801324503	-0.144529801324503	-0.741721854304636	6.12291390728477	4.6635761589404	-4.53562913907285				0.884026490066225	0.0674966887417219	-0.0420662251655629	1.0717880794702	-3.30807947019868	0.782516556291392				0.735788079470199	-0.0788344370860927	-0.548238410596027	6.74039735099338	0.157615894039735	-5.79470198675497			
165	3320	0.935841059602649	0.0507549668874172	-0.199523178807947	7.87337748344371	-6.0246357615894	-0.344900662251656				0.976953642384106	0.0317880794701987	-0.0188609271523178	5.47390728476821	6.74781456953642	0.81403973509934				0.949827814569536	0.0627284768211921	-0.23194701986755	1.12741721854305	0.146490066225167	-0.48026490066225				0.640529801324503	-0.144529801324503	-0.757721854304636	-1.71708609271523	-1.7764238410596	-5.93562913907285				0.900026490066225	0.0514966887417219	-0.0100662251655629	5.8317880794702	7.33192052980133	-0.897483443708608				0.687788079470199	-0.0948344370860927	-0.548238410596027	4.78039735099338	-0.962384105960265	-3.55470198675497			
166	3340	0.935841059602649	0.0507549668874172	-0.183523178807947	9.83337748344371	-4.9046357615894	-0.344900662251656				0.960953642384106	0.0157880794701987	-0.130860927152318	7.15390728476821	-4.17218543046358	1.37403973509934				0.933827814569536	0.0627284768211921	-0.23194701986755	9.24741721854305	-1.25350993377483	-3.00026490066225				0.656529801324503	-0.112529801324503	-0.709721854304636	-7.59708609271523	-2.0564238410596	-5.09562913907285				0.948026490066225	0.0514966887417219	0.0219337748344371	5.2717880794702	10.4119205298013	-2.29748344370861				0.735788079470199	-0.110834437086093	-0.564238410596026	9.26039735099338	-1.80238410596026	-3.55470198675497			
167	3360	0.935841059602649	0.0347549668874172	-0.183523178807947	8.71337748344371	-5.1846357615894	-2.02490066225166				0.960953642384106	-0.000211920529801304	-0.114860927152318	7.43390728476821	-2.49218543046358	0.81403973509934				0.933827814569536	0.0467284768211921	-0.21594701986755	10.927417218543	-0.973509933774833	-4.12026490066225				0.672529801324503	-0.0485298013245033	-0.677721854304636	-4.79708609271523	2.4235761589404	-5.37562913907285				1.01202649006623	0.0514966887417219	0.0219337748344371	8.0717880794702	11.5319205298013	-2.01748344370861				0.815788079470199	-0.158834437086093	-0.580238410596026	7.02039735099338	1.55761589403974	-2.15470198675497			
168	3380	0.935841059602649	0.0507549668874172	-0.199523178807947	4.79337748344371	-5.7446357615894	-1.18490066225166				0.976953642384106	0.0157880794701987	-0.114860927152318	8.55390728476821	-6.97218543046358	1.09403973509934				0.965827814569536	-0.00127152317880793	-0.18394701986755	10.367417218543	-1.53350993377483	-2.72026490066225				0.656529801324503	-0.0165298013245033	-0.677721854304636	1.08291390728477	5.7835761589404	-2.57562913907285				1.02802649006623	0.0514966887417219	0.0219337748344371	5.8317880794702	5.93192052980133	0.502516556291392				0.863788079470199	-0.126834437086093	-0.612238410596026	1.42039735099338	6.31761589403974	-3.55470198675497			
169	3400	0.935841059602649	0.0507549668874172	-0.215523178807947	2.83337748344371	-6.3046357615894	-1.18490066225166				0.976953642384106	0.0317880794701987	-0.162860927152318	8.27390728476821	-7.81218543046358	1.37403973509934				0.949827814569536	-0.0332715231788079	-0.16794701986755	12.887417218543	-3.21350993377483	-2.44026490066225				0.672529801324503	-0.0325298013245033	-0.661721854304636	7.52291390728477	6.3435761589404	-0.615629139072848				0.996026490066225	0.0514966887417219	0.00593377483443711	3.8717880794702	2.57192052980133	1.62251655629139				0.847788079470199	-0.110834437086093	-0.612238410596026	5.90039735099338	3.23761589403974	-6.35470198675497			
170	3420	0.951841059602649	0.0667549668874172	-0.199523178807947	3.67337748344371	-5.7446357615894	-1.18490066225166				0.992953642384106	-0.0162119205298013	-0.146860927152318	9.39390728476821	-3.33218543046358	1.65403973509934				0.949827814569536	-0.0332715231788079	-0.19994701986755	6.72741721854305	-5.73350993377484	-1.04026490066225				0.656529801324503	-0.0805298013245033	-0.725721854304636	9.48291390728477	5.2235761589404	0.504370860927152				0.964026490066225	0.0354966887417219	0.0379337748344371	5.8317880794702	1.73192052980133	3.02251655629139				0.767788079470199	-0.158834437086093	-0.596238410596026	13.1803973509934	-7.12238410596027	-8.03470198675497			
171	3440	0.951841059602649	0.0347549668874172	-0.199523178807947	2.27337748344371	-2.3846357615894	-0.344900662251656				1.00895364238411	-0.000211920529801304	-0.0988609271523179	6.59390728476821	-5.01218543046358	-0.86596026490066				0.949827814569536	-0.0172715231788079	-0.19994701986755	-0.832582781456954	-4.61350993377483	-1.04026490066225				0.656529801324503	-0.112529801324503	-0.725721854304636	7.80291390728477	6.0635761589404	0.504370860927152				0.980026490066225	0.00349668874172187	0.0379337748344371	4.4317880794702	-0.228079470198675	3.30251655629139				0.767788079470199	-0.174834437086093	-0.628238410596026	10.3803973509934	-14.4023841059603	-6.63470198675497			
172	3460	0.935841059602649	0.0507549668874172	-0.231523178807947	0.313377483443709	-1.8246357615894	-1.46490066225166				0.976953642384106	0.0157880794701987	-0.0668609271523178	6.03390728476821	-7.25218543046358	-0.86596026490066				0.949827814569536	0.0307284768211921	-0.24794701986755	-3.35258278145695	-2.93350993377483	-0.20026490066225				0.656529801324503	-0.112529801324503	-0.725721854304636	5.84291390728477	8.0235761589404	0.224370860927152				1.01202649006623	0.0194966887417219	-0.0260662251655629	2.1917880794702	-0.508079470198675	2.46251655629139				0.799788079470199	-0.158834437086093	-0.580238410596026	2.26039735099338	-15.8023841059603	-1.87470198675497			
