No	Time	12-AccX	12-AccY	12-AccZ	12-GyroX	12-GyroY	12-GyroZ	13-AccX	13-AccY	13-AccZ	13-GyroX	13-GyroY	13-GyroZ	14-AccX	14-AccY	14-AccZ	14-GyroX	14-GyroY	14-GyroZ	15-AccX	15-AccY	15-AccZ	15-GyroX	15-GyroY	15-GyroZ	16-AccX	16-AccY	16-AccZ	16-GyroX	16-GyroY	16-GyroZ	17-AccX	17-AccY	17-AccZ	17-GyroX	17-GyroY	17-GyroZ
0	20	0	0	0	0	0	0				0.976953642384106	0.0637880794701987	0.269139072847682	-11.3260927152318	8.70781456953642	-0.30596026490066				-0.234172185430464	-0.145271523178808	-0.88794701986755	-1.95258278145695	-1.81350993377483	-4.12026490066225				0.576529801324503	-0.144529801324503	-0.661721854304636	-8.43708609271523	-16.6164238410596	-3.13562913907285				0.900026490066225	0.00349668874172187	0.229933774834437	-2.5682119205298	-0.508079470198675	0.222516556291392				0.447788079470199	-0.110834437086093	-0.804238410596027	10.9403973509934	-11.3223841059603	2.88529801324503			
1	40	-0.200158940397351	0.130754966887417	-0.935523178807947	-1.08662251655629	0.695364238410596	-1.46490066225166				0.960953642384106	0.0317880794701987	0.237139072847682	-3.48609271523179	1.98781456953642	0.81403973509934				-0.234172185430464	-0.161271523178808	-0.87194701986755	-1.67258278145695	0.706490066225167	-2.72026490066225				0.560529801324503	-0.128529801324503	-0.645721854304636	-7.87708609271523	-12.9764238410596	-2.29562913907285				0.900026490066225	0.0194966887417219	0.245933774834437	-1.4482119205298	-0.508079470198675	0.782516556291392				0.415788079470199	-0.126834437086093	-0.772238410596026	6.46039735099338	-6.00238410596027	2.88529801324503			
2	60	-0.184158940397351	0.114754966887417	-0.935523178807947	-2.20662251655629	-0.704635761589404	-1.18490066225166				0.960953642384106	0.0477880794701987	0.221139072847682	-0.406092715231788	0.0278145695364242	-1.42596026490066				-0.218172185430464	-0.145271523178808	-0.83994701986755	3.64741721854305	0.426490066225167	-1.04026490066225				0.560529801324503	-0.128529801324503	-0.677721854304636	-3.39708609271523	-7.0964238410596	-1.45562913907285				0.932026490066225	0.00349668874172187	0.245933774834437	-0.0482119205298018	-0.228079470198675	0.782516556291392				0.431788079470199	-0.126834437086093	-0.772238410596026	2.82039735099338	-1.24238410596026	4.00529801324503			
3	80	-0.200158940397351	0.130754966887417	-0.951523178807947	-2.48662251655629	-0.704635761589404	-0.0649006622516557				0.960953642384106	0.0797880794701987	0.205139072847682	1.55390728476821	-1.09218543046358	-1.14596026490066				-0.234172185430464	-0.161271523178808	-0.85594701986755	5.32741721854305	-1.81350993377483	0.0797350993377501				0.592529801324503	-0.128529801324503	-0.693721854304636	3.88291390728477	-3.4564238410596	0.224370860927152				0.948026490066225	0.00349668874172187	0.229933774834437	1.3517880794702	-1.62807947019868	1.62251655629139				0.431788079470199	-0.126834437086093	-0.772238410596026	-2.49960264900662	1.83761589403974	3.44529801324503			
4	100	-0.216158940397351	0.146754966887417	-0.935523178807947	-1.36662251655629	-0.144635761589404	-0.0649006622516557				0.960953642384106	0.0477880794701987	0.237139072847682	0.433907284768212	4.22781456953642	-1.70596026490066				-0.250172185430464	-0.145271523178808	-0.88794701986755	-0.272582781456954	-1.81350993377483	1.19973509933775				0.608529801324503	-0.160529801324503	-0.725721854304636	5.28291390728477	-1.2164238410596	0.504370860927152				0.948026490066225	0.00349668874172187	0.245933774834437	1.9117880794702	-2.18807947019868	1.06251655629139				0.431788079470199	-0.126834437086093	-0.820238410596026	-6.13960264900662	6.87761589403974	3.16529801324503			
5	120	-0.216158940397351	0.146754966887417	-0.919523178807947	-1.92662251655629	-0.144635761589404	-0.0649006622516557				0.976953642384106	0.0637880794701987	0.301139072847682	-0.686092715231788	6.18781456953642	-2.26596026490066				-0.234172185430464	-0.145271523178808	-0.88794701986755	-1.95258278145695	-2.37350993377483	0.35973509933775				0.640529801324503	-0.192529801324503	-0.741721854304636	3.04291390728477	0.7435761589404	0.224370860927152				0.948026490066225	0.0194966887417219	0.229933774834437	2.1917880794702	-2.74807947019868	1.34251655629139				0.431788079470199	-0.110834437086093	-0.836238410596026	-6.41960264900662	10.2376158940397	3.72529801324503			
6	140	-0.216158940397351	0.146754966887417	-0.935523178807947	-1.92662251655629	0.135364238410596	-0.624900662251656				0.976953642384106	0.0637880794701987	0.269139072847682	-0.686092715231788	-0.252185430463576	-1.70596026490066				-0.250172185430464	-0.145271523178808	-0.87194701986755	-0.552582781456954	-0.693509933774834	0.35973509933775				0.608529801324503	-0.176529801324503	-0.725721854304636	-1.15708609271523	1.3035761589404	-1.73562913907285				0.948026490066225	0.00349668874172187	0.197933774834437	2.4717880794702	-2.18807947019868	0.222516556291392				0.431788079470199	-0.110834437086093	-0.820238410596026	-3.33960264900662	9.11761589403974	4.56529801324503			
7	160	-0.200158940397351	0.146754966887417	-0.935523178807947	-1.92662251655629	0.695364238410596	-0.344900662251656				0.976953642384106	0.0637880794701987	0.253139072847682	-0.686092715231788	0.587814569536424	-2.26596026490066				-0.250172185430464	-0.145271523178808	-0.88794701986755	0.847417218543046	-0.693509933774834	0.35973509933775				0.624529801324503	-0.160529801324503	-0.757721854304636	-0.877086092715232	1.5835761589404	-1.73562913907285				0.948026490066225	0.00349668874172187	0.213933774834437	1.3517880794702	-1.06807947019868	-2.01748344370861				0.447788079470199	-0.110834437086093	-0.852238410596026	-8.65960264900662	9.39761589403974	3.16529801324503			
8	180	-0.184158940397351	0.162754966887417	-0.951523178807947	-1.36662251655629	-0.144635761589404	-0.904900662251656				0.976953642384106	0.0637880794701987	0.253139072847682	-4.60609271523179	3.10781456953642	-2.26596026490066				-0.234172185430464	-0.161271523178808	-0.88794701986755	1.68741721854305	-0.413509933774833	-0.48026490066225				0.640529801324503	-0.144529801324503	-0.757721854304636	0.242913907284768	0.4635761589404	-3.41562913907285				0.948026490066225	0.0194966887417219	0.245933774834437	3.0317880794702	3.13192052980133	-2.29748344370861				0.447788079470199	-0.0788344370860927	-0.868238410596026	-6.69960264900662	8.55761589403974	2.60529801324503			
9	200	-0.200158940397351	0.162754966887417	-0.935523178807947	-0.526622516556291	-0.424635761589404	-1.46490066225166				0.992953642384106	0.111788079470199	0.253139072847682	-0.126092715231788	7.30781456953642	-2.26596026490066				-0.250172185430464	-0.145271523178808	-0.90394701986755	0.287417218543046	-0.133509933774833	-1.04026490066225				0.656529801324503	-0.160529801324503	-0.773721854304636	0.242913907284768	-1.7764238410596	-5.93562913907285				0.964026490066225	0.0514966887417219	0.197933774834437	3.8717880794702	0.331920529801325	-2.85748344370861				0.431788079470199	-0.0468344370860927	-0.852238410596026	-0.539602649006623	7.71761589403974	0.0852980132450323			
10	220	-0.200158940397351	0.162754966887417	-0.935523178807947	0.593377483443709	0.695364238410596	-0.624900662251656				0.976953642384106	0.111788079470199	0.253139072847682	6.59390728476821	0.867814569536424	-0.0259602649006601				-0.250172185430464	-0.129271523178808	-0.88794701986755	1.68741721854305	0.706490066225167	-0.48026490066225				0.640529801324503	-0.160529801324503	-0.773721854304636	-3.39708609271523	-4.2964238410596	-9.29562913907285				0.948026490066225	0.0514966887417219	0.213933774834437	-3.1282119205298	4.81192052980133	-5.37748344370861				0.415788079470199	-0.0468344370860927	-0.852238410596026	-1.09960264900662	7.15761589403974	-3.55470198675497			
11	240	-0.216158940397351	0.146754966887417	-0.951523178807947	0.313377483443709	1.2553642384106	-0.624900662251656				0.960953642384106	0.0957880794701987	0.221139072847682	6.59390728476821	3.66781456953642	0.81403973509934				-0.250172185430464	-0.161271523178808	-0.90394701986755	1.96741721854305	1.54649006622517	-2.44026490066225				0.624529801324503	-0.160529801324503	-0.789721854304636	-2.27708609271523	-5.9764238410596	-10.1356291390728				0.964026490066225	0.0514966887417219	0.213933774834437	-0.328211920529802	3.41192052980132	-5.93748344370861				0.447788079470199	-0.0308344370860927	-0.884238410596026	4.50039735099338	3.51761589403974	-7.75470198675497			
12	260	-0.184158940397351	0.194754966887417	-0.919523178807947	-5.84662251655629	1.5353642384106	2.17509933774834				0.976953642384106	0.0637880794701987	0.285139072847682	4.35390728476821	-2.49218543046358	1.37403973509934				-0.218172185430464	-0.177271523178808	-0.85594701986755	8.96741721854305	3.22649006622517	-6.08026490066225				0.640529801324503	-0.112529801324503	-0.773721854304636	1.92291390728477	-5.9764238410596	-7.61562913907285				0.964026490066225	0.0354966887417219	0.149933774834437	5.8317880794702	1.73192052980133	-6.49748344370861				0.447788079470199	-0.0788344370860927	-0.900238410596026	7.58039735099338	-3.76238410596027	-9.43470198675497			
13	280	-0.168158940397351	0.130754966887417	-0.967523178807947	0.0333774834437086	-0.984635761589404	3.29509933774834				0.944953642384106	0.0957880794701987	0.237139072847682	4.07390728476821	-12.5721854304636	1.65403973509934				-0.234172185430464	-0.129271523178808	-0.80794701986755	15.687417218543	-4.61350993377483	-4.96026490066225				0.624529801324503	-0.112529801324503	-0.773721854304636	1.64291390728477	-13.5364238410596	-10.9756291390728				0.948026490066225	0.0674966887417219	0.165933774834437	6.3917880794702	4.53192052980133	-6.77748344370861				0.399788079470199	-0.110834437086093	-0.916238410596027	6.46039735099338	-5.72238410596027	-4.11470198675497			
14	300	-0.216158940397351	0.162754966887417	-0.919523178807947	-15.0866225165563	1.8153642384106	4.69509933774834				0.976953642384106	0.0957880794701987	0.205139072847682	8.27390728476821	-8.09218543046358	3.05403973509934				-0.250172185430464	-0.145271523178808	-0.88794701986755	3.08741721854305	-4.05350993377483	-2.44026490066225				0.592529801324503	-0.128529801324503	-0.789721854304636	1.08291390728477	-14.0964238410596	-11.8156291390728				0.932026490066225	0.0994966887417219	0.181933774834437	5.5517880794702	2.29192052980133	-4.25748344370861				0.383788079470199	-0.0788344370860927	-0.868238410596026	-5.85960264900662	-0.962384105960265	6.80529801324503			
15	320	-0.232158940397351	0.146754966887417	-0.967523178807947	-16.2066225165563	2.9353642384106	3.29509933774834				0.992953642384106	0.0477880794701987	0.253139072847682	7.15390728476821	-19.5721854304636	6.13403973509934				-0.250172185430464	-0.145271523178808	-0.91994701986755	1.40741721854305	-0.693509933774834	-2.44026490066225				0.592529801324503	-0.192529801324503	-0.821721854304636	1.36291390728477	-21.0964238410596	-12.3756291390728				0.916026490066225	0.0834966887417219	0.165933774834437	13.3917880794702	1.73192052980133	-3.41748344370861				0.399788079470199	-0.0148344370860927	-0.916238410596027	-15.9396026490066	2.11761589403974	13.805298013245			
16	340	-0.152158940397351	0.258754966887417	-0.983523178807947	-24.0466225165563	3.7753642384106	7.49509933774834				0.928953642384106	0.0317880794701987	0.221139072847682	0.433907284768212	-15.3721854304636	2.77403973509934				-0.186172185430464	-0.0972715231788079	-0.82394701986755	5.88741721854305	-4.05350993377483	-1.60026490066225				0.608529801324503	-0.192529801324503	-0.869721854304636	-3.39708609271523	-20.2564238410596	-18.2556291390728				0.900026490066225	0.0514966887417219	0.117933774834437	13.6717880794702	9.57192052980133	-4.25748344370861				0.431788079470199	-0.0628344370860927	-0.964238410596026	22.7003973509934	-8.24238410596027	14.925298013245			
17	360	-0.120158940397351	0.194754966887417	-0.855523178807947	-34.4066225165563	-4.0646357615894	10.8550993377483				0.896953642384106	0.0957880794701987	0.269139072847682	-2.08609271523179	-18.7321854304636	0.25403973509934				-0.218172185430464	-0.129271523178808	-0.85594701986755	6.44741721854305	-6.85350993377483	-1.32026490066225				0.512529801324503	-0.0645298013245033	-0.821721854304636	-15.9970860927152	-30.8964238410596	-28.0556291390728				0.980026490066225	0.0354966887417219	0.117933774834437	9.7517880794702	23.5719205298013	-2.85748344370861				0.399788079470199	-0.206834437086093	-0.868238410596026	33.6203973509934	-20.5623841059603	24.725298013245			
18	380	-0.184158940397351	0.114754966887417	-0.919523178807947	-5.00662251655629	-8.54463576158941	3.57509933774835				0.912953642384106	0.0477880794701987	0.157139072847682	1.83390728476821	-3.61218543046358	3.05403973509934				-0.250172185430464	-0.193271523178808	-0.88794701986755	3.92741721854305	-3.77350993377483	-2.44026490066225				0.400529801324503	-0.0805298013245033	-0.773721854304636	-26.3570860927152	-37.3364238410596	-35.0556291390728				0.932026490066225	0.0674966887417219	0.165933774834437	5.8317880794702	18.5319205298013	-1.17748344370861				0.303788079470199	-0.222834437086093	-0.804238410596027	14.8603973509934	-12.1623841059603	36.205298013245			
19	400	-0.248158940397351	0.114754966887417	-0.967523178807947	14.0333774834437	-7.1446357615894	-2.30490066225166				0.944953642384106	0.0477880794701987	0.109139072847682	0.153907284768212	30.2678145695364	3.33403973509934				-0.266172185430464	-0.209271523178808	-0.95194701986755	7.84741721854305	-1.25350993377483	-3.28026490066225				0.400529801324503	-0.160529801324503	-0.773721854304636	-25.7970860927152	-32.2964238410596	-35.3356291390729				0.884026490066225	0.0674966887417219	0.149933774834437	5.2717880794702	13.2119205298013	-2.01748344370861				0.287788079470199	-0.110834437086093	-0.852238410596026	-1.65960264900662	6.87761589403974	38.165298013245			
20	420	-0.248158940397351	0.178754966887417	-0.967523178807947	5.63337748344371	-0.144635761589404	-3.14490066225166				0.960953642384106	0.0157880794701987	0.205139072847682	-5.44609271523179	44.8278145695364	7.81403973509934				-0.218172185430464	-0.225271523178808	-0.88794701986755	12.607417218543	-3.49350993377483	-7.48026490066225				0.432529801324503	-0.176529801324503	-0.821721854304636	-15.7170860927152	-23.8964238410596	-31.6956291390729				0.868026490066225	0.0194966887417219	0.181933774834437	3.0317880794702	19.6519205298013	-1.45748344370861				0.367788079470199	0.00116556291390731	-0.900238410596026	8.14039735099338	14.9976158940397	35.365298013245			
21	440	-0.184158940397351	0.194754966887417	-0.919523178807947	-12.8466225165563	-1.2646357615894	0.775099337748344				0.960953642384106	0.0317880794701987	0.333139072847682	-9.08609271523179	38.6678145695364	6.13403973509934				-0.218172185430464	-0.177271523178808	-0.79194701986755	15.127417218543	-4.61350993377483	-7.20026490066225				0.448529801324503	-0.0965298013245033	-0.837721854304636	-20.1970860927152	-18.5764238410596	-35.0556291390728				0.900026490066225	0.0354966887417219	0.181933774834437	7.2317880794702	30.8519205298013	-2.57748344370861				0.383788079470199	-0.110834437086093	-0.900238410596026	40.0603973509934	5.75761589403974	36.485298013245			
22	460	-0.200158940397351	0.114754966887417	-0.903523178807947	-5.28662251655629	-5.4646357615894	2.45509933774835				0.944953642384106	0.0637880794701987	0.285139072847682	-3.76609271523179	17.6678145695364	7.53403973509934				-0.234172185430464	-0.145271523178808	-0.79194701986755	4.76741721854305	-7.69350993377483	-5.24026490066225				0.448529801324503	-0.0165298013245033	-0.789721854304636	-24.6770860927152	-17.1764238410596	-34.7756291390728				0.980026490066225	0.0514966887417219	0.197933774834437	4.9917880794702	34.2119205298013	-3.41748344370861				0.335788079470199	-0.222834437086093	-0.788238410596027	42.0203973509934	0.997615894039735	44.325298013245			
23	480	-0.232158940397351	0.146754966887417	-0.919523178807947	12.0733774834437	-4.3446357615894	-0.344900662251656				0.944953642384106	0.0317880794701987	0.109139072847682	-2.92609271523179	29.4278145695364	9.21403973509934				-0.282172185430464	-0.193271523178808	-0.88794701986755	1.40741721854305	-3.77350993377483	-2.72026490066225				0.464529801324503	-0.0965298013245033	-0.773721854304636	-21.8770860927152	-18.5764238410596	-31.6956291390729				1.01202649006623	0.115496688741722	0.133933774834437	2.1917880794702	34.2119205298013	2.74251655629139				0.367788079470199	-0.206834437086093	-0.788238410596027	10.6603973509934	4.63761589403974	50.765298013245			
24	500	-0.312158940397351	0.210754966887417	-0.983523178807947	4.79337748344371	-5.7446357615894	-2.58490066225166				0.976953642384106	0.0157880794701987	0.157139072847682	-7.12609271523179	49.5878145695364	9.21403973509934				-0.314172185430464	-0.225271523178808	-0.91994701986755	1.12741721854305	-2.09350993377483	-2.16026490066225				0.448529801324503	-0.144529801324503	-0.821721854304636	-22.7170860927152	-14.9364238410596	-19.6556291390729				0.996026490066225	0.0674966887417219	0.229933774834437	3.3117880794702	27.2119205298013	8.06251655629139				0.495788079470199	-0.158834437086093	-0.868238410596026	-5.85960264900662	10.7976158940397	51.885298013245			
25	520	-0.312158940397351	0.226754966887417	-1.06352317880795	0.0333774834437086	-4.6246357615894	-0.904900662251656				1.00895364238411	0.0477880794701987	0.237139072847682	-10.7660927152318	61.0678145695364	9.49403973509934				-0.346172185430464	-0.177271523178808	-0.88794701986755	-2.79258278145695	-1.81350993377483	-1.04026490066225				0.400529801324503	-0.0965298013245033	-0.773721854304636	-27.1970860927152	-2.3364238410596	-7.33562913907285				0.900026490066225	-0.0285033112582781	0.405933774834437	3.0317880794702	22.7319205298013	7.22251655629139				0.511788079470199	-0.126834437086093	-0.868238410596026	5.90039735099338	9.67761589403974	46.845298013245			
26	540	-0.280158940397351	0.194754966887417	-0.855523178807947	3.39337748344371	7.6953642384106	0.495099337748344				1.12095364238411	0.0797880794701987	0.461139072847682	-13.0060927152318	57.9878145695364	8.37403973509934				-0.378172185430464	-0.145271523178808	-0.88794701986755	-6.43258278145695	2.94649006622517	2.31973509933775				0.528529801324503	-0.000529801324503289	-0.789721854304636	-17.6770860927152	13.3435761589404	-0.0556291390728476				1.01202649006623	0.0194966887417219	0.437933774834437	-14.0482119205298	26.0919205298013	5.54251655629139				0.559788079470199	-0.190834437086093	-0.820238410596026	24.1003973509934	7.71761589403974	33.965298013245			
27	560	-0.296158940397351	0.130754966887417	-0.887523178807947	15.7133774834437	7.9753642384106	-2.86490066225166				1.13695364238411	0.0477880794701987	0.509139072847682	-5.72609271523179	32.5078145695364	3.89403973509934				-0.346172185430464	-0.193271523178808	-0.88794701986755	6.72741721854305	8.82649006622517	4.55973509933775				0.688529801324503	0.0154701986754967	-0.789721854304636	-2.83708609271523	23.7035761589404	6.10437086092715				1.09202649006623	0.0354966887417219	0.421933774834437	-10.1282119205298	20.4919205298013	6.38251655629139				0.639788079470199	-0.254834437086093	-0.868238410596026	14.5803973509934	16.3976158940397	23.885298013245			
28	580	-0.280158940397351	0.114754966887417	-0.967523178807947	-1.08662251655629	10.2153642384106	3.29509933774834				1.04095364238411	-0.000211920529801304	0.477139072847682	-1.80609271523179	13.1878145695364	0.53403973509934				-0.250172185430464	-0.225271523178808	-0.91994701986755	14.007417218543	6.86649006622517	4.55973509933775				0.896529801324503	-0.000529801324503289	-0.885721854304636	16.4829139072848	23.7035761589404	18.1443708609272				1.01202649006623	0.0354966887417219	0.517933774834437	-6.7682119205298	15.4519205298013	6.94251655629139				0.655788079470199	-0.286834437086093	-0.916238410596027	18.7803973509934	21.9976158940397	14.365298013245			
29	600	-0.184158940397351	0.130754966887417	-0.919523178807947	2.55337748344371	14.1353642384106	4.69509933774834				0.960953642384106	-0.0482119205298013	0.365139072847682	-6.00609271523179	-2.77218543046358	0.25403973509934				-0.186172185430464	-0.225271523178808	-0.87194701986755	8.12741721854305	10.2264900662252	1.75973509933775				0.992529801324503	-0.000529801324503289	-0.885721854304636	7.80291390728477	12.2235761589404	25.7043708609272				0.964026490066225	0.0514966887417219	0.517933774834437	-3.1282119205298	10.4119205298013	6.38251655629139				0.543788079470199	-0.382834437086093	-0.804238410596027	37.2603973509934	11.0776158940397	12.965298013245			
30	620	-0.184158940397351	0.114754966887417	-0.935523178807947	3.39337748344371	11.3353642384106	6.37509933774834				0.928953642384106	-0.0322119205298013	0.429139072847682	-10.7660927152318	-10.3321854304636	3.05403973509934				-0.170172185430464	-0.225271523178808	-0.85594701986755	0.00741721854304636	8.54649006622517	0.91973509933775				0.832529801324503	-0.0165298013245033	-0.885721854304636	-19.9170860927152	-15.2164238410596	18.1443708609272				0.932026490066225	0.0194966887417219	0.453933774834437	7.2317880794702	4.53192052980133	5.26251655629139				0.511788079470199	-0.478834437086093	-0.740238410596026	22.7003973509934	3.79761589403974	23.045298013245			
31	640	-0.168158940397351	0.0987549668874172	-0.983523178807947	-4.72662251655629	9.6553642384106	6.93509933774835				0.896953642384106	-0.0322119205298013	0.397139072847682	-18.3260927152318	-24.6121854304636	4.73403973509934				-0.186172185430464	-0.209271523178808	-0.80794701986755	0.847417218543046	8.54649006622517	1.19973509933775				0.688529801324503	-0.000529801324503289	-0.805721854304636	-40.6370860927152	-27.8164238410596	8.90437086092715				0.900026490066225	-0.0285033112582781	0.437933774834437	6.9517880794702	-1.90807947019868	1.90251655629139				0.575788079470199	-0.462834437086093	-0.788238410596027	-6.97960264900662	-1.80238410596026	40.965298013245			
32	660	-0.152158940397351	0.0987549668874172	-0.935523178807947	-2.48662251655629	8.8153642384106	7.21509933774835				0.992953642384106	-0.0162119205298013	0.445139072847682	-25.6060927152318	-37.7721854304636	1.65403973509934				-0.202172185430464	-0.209271523178808	-0.83994701986755	5.60741721854305	5.74649006622517	0.91973509933775				0.576529801324503	-0.0325298013245033	-0.693721854304636	-49.5970860927152	-30.3364238410596	9.74437086092715				0.884026490066225	-0.0125033112582781	0.389933774834437	1.0717880794702	2.01192052980133	0.222516556291392				0.575788079470199	-0.334834437086093	-0.740238410596026	-27.9796026490066	-15.5223841059603	52.725298013245			
33	680	-0.152158940397351	0.130754966887417	-0.919523178807947	-2.20662251655629	7.4153642384106	8.61509933774835				0.896953642384106	0.0317880794701987	0.413139072847682	-23.9260927152318	-66.8921854304636	-0.86596026490066				-0.186172185430464	-0.177271523178808	-0.83994701986755	7.56741721854305	6.86649006622517	1.19973509933775				0.496529801324503	-0.0325298013245033	-0.677721854304636	-44.5570860927152	-39.2964238410596	16.1843708609272				0.868026490066225	0.00349668874172187	0.357933774834437	-7.8882119205298	-1.34807947019868	1.06251655629139				0.543788079470199	-0.254834437086093	-0.692238410596026	-16.4996026490066	-18.3223841059603	46.285298013245			
34	700	-0.152158940397351	0.146754966887417	-0.919523178807947	-3.60662251655629	5.1753642384106	9.45509933774835				0.800953642384106	0.0157880794701987	0.253139072847682	-18.3260927152318	-50.9321854304636	2.77403973509934				-0.202172185430464	-0.161271523178808	-0.85594701986755	6.16741721854305	5.18649006622517	1.75973509933775				0.496529801324503	-0.0165298013245033	-0.693721854304636	-21.5970860927152	-40.9764238410596	21.2243708609272				0.836026490066225	-0.0765033112582781	0.421933774834437	-4.8082119205298	1.73192052980133	1.90251655629139				0.511788079470199	-0.254834437086093	-0.708238410596026	-6.41960264900662	-17.7623841059603	34.805298013245			
35	720	-0.152158940397351	0.162754966887417	-0.935523178807947	-4.72662251655629	3.2153642384106	11.1350993377483				0.976953642384106	-0.0482119205298013	0.285139072847682	-11.6060927152318	-34.1321854304636	-5.62596026490066				-0.106172185430464	-0.241271523178808	-0.85594701986755	9.52741721854305	0.706490066225167	1.47973509933775				0.576529801324503	-0.0165298013245033	-0.741721854304636	-5.63708609271523	-25.5764238410596	32.9843708609272				0.884026490066225	-0.0605033112582781	0.421933774834437	-12.0882119205298	0.611920529801325	0.782516556291392				0.479788079470199	-0.334834437086093	-0.788238410596027	-4.17960264900662	-17.7623841059603	25.845298013245			
36	740	-0.168158940397351	0.162754966887417	-0.935523178807947	-6.68662251655629	3.4953642384106	12.5350993377483				1.04095364238411	-0.000211920529801304	0.349139072847682	4.35390728476821	-71.3721854304636	-7.86596026490066				-0.346172185430464	-0.209271523178808	-0.85594701986755	-3.63258278145695	-1.25350993377483	0.63973509933775				0.640529801324503	-0.0805298013245033	-0.805721854304636	-0.317086092715232	-8.7764238410596	43.3443708609272				0.852026490066225	0.0194966887417219	0.405933774834437	-10.1282119205298	-10.0280794701987	-1.17748344370861				0.479788079470199	-0.286834437086093	-0.804238410596027	1.98039735099338	-12.1623841059603	24.445298013245			
37	760	-0.136158940397351	0.178754966887417	-0.935523178807947	-9.76662251655629	1.2553642384106	13.3750993377483				0.848953642384106	0.0317880794701987	0.237139072847682	9.11390728476821	-91.5321854304636	1.09403973509934				-0.186172185430464	-0.241271523178808	-0.85594701986755	-0.272582781456954	-5.45350993377483	-1.04026490066225				0.736529801324503	-0.000529801324503289	-0.741721854304636	-13.4770860927152	-20.5364238410596	35.7843708609272				0.852026490066225	0.0514966887417219	0.389933774834437	-5.6482119205298	-8.90807947019868	0.502516556291392				0.383788079470199	-0.334834437086093	-0.756238410596026	16.8203973509934	-21.9623841059603	26.125298013245			
38	780	-0.152158940397351	0.178754966887417	-0.951523178807947	-9.48662251655629	1.5353642384106	12.5350993377483				0.864953642384106	-0.0162119205298013	0.221139072847682	-5.44609271523179	-26.0121854304636	5.29403973509934				-0.234172185430464	-0.225271523178808	-0.87194701986755	-14.832582781457	-2.09350993377483	-1.04026490066225				0.768529801324503	0.143470198675497	-0.805721854304636	-24.6770860927152	-53.2964238410596	32.9843708609272				0.900026490066225	0.0194966887417219	0.405933774834437	-4.8082119205298	-3.86807947019868	1.62251655629139				0.351788079470199	-0.414834437086093	-0.804238410596027	8.98039735099338	-33.7223841059603	27.525298013245			
39	800	-0.136158940397351	0.210754966887417	-0.967523178807947	-8.36662251655629	0.415364238410596	10.0150993377483				1.02495364238411	-0.000211920529801304	0.381139072847682	-15.2460927152318	-9.77218543046358	1.65403973509934				-0.202172185430464	-0.209271523178808	-0.85594701986755	-7.83258278145695	-0.133509933774833	-1.60026490066225				0.736529801324503	0.0314701986754967	-0.917721854304636	-38.1170860927152	-81.0164238410596	19.8243708609272				0.900026490066225	0.00349668874172187	0.405933774834437	-2.5682119205298	-15.0680794701987	2.46251655629139				0.415788079470199	-0.414834437086093	-0.868238410596026	-5.29960264900662	-38.2023841059603	34.805298013245			
40	820	-0.136158940397351	0.242754966887417	-0.983523178807947	-5.84662251655629	0.975364238410596	7.77509933774834				1.02495364238411	-0.0162119205298013	0.333139072847682	-8.52609271523179	-31.0521854304636	0.53403973509934				-0.234172185430464	-0.193271523178808	-0.83994701986755	9.80741721854305	-4.61350993377483	-3.56026490066225				0.560529801324503	-0.0325298013245033	-0.933721854304636	-52.3970860927152	-76.5364238410596	3.58437086092715				0.900026490066225	0.0194966887417219	0.389933774834437	1.9117880794702	-13.1080794701987	1.90251655629139				0.415788079470199	-0.350834437086093	-0.884238410596026	-13.9796026490066	-43.5223841059603	37.605298013245			
41	840	-0.120158940397351	0.274754966887417	-0.983523178807947	-7.24662251655629	3.2153642384106	6.93509933774835				0.992953642384106	0.0637880794701987	0.189139072847682	3.23390728476821	-39.4521854304636	-0.30596026490066				-0.186172185430464	-0.225271523178808	-0.95194701986755	4.48741721854305	-2.37350993377483	-2.72026490066225				0.496529801324503	-0.000529801324503289	-0.869721854304636	-52.3970860927152	-75.4164238410596	-14.0556291390728				0.916026490066225	0.00349668874172187	0.389933774834437	10.3117880794702	-3.86807947019868	0.502516556291392				0.335788079470199	-0.318834437086093	-0.900238410596026	6.18039735099338	-44.3623841059603	34.805298013245			
42	860	-0.104158940397351	0.322754966887417	-0.967523178807947	-9.48662251655629	4.3353642384106	9.45509933774835				1.04095364238411	0.111788079470199	0.0771390728476822	5.19390728476821	-33.0121854304636	1.09403973509934				-0.170172185430464	-0.241271523178808	-0.90394701986755	-3.91258278145695	1.26649006622517	-3.28026490066225				0.464529801324503	0.175470198675497	-0.997721854304636	-28.5970860927152	-91.9364238410596	-24.1356291390729				0.964026490066225	0.0354966887417219	0.341933774834437	2.7517880794702	5.09192052980133	-2.85748344370861				0.351788079470199	-0.318834437086093	-1.01223841059603	18.5003973509934	-41.8423841059603	36.485298013245			
43	880	-0.152158940397351	0.274754966887417	-0.903523178807947	-18.4466225165563	3.7753642384106	10.0150993377483				0.880953642384106	0.143788079470199	0.0291390728476822	11.0739072847682	-19.2921854304636	1.65403973509934				-0.186172185430464	-0.193271523178808	-0.80794701986755	1.40741721854305	-7.13350993377484	-2.44026490066225				0.448529801324503	0.127470198675497	-1.18972185430464	-38.9570860927152	-106.77642384106	-27.4956291390729				1.01202649006623	0.0834966887417219	0.261933774834437	-1.4482119205298	-5.54807947019868	-2.29748344370861				0.319788079470199	-0.350834437086093	-1.14023841059603	20.4603973509934	-69.5623841059603	41.805298013245			
44	900	-0.184158940397351	0.226754966887417	-0.903523178807947	-22.3666225165563	-2.3846357615894	6.09509933774834				0.960953642384106	0.159788079470199	0.125139072847682	32.0739072847682	-1.65218543046358	3.05403973509934				-0.266172185430464	-0.161271523178808	-0.85594701986755	-0.552582781456954	-23.6535099337748	0.91973509933775				0.432529801324503	-0.0965298013245033	-1.31772185430464	-11.7970860927152	-118.53642384106	-46.8156291390729				1.06002649006623	0.147496688741722	0.133933774834437	-4.5282119205298	-23.4680794701987	-2.57748344370861				0.271788079470199	-0.334834437086093	-1.20423841059603	26.0603973509934	-82.4423841059603	55.805298013245			
45	920	-0.248158940397351	0.258754966887417	-1.14352317880795	-23.4866225165563	-12.4646357615894	0.215099337748344				1.00895364238411	-0.0162119205298013	0.109139072847682	23.3939072847682	3.10781456953642	13.1340397350993				-0.346172185430464	-0.161271523178808	-0.88794701986755	1.12741721854305	-18.6135099337748	4.55973509933775				0.224529801324503	-0.0165298013245033	-1.22172185430464	-67.2370860927152	-136.73642384106	-64.4556291390729				1.04402649006623	0.115496688741722	0.0379337748344371	-3.9682119205298	-25.7080794701987	-6.77748344370861				0.0637880794701987	-0.430834437086093	-1.07623841059603	37.8203973509934	-99.5223841059603	83.525298013245			
46	960	0	0	0	0	0	0				1.07295364238411	0.0797880794701987	-0.0988609271523179	-15.5260927152318	49.8678145695364	10.3340397350993				-0.474172185430464	-0.161271523178808	-1.30394701986755	29.9674172185431	18.0664900662252	2.03973509933775				0.0165298013245033	0.0794701986754967	-1.26972185430464	-120.157086092715	-145.97642384106	-82.3756291390729				1.38002649006623	-0.0285033112582781	0.00593377483443711	-4.5282119205298	-29.3480794701987	-2.29748344370861				-0.0322119205298013	-0.350834437086093	-1.28423841059603	39.2203973509934	-63.4023841059603	121.045298013245			
47	980	-0.472158940397351	0.530754966887417	-1.12752317880795	-22.0866225165563	22.5353642384106	6.65509933774834				1.37695364238411	0.127788079470199	-0.0348609271523178	-1.52609271523179	85.1478145695364	7.25403973509934				-0.554172185430464	-0.273271523178808	-1.04794701986755	-19.312582781457	23.6664900662252	-6.36026490066225				0.000529801324503301	0.239470198675497	-1.06172185430464	-125.477086092715	-121.61642384106	-72.2956291390729				1.70002649006623	0.0194966887417219	0.149933774834437	4.7117880794702	-24.3080794701987	-2.85748344370861				0.0477880794701987	-0.382834437086093	-1.07623841059603	28.5803973509934	-88.0423841059603	123.565298013245			
48	1000	-0.760158940397351	0.178754966887417	-1.23952317880795	7.59337748344371	41.2953642384106	10.5750993377483				1.90495364238411	0.143788079470199	0.301139072847682	-2.08609271523179	119.307814569536	6.41403973509934				-0.794172185430464	-0.0332715231788079	-1.35194701986755	-15.672582781457	42.4264900662252	-11.4002649006623				0.0325298013245033	0.447470198675497	-0.965721854304636	-85.1570860927152	-89.4164238410596	-59.4156291390729				1.63602649006623	0.115496688741722	0.341933774834437	16.4717880794702	-6.94807947019868	2.74251655629139				-0.112211920529801	-0.750834437086093	-0.772238410596026	11.7803973509934	-66.7623841059603	123.285298013245			
49	1020	-0.520158940397351	0.370754966887417	-1.17552317880795	10.1133774834437	64.5353642384106	25.9750993377483				2.00095364238411	-0.0482119205298013	0.989139072847682	-1.52609271523179	98.5878145695364	6.41403973509934				-0.714172185430464	-0.161271523178808	-0.98394701986755	10.367417218543	66.7864900662252	-13.6402649006623				-0.0794701986754967	0.559470198675497	-1.15772185430464	12.8429139072848	-20.5364238410596	-14.3356291390729				1.42802649006623	0.0514966887417219	0.997933774834437	58.7517880794702	-11.4280794701987	5.26251655629139				0.111788079470199	-0.686834437086093	-0.980238410596026	-66.6196026490066	41.3176158940397	81.285298013245			
50	1040	-0.264158940397351	0.482754966887417	-1.12752317880795	29.7133774834437	82.4553642384106	30.1750993377483				1.77695364238411	-0.000211920529801304	0.989139072847682	15.8339072847682	2.26781456953642	-3.94596026490066				-0.378172185430464	-0.449271523178808	-1.07994701986755	-6.43258278145695	81.6264900662252	-18.1202649006623				0.128529801324503	0.527470198675497	-1.26972185430464	36.3629139072848	48.0635761589404	17.0243708609272				1.33202649006623	0.0354966887417219	1.15793377483444	24.8717880794702	-22.3480794701987	1.62251655629139				0.415788079470199	-0.414834437086093	-1.15623841059603	-57.3796026490066	73.5176158940397	42.085298013245			
51	1060	-0.136158940397351	0.402754966887417	-1.15952317880795	52.9533774834437	101.495364238411	31.8550993377483				1.47295364238411	-0.0642119205298013	0.413139072847682	9.11390728476821	-8.09218543046358	-10.9459602649007				-0.186172185430464	-0.369271523178808	-1.17594701986755	-33.032582781457	104.866490066225	-17.8402649006623				0.304529801324503	0.575470198675497	-1.17372185430464	63.8029139072848	68.7835761589404	38.5843708609272				1.52402649006623	0.195496688741722	0.469933774834437	-24.1282119205298	22.1719205298013	-10.1374834437086				0.303788079470199	-0.574834437086093	-0.964238410596026	-41.6996026490066	79.6776158940397	32.565298013245			
52	1080	0.039841059602649	0.290754966887417	-1.11152317880795	80.6733774834437	114.655364238411	26.5350993377483				1.47295364238411	-0.0802119205298013	0.477139072847682	-7.40609271523179	20.1878145695364	-10.1059602649007				-0.0261721854304636	-0.513271523178808	-1.11194701986755	-50.672582781457	123.346490066225	-16.1602649006623				0.352529801324503	0.479470198675497	-1.36572185430464	89.0029139072848	52.2635761589404	52.8643708609272				1.26802649006623	0.227496688741722	0.453933774834437	40.2717880794702	-31.8680794701987	7.22251655629139				0.367788079470199	-0.718834437086093	-0.948238410596026	-45.8996026490066	102.07761589404	35.085298013245			
53	1100	0.087841059602649	0.0827549668874172	-1.17552317880795	74.2333774834437	123.335364238411	17.0150993377483				1.29695364238411	-0.176211920529801	0.477139072847682	-25.6060927152318	-10.6121854304636	3.05403973509934				-0.0101721854304636	-0.113271523178808	-1.06394701986755	-69.432582781457	133.426490066225	-9.16026490066225				0.432529801324503	0.207470198675497	-1.54172185430464	52.3229139072848	24.8235761589404	53.9843708609272				1.25202649006623	0.0674966887417219	0.725933774834437	39.1517880794702	-22.9080794701987	7.22251655629139				0.527788079470199	-0.718834437086093	-1.04423841059603	-63.8196026490066	126.71761589404	38.725298013245			
54	1120	0.183841059602649	-0.0932450331125828	-1.11152317880795	47.0733774834437	138.735364238411	10.8550993377483				1.40895364238411	-0.0162119205298013	0.733139072847682	-42.4060927152318	-28.5321854304636	6.97403973509934				0.0538278145695364	-0.161271523178808	-1.04794701986755	-13.992582781457	140.706490066225	-5.80026490066225				0.448529801324503	0.0474701986754967	-1.33372185430464	1.36291390728477	20.9035761589404	53.4243708609272				1.36402649006623	0.00349668874172187	0.501933774834437	-10.9682119205298	-9.74807947019868	-6.21748344370861				0.591788079470199	-0.558834437086093	-1.22023841059603	-69.1396026490066	131.75761589404	34.805298013245			
55	1140	0.279841059602649	0.162754966887417	-1.07952317880795	21.8733774834437	148.535364238411	6.65509933774834				1.52095364238411	0.0637880794701987	0.557139072847682	-30.0860927152318	-53.7321854304636	9.21403973509934				0.229827814569536	-0.289271523178808	-1.03194701986755	5.60741721854305	148.826490066225	-5.80026490066225				0.192529801324503	0.159470198675497	-1.07772185430464	-9.27708609271523	34.0635761589404	61.2643708609272				1.26802649006623	-0.0445033112582781	0.421933774834437	2.7517880794702	-13.3880794701987	-4.25748344370861				0.431788079470199	-0.446834437086093	-1.23623841059603	-7.53960264900662	107.11761589404	22.205298013245			
56	1160	0.279841059602649	0.210754966887417	-1.06352317880795	19.0733774834437	165.335364238411	12.8150993377483				1.16895364238411	-0.128211920529801	0.269139072847682	-14.4060927152318	-73.8921854304636	13.1340397350993				0.309827814569536	-0.225271523178808	-0.98394701986755	6.16741721854305	160.026490066225	-1.88026490066225				-0.0154701986754967	0.335470198675497	-0.965721854304636	0.522913907284768	58.7035761589404	64.3443708609272				1.10802649006623	-0.0125033112582781	0.389933774834437	-20.4882119205298	1.73192052980133	-4.53748344370861				0.255788079470199	-0.526834437086093	-0.868238410596026	13.4603973509934	120.55761589404	35.925298013245			
57	1180	0.439841059602649	0.0347549668874172	-0.951523178807947	26.9133774834437	176.535364238411	14.4950993377483				1.08895364238411	-0.208211920529801	0.141139072847682	-27.8460927152318	-52.6121854304636	3.61403973509934				0.309827814569536	-0.241271523178808	-0.88794701986755	3.36741721854305	163.946490066225	0.63973509933775				0.000529801324503301	0.319470198675497	-0.901721854304636	38.0429139072848	86.4235761589404	74.1443708609272				1.07602649006623	-0.0125033112582781	0.293933774834437	-30.2882119205298	6.49192052980132	1.62251655629139				0.287788079470199	-0.462834437086093	-0.788238410596027	-11.7396026490066	148.55761589404	37.885298013245			
58	1200	0.551841059602649	0.0667549668874172	-0.903523178807947	17.3933774834437	178.495364238411	14.4950993377483				1.10495364238411	0.0477880794701987	0.253139072847682	-33.7260927152318	-40.8521854304636	-0.585960264900661				0.453827814569536	-0.145271523178808	-0.80794701986755	-0.832582781456954	171.226490066225	-2.16026490066225				0.176529801324503	0.0634701986754967	-0.869721854304636	61.5629139072848	105.46357615894	85.3443708609272				0.980026490066225	-0.0925033112582781	0.229933774834437	-7.3282119205298	-5.82807947019868	6.94251655629139				0.383788079470199	-0.334834437086093	-0.884238410596026	-11.7396026490066	151.35761589404	20.525298013245			
59	1220	0.487841059602649	0.0667549668874172	-0.823523178807947	8.71337748344371	172.895364238411	13.0950993377483				0.976953642384106	0.207788079470199	0.189139072847682	7.15390728476821	-65.7721854304636	3.61403973509934				0.469827814569536	-0.113271523178808	-0.72794701986755	15.407417218543	172.906490066225	-4.12026490066225				0.288529801324503	-0.0805298013245033	-0.885721854304636	51.4829139072848	104.62357615894	80.5843708609272				0.948026490066225	-0.0445033112582781	0.181933774834437	-28.8882119205298	-0.228079470198675	-1.45748344370861				0.447788079470199	-0.174834437086093	-0.804238410596027	3.10039735099338	141.83761589404	2.88529801324503			
60	1240	0.455841059602649	0.0507549668874172	-0.743523178807947	3.95337748344371	166.735364238411	11.6950993377483				0.960953642384106	-0.0482119205298013	-0.0188609271523178	30.6739072847682	-79.2121854304636	21.8140397350993				0.373827814569536	-0.113271523178808	-0.64794701986755	15.687417218543	165.626490066225	-5.52026490066225				0.352529801324503	0.0634701986754967	-0.757721854304636	50.0829139072848	105.18357615894	61.5443708609272				0.948026490066225	0.00349668874172187	0.0699337748344371	-43.1682119205298	10.1319205298013	-6.49748344370861				0.383788079470199	-0.254834437086093	-0.692238410596026	11.7803973509934	133.99761589404	3.44529801324503			
61	1260	0.487841059602649	0.0667549668874172	-0.711523178807947	-3.04662251655629	157.215364238411	7.21509933774835				0.768953642384106	-0.128211920529801	-0.194860927152318	-1.80609271523179	-83.1321854304636	11.7340397350993				0.389827814569536	-0.145271523178808	-0.66394701986755	1.96741721854305	158.346490066225	-6.08026490066225				0.256529801324503	0.127470198675497	-0.805721854304636	50.9229139072848	93.9835761589404	53.7043708609272				0.900026490066225	0.0514966887417219	0.0379337748344371	-24.1282119205298	-14.5080794701987	-2.01748344370861				0.287788079470199	-0.302834437086093	-0.692238410596026	-13.6996026490066	139.59761589404	0.365298013245032			
62	1280	0.487841059602649	0.00275496688741723	-0.615523178807947	-1.92662251655629	151.055364238411	3.01509933774834				0.576953642384106	-0.144211920529801	-0.146860927152318	-35.6860927152318	-40.0121854304636	6.69403973509934				0.437827814569536	-0.0652715231788079	-0.66394701986755	-16.512582781457	164.506490066225	-8.04026490066225				0.272529801324503	-0.0325298013245033	-0.725721854304636	36.9229139072848	100.42357615894	39.4243708609272				0.692026490066225	0.0194966887417219	0.0539337748344371	-12.9282119205298	-34.1080794701987	3.86251655629139				0.287788079470199	-0.110834437086093	-0.612238410596026	-52.8996026490066	150.79761589404	0.645298013245032			
63	1300	0.487841059602649	0.0347549668874172	-0.599523178807947	4.23337748344371	145.175364238411	2.73509933774834				0.624953642384106	-0.000211920529801304	-0.00286092715231785	-36.8060927152318	-40.2921854304636	3.61403973509934				0.437827814569536	-0.0492715231788079	-0.61594701986755	-40.592582781457	174.026490066225	-8.60026490066225				0.192529801324503	-0.0325298013245033	-0.469721854304636	35.5229139072848	98.4635761589404	15.6243708609272				0.628026490066225	-0.108503311258278	0.0699337748344371	-11.2482119205298	-37.1880794701987	4.98251655629139				0.239788079470199	0.0651655629139073	-0.644238410596026	-46.1796026490066	147.15761589404	3.16529801324503			
64	1320	0.455841059602649	0.0347549668874172	-0.583523178807947	6.47337748344371	136.775364238411	6.09509933774834				0.656953642384106	0.159788079470199	-0.258860927152318	-18.0460927152318	-71.6521854304636	-2.82596026490066				0.453827814569536	-0.0492715231788079	-0.51994701986755	-40.032582781457	179.066490066225	-10.5602649006623				0.0965298013245033	0.0314701986754967	-0.421721854304636	33.5629139072848	89.2235761589404	8.62437086092715				0.564026490066225	-0.0605033112582781	0.0379337748344371	-27.7682119205298	-42.2280794701987	-0.897483443708608				0.287788079470199	-0.0308344370860927	-0.612238410596026	-1.09960264900662	126.15761589404	4.84529801324503			
65	1340	0.407841059602649	0.0187549668874172	-0.519523178807947	-1.36662251655629	144.055364238411	8.05509933774835				0.480953642384106	0.0637880794701987	-0.194860927152318	-3.76609271523179	-53.7321854304636	0.81403973509934				0.485827814569536	-0.0652715231788079	-0.61594701986755	-33.312582781457	161.426490066225	-13.6402649006623				0.176529801324503	0.0954701986754967	-0.533721854304636	42.5229139072848	83.0635761589404	10.5843708609272				0.548026490066225	0.0994966887417219	-0.0260662251655629	-36.4482119205298	-45.3080794701987	0.502516556291392				0.335788079470199	-0.222834437086093	-0.564238410596026	3.38039735099338	111.31761589404	4.28529801324503			
66	1360	0.487841059602649	0.0987549668874172	-0.583523178807947	1.99337748344371	143.775364238411	10.5750993377483				0.464953642384106	0.0477880794701987	0.0131390728476822	-21.4060927152318	-33.2921854304636	2.21403973509934				-0.122172185430464	0.0147284768211921	-0.55194701986755	-28.832582781457	152.746490066225	-9.72026490066225				0.304529801324503	0.0474701986754967	-0.645721854304636	73.0429139072848	89.2235761589404	2.46437086092715				0.564026490066225	0.163496688741722	-0.0100662251655629	-19.9282119205298	-59.0280794701987	5.26251655629139				0.479788079470199	-0.206834437086093	-0.516238410596026	-18.4596026490066	105.43761589404	5.96529801324503			
67	1380	0.599841059602649	0.0987549668874172	-0.455523178807947	-1.08662251655629	151.615364238411	11.1350993377483				0.592953642384106	-0.0642119205298013	-0.0508609271523178	-18.0460927152318	-30.2121854304636	3.89403973509934				0.373827814569536	-0.00127152317880793	-0.42394701986755	-56.552582781457	146.586490066225	-11.1202649006623				0.384529801324503	-0.128529801324503	-0.629721854304636	82.8429139072848	78.0235761589404	-3.13562913907285				0.548026490066225	0.0194966887417219	-0.0580662251655629	6.1117880794702	-68.5480794701987	16.4625165562914				0.479788079470199	-0.0948344370860927	-0.452238410596026	-41.1396026490066	105.71761589404	15.205298013245			
68	1400	0.679841059602649	0.0347549668874172	-0.423523178807947	4.51337748344371	156.935364238411	15.8950993377483				0.656953642384106	-0.144211920529801	-0.0348609271523178	-2.92609271523179	-40.2921854304636	-0.0259602649006601				0.533827814569536	0.0787284768211921	-0.31194701986755	-66.632582781457	160.026490066225	-9.44026490066225				0.416529801324503	-0.208529801324503	-0.629721854304636	56.5229139072848	43.3035761589404	-6.77562913907285				0.532026490066225	-0.108503311258278	0.0699337748344371	-0.328211920529802	-34.9480794701987	11.7025165562914				0.415788079470199	-0.0148344370860927	-0.436238410596026	-48.9796026490066	105.43761589404	20.245298013245			
69	1420	0.663841059602649	0.0827549668874172	-0.423523178807947	11.7933774834437	155.815364238411	13.3750993377483				0.608953642384106	-0.0802119205298013	-0.0348609271523178	-6.84609271523179	-46.7321854304636	-0.0259602649006601				0.677827814569536	0.0787284768211921	-0.42394701986755	-59.072582781457	150.226490066225	-5.80026490066225				0.464529801324503	-0.208529801324503	-0.581721854304636	5.84291390728477	25.3835761589404	-17.6956291390729				0.596026490066225	-0.108503311258278	0.165933774834437	-5.6482119205298	-35.5080794701987	6.94251655629139				0.479788079470199	-0.0948344370860927	-0.468238410596026	-19.8596026490066	82.7576158940397	10.725298013245			
70	1440	0.615841059602649	0.258754966887417	-0.279523178807947	7.59337748344371	151.335364238411	9.17509933774834				0.528953642384106	0.0157880794701987	-0.00286092715231785	-28.6860927152318	-36.0921854304636	-1.70596026490066				0.741827814569536	-0.00127152317880793	-0.37594701986755	-59.912582781457	149.386490066225	-1.88026490066225				0.384529801324503	-0.112529801324503	-0.501721854304636	-12.9170860927152	23.4235761589404	-22.4556291390729				0.612026490066225	0.00349668874172187	0.0539337748344371	-18.5282119205298	-66.5880794701987	7.22251655629139				0.575788079470199	-0.190834437086093	-0.452238410596026	-6.69960264900662	70.1576158940397	4.00529801324503			
71	1460	0.631841059602649	0.194754966887417	-0.375523178807947	-8.36662251655629	147.135364238411	4.13509933774834				0.496953642384106	0.127788079470199	-0.0348609271523178	-30.3660927152318	-22.9321854304636	-1.14596026490066				0.597827814569536	-0.0492715231788079	-0.32794701986755	-44.792582781457	157.226490066225	-4.40026490066225				0.320529801324503	-0.0325298013245033	-0.501721854304636	6.40291390728477	22.0235761589404	-17.6956291390729				0.564026490066225	0.115496688741722	-0.106066225165563	-22.1682119205298	-64.0680794701987	6.94251655629139				0.575788079470199	-0.126834437086093	-0.468238410596026	-18.4596026490066	44.9576158940397	-1.31470198675497			
72	1480	0.743841059602649	0.210754966887417	-0.295523178807947	18.5133774834437	132.575364238411	-1.46490066225166				0.624953642384106	-0.128211920529801	0.109139072847682	-3.76609271523179	-20.1321854304636	6.41403973509934				0.565827814569536	-0.0652715231788079	-0.24794701986755	-40.872582781457	150.786490066225	-4.68026490066225				0.272529801324503	-0.0485298013245033	-0.517721854304636	21.8029139072848	23.9835761589404	-12.0956291390728				0.484026490066225	0.0834966887417219	0.0699337748344371	-13.7682119205298	-39.7080794701987	7.22251655629139				0.431788079470199	-0.0948344370860927	-0.420238410596026	-19.0196026490066	34.5976158940397	-3.55470198675497			
73	1500	0.775841059602649	0.210754966887417	-0.119523178807947	12.6333774834437	128.095364238411	1.61509933774834				0.528953642384106	-0.0482119205298013	0.0451390728476822	-6.84609271523179	-45.8921854304636	1.93403973509934				0.661827814569536	-0.0172715231788079	-0.34394701986755	-47.312582781457	121.386490066225	0.63973509933775				0.320529801324503	-0.0645298013245033	-0.485721854304636	22.3629139072848	17.8235761589404	-1.45562913907285				0.532026490066225	-0.0445033112582781	0.0379337748344371	2.7517880794702	-28.2280794701987	9.18251655629139				0.399788079470199	-0.110834437086093	-0.436238410596026	-22.0996026490066	28.1576158940397	-4.11470198675497			
74	1520	0.759841059602649	0.146754966887417	-0.263523178807947	21.5933774834437	119.415364238411	7.21509933774835				0.400953642384106	0.0477880794701987	-0.114860927152318	-19.4460927152318	-6.69218543046358	-5.34596026490066				0.805827814569536	0.0787284768211921	-0.26394701986755	-36.112582781457	104.026490066225	1.75973509933775				0.432529801324503	-0.112529801324503	-0.533721854304636	26.0029139072848	3.2635761589404	11.7043708609272				0.612026490066225	-0.0765033112582781	0.0379337748344371	-5.6482119205298	-39.4280794701987	9.46251655629139				0.447788079470199	-0.142834437086093	-0.468238410596026	-25.1796026490066	25.3576158940397	1.48529801324503			
75	1540	0.903841059602649	0.0507549668874172	-0.311523178807947	5.63337748344371	103.455364238411	7.49509933774834				0.688953642384106	0.0157880794701987	0.125139072847682	-17.2060927152318	20.7478145695364	-4.22596026490066				0.885827814569536	0.142728476821192	-0.26394701986755	-9.79258278145695	84.7064900662252	0.63973509933775				0.512529801324503	-0.160529801324503	-0.661721854304636	33.2829139072848	-7.0964238410596	12.2643708609272				0.644026490066225	0.0194966887417219	-0.0260662251655629	-12.6482119205298	-41.6680794701987	4.42251655629139				0.575788079470199	-0.0948344370860927	-0.532238410596027	-21.5396026490066	12.1976158940397	0.645298013245032			
76	1560	0.903841059602649	-0.0132450331125828	-0.247523178807947	-2.76662251655629	86.9353642384106	4.13509933774834				0.720953642384106	0.0637880794701987	0.253139072847682	-1.24609271523179	-2.49218543046358	-5.34596026490066				0.885827814569536	0.158728476821192	-0.29594701986755	7.84741721854305	70.4264900662252	-1.32026490066225				0.576529801324503	-0.208529801324503	-0.757721854304636	20.6829139072848	-5.6964238410596	4.98437086092715				0.692026490066225	0.0354966887417219	-0.0100662251655629	-4.2482119205298	-23.1880794701987	-0.337483443708608				0.559788079470199	-0.110834437086093	-0.548238410596027	-14.8196026490066	2.39761589403974	-6.63470198675497			
77	1580	0.903841059602649	0.114754966887417	-0.151523178807947	-4.72662251655629	70.1353642384106	2.73509933774834				0.720953642384106	-0.0162119205298013	0.109139072847682	9.95390728476821	-8.93218543046358	-1.98596026490066				0.949827814569536	0.0627284768211921	-0.24794701986755	28.567417218543	44.3864900662252	-3.56026490066225				0.592529801324503	-0.176529801324503	-0.757721854304636	-1.43708609271523	-11.2964238410596	2.18437086092715				0.740026490066225	0.0354966887417219	0.0379337748344371	1.6317880794702	-0.508079470198675	-2.57748344370861				0.559788079470199	-0.158834437086093	-0.532238410596027	-11.1796026490066	1.27761589403974	-5.23470198675497			
78	1600	0.871841059602649	0.0347549668874172	-0.087523178807947	2.27337748344371	61.4553642384106	5.81509933774834				0.848953642384106	-0.0642119205298013	-0.0188609271523178	7.15390728476821	5.90781456953642	-2.82596026490066				0.965827814569536	-0.00127152317880793	-0.24794701986755	54.6074172185431	25.9064900662252	-8.60026490066225				0.640529801324503	-0.112529801324503	-0.805721854304636	-1.43708609271523	-28.9364238410596	7.78437086092715				0.836026490066225	-0.0125033112582781	0.0539337748344371	5.8317880794702	1.17192052980133	-3.13748344370861				0.639788079470199	-0.174834437086093	-0.548238410596027	-3.33960264900662	4.63761589403974	-2.43470198675497			
79	1620	0.935841059602649	-0.0132450331125828	-0.103523178807947	-10.6066225165563	53.6153642384106	6.65509933774834				0.912953642384106	0.0157880794701987	0.141139072847682	-0.126092715231788	26.9078145695364	-6.18596026490066				1.01382781456954	-0.0972715231788079	-0.24794701986755	45.6474172185431	10.7864900662252	-8.32026490066225				0.704529801324503	-0.160529801324503	-0.837721854304636	-13.4770860927152	-39.2964238410596	6.10437086092715				0.932026490066225	-0.0445033112582781	0.0539337748344371	10.0317880794702	1.73192052980133	-5.37748344370861				0.767788079470199	-0.190834437086093	-0.580238410596026	4.50039735099338	2.39761589403974	-8.87470198675497			
80	1640	0.999841059602649	0.0347549668874172	-0.087523178807947	-18.1666225165563	44.6553642384106	1.89509933774834				0.960953642384106	0.0637880794701987	0.173139072847682	10.7939072847682	10.1078145695364	-8.42596026490066				0.997827814569536	-0.193271523178808	-0.26394701986755	28.8474172185431	3.78649006622517	-7.76026490066225				0.624529801324503	-0.176529801324503	-0.821721854304636	-33.9170860927152	-38.7364238410596	-4.81562913907285				0.948026490066225	0.0514966887417219	-0.0100662251655629	4.1517880794702	6.49192052980132	-8.73748344370861				0.799788079470199	-0.222834437086093	-0.564238410596026	8.70039735099338	-4.88238410596027	-11.114701986755			
81	1660	1.03184105960265	0.146754966887417	-0.231523178807947	-27.1266225165563	28.9753642384106	1.89509933774834				0.992953642384106	-0.000211920529801304	-0.0348609271523178	24.2339072847682	-4.73218543046358	-1.14596026490066				0.965827814569536	-0.193271523178808	-0.19994701986755	15.127417218543	4.06649006622517	-0.76026490066225				0.464529801324503	-0.0485298013245033	-0.725721854304636	-41.4770860927152	-32.0164238410596	-16.2956291390729				0.948026490066225	0.0674966887417219	0.00593377483443711	7.2317880794702	14.3319205298013	-9.01748344370861				0.687788079470199	-0.222834437086093	-0.532238410596027	11.5003973509934	-0.962384105960265	-7.19470198675497			
82	1680	1.03184105960265	0.194754966887417	-0.231523178807947	-18.1666225165563	15.8153642384106	1.05509933774834				0.992953642384106	-0.0162119205298013	-0.130860927152318	12.1939072847682	13.1878145695364	-1.42596026490066				0.997827814569536	-0.00127152317880793	-0.0239470198675496	12.327417218543	8.26649006622517	3.15973509933775				0.384529801324503	0.0954701986754967	-0.661721854304636	-41.4770860927152	-23.6164238410596	-21.8956291390728				0.964026490066225	0.00349668874172187	0.00593377483443711	11.9917880794702	18.5319205298013	-7.89748344370861				0.703788079470199	-0.174834437086093	-0.580238410596026	11.7803973509934	2.67761589403974	-4.11470198675497			
83	1700	0.935841059602649	0.162754966887417	-0.199523178807947	7.87337748344371	13.8553642384106	-0.904900662251656				0.944953642384106	0.0317880794701987	0.0451390728476822	14.1539072847682	32.7878145695364	-3.38596026490066				0.949827814569536	0.0627284768211921	-0.11994701986755	24.087417218543	6.30649006622517	1.75973509933775				0.416529801324503	0.0954701986754967	-0.645721854304636	-24.1170860927152	-7.0964238410596	-21.0556291390728				0.900026490066225	0.0834966887417219	0.0379337748344371	8.6317880794702	13.7719205298013	-7.89748344370861				0.767788079470199	-0.110834437086093	-0.580238410596026	15.4203973509934	3.79761589403974	-5.51470198675497			
84	1720	0.903841059602649	0.00275496688741723	-0.215523178807947	25.5133774834437	18.0553642384106	-2.02490066225166				0.944953642384106	0.0157880794701987	0.0611390728476822	27.5939072847682	27.7478145695364	2.49403973509934				0.853827814569536	0.0147284768211921	-0.19994701986755	24.087417218543	2.94649006622517	1.75973509933775				0.416529801324503	0.0314701986754967	-0.629721854304636	-4.79708609271523	18.6635761589404	-24.9756291390729				0.868026490066225	0.131496688741722	-0.0100662251655629	11.4317880794702	18.5319205298013	-7.89748344370861				0.767788079470199	-0.174834437086093	-0.532238410596027	29.4203973509934	3.79761589403974	-6.63470198675497			
85	1740	0.919841059602649	-0.109245033112583	-0.199523178807947	17.1133774834437	9.9353642384106	4.41509933774834				0.944953642384106	-0.000211920529801304	0.0131390728476822	29.8339072847682	19.6278145695364	5.29403973509934				0.869827814569536	-0.00127152317880793	-0.16794701986755	17.3674172185431	13.0264900662252	2.59973509933775				0.464529801324503	0.143470198675497	-0.629721854304636	19.2829139072848	39.6635761589404	-28.3356291390729				0.900026490066225	0.0514966887417219	0.101933774834437	22.3517880794702	31.4119205298013	-8.17748344370861				0.703788079470199	-0.302834437086093	-0.468238410596026	35.0203973509934	4.35761589403974	0.0852980132450323			
86	1760	0.967841059602649	-0.109245033112583	-0.167523178807947	-10.3266225165563	5.1753642384106	7.77509933774834				0.976953642384106	-0.0802119205298013	-0.0508609271523178	14.7139072847682	12.3478145695364	3.05403973509934				0.965827814569536	-0.0652715231788079	-0.24794701986755	20.727417218543	13.0264900662252	2.03973509933775				0.560529801324503	0.143470198675497	-0.677721854304636	33.0029139072848	43.8635761589404	-25.2556291390729				0.964026490066225	0.0354966887417219	0.133933774834437	22.6317880794702	24.4119205298013	-3.69748344370861				0.783788079470199	-0.366834437086093	-0.484238410596026	25.2203973509934	8.27761589403974	3.72529801324503			
87	1780	0.935841059602649	0.0507549668874172	-0.167523178807947	-23.4866225165563	14.1353642384106	6.37509933774834				1.00895364238411	-0.0642119205298013	-0.00286092715231785	1.55390728476821	20.1878145695364	1.37403973509934				0.997827814569536	-0.0812715231788079	-0.27994701986755	24.927417218543	12.1864900662252	-0.48026490066225				0.672529801324503	-0.0645298013245033	-0.821721854304636	40.0029139072848	32.1035761589404	-22.7356291390728				1.02802649006623	0.00349668874172187	0.0699337748344371	18.7117880794702	13.2119205298013	-2.01748344370861				0.847788079470199	-0.302834437086093	-0.516238410596026	21.0203973509934	9.67761589403974	3.72529801324503			
88	1800	0.951841059602649	0.178754966887417	-0.103523178807947	-12.2866225165563	18.6153642384106	4.69509933774834				1.00895364238411	-0.0802119205298013	0.0771390728476822	4.35390728476821	12.0678145695364	0.81403973509934				0.965827814569536	-0.0812715231788079	-0.27994701986755	14.847417218543	5.46649006622517	-2.16026490066225				0.720529801324503	-0.176529801324503	-0.901721854304636	22.0829139072848	19.5035761589404	-25.8156291390729				1.01202649006623	0.00349668874172187	0.117933774834437	16.4717880794702	17.6919205298013	-2.01748344370861				0.831788079470199	-0.302834437086093	-0.452238410596026	23.8203973509934	10.2376158940397	0.365298013245032			
89	1820	0.967841059602649	0.130754966887417	-0.071523178807947	1.99337748344371	24.4953642384106	4.13509933774834				1.04095364238411	-0.0482119205298013	0.0291390728476822	6.87390728476821	5.06781456953642	0.81403973509934				0.949827814569536	-0.0972715231788079	-0.29594701986755	-7.55258278145695	1.26649006622517	-1.32026490066225				0.656529801324503	-0.0645298013245033	-0.853721854304636	0.242913907284768	13.6235761589404	-28.3356291390729				0.948026490066225	0.0194966887417219	0.165933774834437	14.5117880794702	15.4519205298013	-0.617483443708608				0.799788079470199	-0.382834437086093	-0.436238410596026	23.2603973509934	6.31761589403974	-3.55470198675497			
90	1840	0.951841059602649	0.0347549668874172	-0.135523178807947	3.95337748344371	21.1353642384106	1.33509933774834				0.992953642384106	0.0317880794701987	0.0131390728476822	9.39390728476821	4.50781456953642	-1.70596026490066				0.949827814569536	-0.0172715231788079	-0.26394701986755	-3.91258278145695	4.06649006622517	-3.00026490066225				0.560529801324503	-0.000529801324503289	-0.789721854304636	-3.11708609271523	6.6235761589404	-24.4156291390728				0.980026490066225	0.00349668874172187	0.0859337748344371	10.3117880794702	3.13192052980133	2.18251655629139				0.831788079470199	-0.414834437086093	-0.436238410596026	22.7003973509934	3.79761589403974	-4.95470198675497			
91	1860	0.967841059602649	0.0187549668874172	-0.183523178807947	4.79337748344371	17.4953642384106	2.17509933774834				0.960953642384106	0.0477880794701987	-0.0348609271523178	8.83390728476821	6.46781456953642	-1.98596026490066				0.885827814569536	0.110728476821192	-0.23194701986755	5.88741721854305	8.82649006622517	-3.28026490066225				0.576529801324503	-0.000529801324503289	-0.805721854304636	-1.99708609271523	-3.4564238410596	-21.0556291390728				0.996026490066225	0.0674966887417219	0.0859337748344371	4.7117880794702	5.93192052980133	1.62251655629139				0.863788079470199	-0.398834437086093	-0.500238410596026	13.4603973509934	6.59761589403974	-3.83470198675497			
92	1880	0.999841059602649	0.0187549668874172	-0.183523178807947	1.71337748344371	10.7753642384106	3.57509933774835				0.960953642384106	0.0317880794701987	-0.00286092715231785	14.1539072847682	6.18781456953642	-1.70596026490066				0.901827814569536	0.0947284768211921	-0.19994701986755	14.567417218543	11.6264900662252	-2.16026490066225				0.576529801324503	-0.0165298013245033	-0.773721854304636	-2.83708609271523	-4.8564238410596	-16.5756291390728				0.964026490066225	0.0834966887417219	0.101933774834437	9.7517880794702	2.85192052980133	4.98251655629139				0.815788079470199	-0.334834437086093	-0.452238410596026	4.50039735099338	10.7976158940397	2.88529801324503			
93	1900	0.967841059602649	0.0667549668874172	-0.151523178807947	0.0333774834437086	6.0153642384106	4.41509933774834				0.992953642384106	-0.0162119205298013	0.0291390728476822	24.5139072847682	4.50781456953642	0.53403973509934				0.965827814569536	0.0147284768211921	-0.21594701986755	24.647417218543	5.18649006622517	0.63973509933775				0.576529801324503	-0.0325298013245033	-0.757721854304636	1.92291390728477	-3.4564238410596	-7.89562913907285				0.964026490066225	0.0354966887417219	0.101933774834437	7.5117880794702	1.45192052980132	6.66251655629139				0.783788079470199	-0.286834437086093	-0.516238410596026	-1.37960264900662	3.51761589403974	6.52529801324503			
94	1920	0.967841059602649	0.0987549668874172	-0.119523178807947	10.9533774834437	7.9753642384106	3.85509933774834				1.00895364238411	-0.0322119205298013	0.0451390728476822	17.2339072847682	9.26781456953642	1.93403973509934				0.997827814569536	-0.0492715231788079	-0.21594701986755	23.807417218543	7.42649006622517	-0.20026490066225				0.576529801324503	0.0154701986754967	-0.789721854304636	5.00291390728477	-11.5764238410596	1.34437086092715				0.964026490066225	0.0194966887417219	0.117933774834437	-0.608211920529802	-11.4280794701987	7.22251655629139				0.783788079470199	-0.302834437086093	-0.532238410596027	6.74039735099338	-4.32238410596027	5.96529801324503			
95	1940	0.983841059602649	0.0187549668874172	-0.119523178807947	12.6333774834437	8.2553642384106	1.33509933774834				1.00895364238411	-0.0802119205298013	0.0771390728476822	7.43390728476821	11.7878145695364	2.49403973509934				0.965827814569536	-0.113271523178808	-0.23194701986755	14.567417218543	6.30649006622517	-0.20026490066225				0.592529801324503	0.0154701986754967	-0.805721854304636	3.32291390728477	-13.8164238410596	4.70437086092715				0	0	0	0	0	0				0	0	0	0	0	0			
96	1960	0	0	0	0	0	0				0	0	0	0	0	0				0	0	0	0	0	0				0	0	0	0	0	0				0	0	0	0	0	0				0.879788079470199	-0.398834437086093	-0.516238410596026	-1.93960264900662	-14.6823841059603	15.765298013245			
97	1980	0.935841059602649	-0.0292450331125828	-0.087523178807947	-3.04662251655629	6.8553642384106	1.61509933774834				1.00895364238411	-0.0322119205298013	0.0451390728476822	8.27390728476821	-2.49218543046358	4.73403973509934				0.949827814569536	-0.0492715231788079	-0.18394701986755	2.24741721854305	4.34649006622517	-1.60026490066225				0.528529801324503	-0.0165298013245033	-0.773721854304636	-1.43708609271523	-10.7364238410596	5.26437086092715				0.980026490066225	-0.0285033112582781	0.117933774834437	-5.9282119205298	-1.90807947019868	10.5825165562914				0.815788079470199	-0.334834437086093	-0.516238410596026	-6.41960264900662	-16.3623841059603	20.525298013245			
98	2000	0.967841059602649	0.0187549668874172	-0.071523178807947	-6.12662251655629	7.6953642384106	1.61509933774834				0.992953642384106	-0.0802119205298013	0.0131390728476822	1.83390728476821	-2.49218543046358	4.17403973509934				0.965827814569536	-0.0332715231788079	-0.18394701986755	0.567417218543046	5.18649006622517	-0.20026490066225				0.480529801324503	-0.128529801324503	-0.757721854304636	9.48291390728477	-13.2564238410596	2.74437086092715				0.932026490066225	-0.0285033112582781	0.0859337748344371	-3.1282119205298	3.97192052980133	11.7025165562914				0.767788079470199	-0.318834437086093	-0.516238410596026	7.30039735099338	-23.6423841059603	16.325298013245			
99	2020	0.967841059602649	0.0667549668874172	-0.119523178807947	-2.20662251655629	6.0153642384106	1.05509933774834				0.960953642384106	-0.0962119205298013	-0.00286092715231785	-2.36609271523179	8.70781456953642	1.93403973509934				0.933827814569536	-0.0332715231788079	-0.18394701986755	1.96741721854305	5.74649006622517	-0.48026490066225				0.496529801324503	0.0314701986754967	-0.789721854304636	-7.31708609271523	-20.2564238410596	5.26437086092715				0.932026490066225	-0.0285033112582781	0.101933774834437	-4.5282119205298	5.09192052980133	13.1025165562914				0.751788079470199	-0.398834437086093	-0.516238410596026	15.1403973509934	-25.3223841059603	12.685298013245			
100	2040	0.983841059602649	0.0347549668874172	-0.119523178807947	0.873377483443709	6.5753642384106	0.215099337748344				0.992953642384106	-0.0322119205298013	0.0931390728476822	-4.04609271523179	10.3878145695364	1.93403973509934				0.949827814569536	-0.0172715231788079	-0.16794701986755	0.847417218543046	6.30649006622517	0.0797350993377501				0.560529801324503	0.0474701986754967	-0.773721854304636	5.84291390728477	-19.4164238410596	7.50437086092715				0.948026490066225	0.00349668874172187	0.0699337748344371	-6.4882119205298	4.25192052980133	13.3825165562914				0.767788079470199	-0.398834437086093	-0.500238410596026	3.38039735099338	-23.6423841059603	19.685298013245			
101	2060	0.983841059602649	0.0187549668874172	-0.071523178807947	3.11337748344371	5.7353642384106	-0.904900662251656				1.00895364238411	-0.0162119205298013	0.0611390728476822	0.153907284768212	-3.61218543046358	4.17403973509934				0.981827814569536	-0.0652715231788079	-0.18394701986755	5.88741721854305	5.18649006622517	0.35973509933775				0.592529801324503	-0.0805298013245033	-0.805721854304636	11.1629139072848	-17.7364238410596	8.62437086092715				0.964026490066225	0.0194966887417219	0.0699337748344371	-3.6882119205298	5.65192052980133	14.2225165562914				0.751788079470199	-0.286834437086093	-0.484238410596026	-5.29960264900662	-16.3623841059603	23.045298013245			
102	2080	0.983841059602649	0.0187549668874172	-0.071523178807947	-0.526622516556291	3.4953642384106	-1.18490066225166				0.992953642384106	-0.0322119205298013	0.0451390728476822	2.11390728476821	0.0278145695364242	6.13403973509934				0.965827814569536	-0.0812715231788079	-0.19994701986755	5.88741721854305	0.986490066225167	0.35973509933775				0.560529801324503	-0.112529801324503	-0.789721854304636	-5.63708609271523	-15.7764238410596	13.6643708609272				0.932026490066225	-0.0125033112582781	0.117933774834437	-2.0082119205298	9.01192052980133	13.9425165562914				0.703788079470199	-0.270834437086093	-0.500238410596026	3.10039735099338	-14.1223841059603	19.405298013245			
103	2100	0.967841059602649	0.00275496688741723	-0.055523178807947	3.11337748344371	5.1753642384106	-1.18490066225166				0.992953642384106	-0.0482119205298013	0.0611390728476822	0.713907284768212	2.26781456953642	6.13403973509934				0.965827814569536	-0.0332715231788079	-0.18394701986755	2.52741721854305	6.30649006622517	-0.48026490066225				0.544529801324503	-0.000529801324503289	-0.789721854304636	-20.4770860927152	-20.8164238410596	12.8243708609272				0.932026490066225	-0.0445033112582781	0.117933774834437	-3.1282119205298	8.17192052980133	14.2225165562914				0.671788079470199	-0.318834437086093	-0.516238410596026	13.4603973509934	-13.8423841059603	16.325298013245			
104	2120	0.951841059602649	-0.0132450331125828	-0.055523178807947	1.71337748344371	1.2553642384106	-0.0649006622516557				0.976953642384106	-0.0482119205298013	0.0291390728476822	0.433907284768212	1.70781456953642	5.85403973509934				0.949827814569536	-0.0332715231788079	-0.16794701986755	2.52741721854305	7.14649006622517	-0.48026490066225				0.544529801324503	0.0154701986754967	-0.741721854304636	-12.9170860927152	-18.0164238410596	7.78437086092715				0.964026490066225	-0.0445033112582781	0.101933774834437	-3.6882119205298	8.17192052980133	14.2225165562914				0.687788079470199	-0.414834437086093	-0.468238410596026	10.6603973509934	-11.0423841059603	16.325298013245			
105	2140	0.951841059602649	0.00275496688741723	-0.039523178807947	-2.20662251655629	2.9353642384106	-0.344900662251656				0.960953642384106	-0.0322119205298013	0.0771390728476822	1.55390728476821	1.98781456953642	7.53403973509934				0.949827814569536	-0.0172715231788079	-0.13594701986755	7.56741721854305	4.90649006622517	-1.04026490066225				0.544529801324503	0.0154701986754967	-0.757721854304636	-4.23708609271523	-12.1364238410596	7.78437086092715				0.980026490066225	-0.0445033112582781	0.0859337748344371	-4.2482119205298	8.17192052980133	12.5425165562914				0.703788079470199	-0.414834437086093	-0.516238410596026	3.66039735099338	-8.24238410596027	13.245298013245			
106	2160	0.967841059602649	0.0507549668874172	-0.055523178807947	-2.76662251655629	5.1753642384106	-0.624900662251656				0.960953642384106	-0.0322119205298013	0.0771390728476822	-0.406092715231788	-0.252185430463576	8.65403973509934				0.933827814569536	-0.0492715231788079	-0.16794701986755	9.80741721854305	1.54649006622517	-1.88026490066225				0.528529801324503	0.0154701986754967	-0.725721854304636	-0.597086092715232	-5.1364238410596	13.1043708609272				0.980026490066225	-0.0445033112582781	0.149933774834437	-5.6482119205298	5.65192052980133	10.5825165562914				0.703788079470199	-0.398834437086093	-0.532238410596027	3.94039735099338	-7.68238410596027	11.845298013245			
107	2180	0.967841059602649	0.0507549668874172	-0.087523178807947	-0.806622516556291	4.6153642384106	-1.46490066225166				0.976953642384106	-0.0802119205298013	0.0771390728476822	-5.44609271523179	1.98781456953642	8.09403973509934				0.949827814569536	-0.0652715231788079	-0.16794701986755	4.20741721854305	3.50649006622517	-1.04026490066225				0.512529801324503	-0.0165298013245033	-0.725721854304636	9.48291390728477	-4.5764238410596	8.62437086092715				0.948026490066225	-0.0765033112582781	0.133933774834437	-5.9282119205298	3.69192052980133	11.1425165562914				0.735788079470199	-0.398834437086093	-0.564238410596026	2.26039735099338	-6.56238410596027	11.845298013245			
108	2200	0.999841059602649	0.0507549668874172	-0.103523178807947	-1.92662251655629	2.0953642384106	-2.58490066225166				0.992953642384106	-0.112211920529801	0.0291390728476822	-3.76609271523179	0.0278145695364242	7.25403973509934				0.949827814569536	-0.0332715231788079	-0.16794701986755	-2.23258278145695	3.22649006622517	-0.20026490066225				0.544529801324503	-0.0325298013245033	-0.757721854304636	16.4829139072848	-2.8964238410596	7.50437086092715				0.932026490066225	-0.0765033112582781	0.117933774834437	-7.0482119205298	2.57192052980133	13.6625165562914				0.735788079470199	-0.382834437086093	-0.564238410596026	3.10039735099338	-9.64238410596027	11.285298013245			
109	2220	0.951841059602649	0.00275496688741723	-0.087523178807947	-1.08662251655629	1.5353642384106	-2.86490066225166				0.976953642384106	-0.0642119205298013	0.0291390728476822	-4.04609271523179	2.54781456953642	6.41403973509934				0.965827814569536	-0.0492715231788079	-0.13594701986755	-0.832582781456954	0.986490066225167	-1.04026490066225				0.592529801324503	-0.0325298013245033	-0.789721854304636	17.3229139072848	1.0235761589404	10.0243708609272				0.948026490066225	-0.0765033112582781	0.117933774834437	-5.0882119205298	5.09192052980133	14.2225165562914				0.703788079470199	-0.366834437086093	-0.596238410596026	5.90039735099338	-12.4423841059603	9.60529801324503			
110	2240	0.951841059602649	-0.0132450331125828	-0.055523178807947	-2.76662251655629	2.3753642384106	-1.46490066225166				0.944953642384106	-0.0162119205298013	0.0451390728476822	-2.08609271523179	1.14781456953642	4.17403973509934				0.949827814569536	-0.0332715231788079	-0.15194701986755	-2.23258278145695	0.706490066225167	-1.04026490066225				0.560529801324503	-0.0805298013245033	-0.773721854304636	15.6429139072848	-0.6564238410596	12.5443708609272				0.948026490066225	-0.0765033112582781	0.133933774834437	-1.4482119205298	6.21192052980133	14.2225165562914				0.687788079470199	-0.398834437086093	-0.628238410596026	9.82039735099338	-14.9623841059603	8.48529801324503			
111	2260	0.983841059602649	0.0347549668874172	-0.055523178807947	-6.96662251655629	2.0953642384106	-2.86490066225166				0.976953642384106	-0.0322119205298013	0.0771390728476822	0.713907284768212	-0.252185430463576	5.01403973509934				0.933827814569536	-0.0332715231788079	-0.13594701986755	-3.91258278145695	0.986490066225167	-0.48026490066225				0.560529801324503	-0.0965298013245033	-0.805721854304636	13.9629139072848	-1.2164238410596	8.62437086092715				0.932026490066225	-0.0605033112582781	0.117933774834437	-7.3282119205298	8.73192052980133	12.2625165562914				0.687788079470199	-0.398834437086093	-0.628238410596026	11.2203973509934	-14.6823841059603	9.04529801324503			
112	2280	0.967841059602649	0.0667549668874172	-0.039523178807947	-4.16662251655629	2.0953642384106	-1.74490066225166				0.976953642384106	-0.0802119205298013	0.125139072847682	1.27390728476821	-4.17218543046358	7.25403973509934				0.965827814569536	-0.0172715231788079	-0.15194701986755	-0.832582781456954	3.22649006622517	-1.32026490066225				0.576529801324503	-0.0805298013245033	-0.789721854304636	12.5629139072848	-4.2964238410596	7.50437086092715				0.948026490066225	-0.0925033112582781	0.101933774834437	-9.2882119205298	7.33192052980133	11.1425165562914				0.687788079470199	-0.398834437086093	-0.596238410596026	13.7403973509934	-17.7623841059603	10.165298013245			
113	2300	0.967841059602649	0.0187549668874172	-0.039523178807947	-1.08662251655629	1.8153642384106	-2.30490066225166				0.976953642384106	-0.0962119205298013	0.0931390728476822	-5.44609271523179	-3.33218543046358	6.97403973509934				0.981827814569536	-0.0332715231788079	-0.15194701986755	2.52741721854305	0.706490066225167	-2.16026490066225				0.560529801324503	-0.0965298013245033	-0.789721854304636	12.0029139072848	-7.6564238410596	1.90437086092715				0.948026490066225	-0.124503311258278	0.117933774834437	-3.1282119205298	7.89192052980133	13.9425165562914				0.671788079470199	-0.414834437086093	-0.580238410596026	12.6203973509934	-23.3623841059603	11.845298013245			
114	2320	0.983841059602649	0.00275496688741723	-0.00752317880794696	-5.84662251655629	-0.984635761589404	-3.14490066225166				0.960953642384106	-0.0802119205298013	0.0771390728476822	-6.28609271523179	0.0278145695364242	3.05403973509934				0.949827814569536	-0.0492715231788079	-0.16794701986755	6.44741721854305	-2.09350993377483	-3.00026490066225				0.528529801324503	-0.0965298013245033	-0.789721854304636	8.64291390728477	-5.1364238410596	-0.0556291390728476				0.932026490066225	-0.108503311258278	0.133933774834437	-3.6882119205298	8.73192052980133	13.6625165562914				0.639788079470199	-0.398834437086093	-0.564238410596026	16.2603973509934	-27.8423841059603	10.725298013245			
115	2340	0.967841059602649	0.0507549668874172	-0.023523178807947	-8.92662251655629	-4.9046357615894	-2.02490066225166				0.944953642384106	-0.0322119205298013	0.0451390728476822	1.27390728476821	-0.252185430463576	2.21403973509934				0.933827814569536	-0.0172715231788079	-0.15194701986755	-0.552582781456954	-3.49350993377483	-3.56026490066225				0.512529801324503	-0.0805298013245033	-0.789721854304636	7.52291390728477	-1.4964238410596	-4.53562913907285				0.948026490066225	-0.0605033112582781	0.117933774834437	-1.7282119205298	5.65192052980133	12.5425165562914				0.607788079470199	-0.398834437086093	-0.548238410596027	13.7403973509934	-33.4423841059603	9.32529801324503			
116	2360	0.935841059602649	0.0667549668874172	0.00847682119205304	-5.84662251655629	-2.1046357615894	-0.624900662251656				0.976953642384106	-0.0162119205298013	0.0451390728476822	9.67390728476821	2.54781456953642	4.17403973509934				0.965827814569536	-0.0172715231788079	-0.16794701986755	-2.51258278145695	-2.37350993377483	-2.16026490066225				0.528529801324503	-0.0165298013245033	-0.789721854304636	8.92291390728477	3.2635761589404	-5.93562913907285				0.932026490066225	-0.0925033112582781	0.133933774834437	-0.608211920529802	4.25192052980133	11.9825165562914				0.607788079470199	-0.398834437086093	-0.532238410596027	15.1403973509934	-28.4023841059603	7.36529801324503			
117	2380	0.967841059602649	0.0987549668874172	-0.00752317880794696	-1.08662251655629	-0.984635761589404	-1.46490066225166				0.992953642384106	-0.0162119205298013	0.0451390728476822	9.11390728476821	4.50781456953642	3.61403973509934				0.949827814569536	-0.0172715231788079	-0.18394701986755	-0.832582781456954	-3.49350993377483	-1.32026490066225				0.576529801324503	-0.0645298013245033	-0.789721854304636	17.3229139072848	3.8235761589404	-5.65562913907285				0.932026490066225	-0.0925033112582781	0.117933774834437	5.5517880794702	0.891920529801325	12.5425165562914				0.623788079470199	-0.398834437086093	-0.548238410596027	17.9403973509934	-22.5223841059603	6.24529801324503			
118	2400	0.983841059602649	0.0987549668874172	-0.055523178807947	-0.806622516556291	-3.5046357615894	-1.18490066225166				0.992953642384106	-0.000211920529801304	0.0451390728476822	9.67390728476821	3.10781456953642	2.49403973509934				0.933827814569536	0.0147284768211921	-0.19994701986755	-1.39258278145695	-3.21350993377483	-0.76026490066225				0.656529801324503	-0.128529801324503	-0.837721854304636	19.2829139072848	2.7035761589404	-8.45562913907285				0.980026490066225	-0.0445033112582781	0.117933774834437	0.791788079470198	2.57192052980133	8.62251655629139				0.607788079470199	-0.430834437086093	-0.548238410596027	21.5803973509934	-23.0823841059603	8.20529801324503			
119	2420	0.967841059602649	0.0827549668874172	-0.071523178807947	1.71337748344371	-3.5046357615894	-0.344900662251656				0.992953642384106	0.0157880794701987	0.0131390728476822	17.5139072847682	-0.812185430463576	1.93403973509934				0.949827814569536	0.0147284768211921	-0.21594701986755	4.76741721854305	-2.65350993377483	-0.48026490066225				0.624529801324503	-0.128529801324503	-0.821721854304636	7.80291390728477	2.7035761589404	-9.01562913907285				0.980026490066225	-0.0765033112582781	0.117933774834437	4.7117880794702	3.69192052980133	6.94251655629139				0.591788079470199	-0.430834437086093	-0.532238410596027	17.6603973509934	-18.8823841059603	7.64529801324503			
120	2440	0.983841059602649	0.0667549668874172	-0.087523178807947	6.47337748344371	-1.8246357615894	-1.18490066225166				0.992953642384106	-0.0162119205298013	0.0131390728476822	18.9139072847682	3.66781456953642	3.61403973509934				0.949827814569536	0.0467284768211921	-0.23194701986755	14.567417218543	-1.81350993377483	0.0797350993377501				0.576529801324503	-0.0645298013245033	-0.789721854304636	-1.71708609271523	5.2235761589404	-11.2556291390728				0.964026490066225	-0.0925033112582781	0.133933774834437	5.2717880794702	5.65192052980133	5.54251655629139				0.559788079470199	-0.414834437086093	-0.532238410596027	14.0203973509934	-14.4023841059603	4.84529801324503			
121	2460	0.967841059602649	0.0667549668874172	-0.103523178807947	7.59337748344371	-4.0646357615894	0.495099337748344				1.00895364238411	-0.0482119205298013	0.0771390728476822	13.5939072847682	11.2278145695364	4.73403973509934				0.949827814569536	0.0147284768211921	-0.21594701986755	13.167417218543	-0.133509933774833	0.91973509933775				0.544529801324503	-0.0485298013245033	-0.789721854304636	6.68291390728477	7.7435761589404	-8.45562913907285				0.948026490066225	-0.0925033112582781	0.133933774834437	7.5117880794702	6.49192052980132	2.74251655629139				0.559788079470199	-0.414834437086093	-0.564238410596026	16.8203973509934	-9.64238410596027	2.32529801324503			
122	2480	0.951841059602649	0.0347549668874172	-0.119523178807947	8.71337748344371	-4.9046357615894	1.61509933774834				0.976953642384106	-0.0642119205298013	0.0771390728476822	10.5139072847682	4.78781456953642	1.93403973509934				0.949827814569536	-0.0172715231788079	-0.19994701986755	14.287417218543	-0.693509933774834	1.47973509933775				0.592529801324503	-0.0965298013245033	-0.789721854304636	12.5629139072848	10.5435761589404	-8.73562913907285				0.980026490066225	-0.108503311258278	0.149933774834437	12.8317880794702	5.93192052980133	1.34251655629139				0.591788079470199	-0.446834437086093	-0.548238410596027	15.9803973509934	-4.32238410596027	1.20529801324503			
123	2500	0.951841059602649	0.0187549668874172	-0.103523178807947	8.15337748344371	-4.6246357615894	0.775099337748344				0.992953642384106	-0.0642119205298013	0.0611390728476822	9.11390728476821	3.10781456953642	1.09403973509934				0.949827814569536	-0.0332715231788079	-0.19994701986755	13.167417218543	-0.693509933774834	-0.48026490066225				0.608529801324503	-0.112529801324503	-0.789721854304636	8.36291390728477	11.6635761589404	-9.57562913907285				0.964026490066225	-0.0925033112582781	0.133933774834437	12.5517880794702	5.37192052980133	-0.337483443708608				0	0	0	0	0	0			
