No	Time	12-AccX	12-AccY	12-AccZ	12-GyroX	12-GyroY	12-GyroZ	13-AccX	13-AccY	13-AccZ	13-GyroX	13-GyroY	13-GyroZ	14-AccX	14-AccY	14-AccZ	14-GyroX	14-GyroY	14-GyroZ	15-AccX	15-AccY	15-AccZ	15-GyroX	15-GyroY	15-GyroZ	16-AccX	16-AccY	16-AccZ	16-GyroX	16-GyroY	16-GyroZ	17-AccX	17-AccY	17-AccZ	17-GyroX	17-GyroY	17-GyroZ
0	0	0	0	0	0	0	0				0	0	0	0	0	0				-0.218172185430464	-0.161271523178808	-0.90394701986755	0.00741721854304636	0.146490066225167	-0.20026490066225				0	0	0	0	0	0				0.964026490066225	0.0834966887417219	0.101933774834437	-4.8082119205298	-5.54807947019868	-1.17748344370861				0.223788079470199	-0.286834437086093	-0.884238410596026	-4.17960264900662	2.67761589403974	1.20529801324503			
1	20	-0.264158940397351	0.114754966887417	-0.935523178807947	-0.806622516556291	-0.144635761589404	-0.904900662251656				0.976953642384106	0.0157880794701987	0.221139072847682	1.83390728476821	-7.25218543046358	1.93403973509934				-0.218172185430464	-0.161271523178808	-0.90394701986755	0.287417218543046	-0.973509933774833	-1.04026490066225				0.176529801324503	-0.0645298013245033	-0.949721854304636	0.242913907284768	1.3035761589404	3.58437086092715				0.980026490066225	0.0834966887417219	0.101933774834437	-3.1282119205298	-3.86807947019868	-0.617483443708608				0.223788079470199	-0.286834437086093	-0.884238410596026	-3.89960264900662	2.39761589403974	1.76529801324503			
2	40	-0.264158940397351	0.130754966887417	-0.935523178807947	0.313377483443709	0.135364238410596	-0.624900662251656				0.976953642384106	0.0157880794701987	0.237139072847682	0.153907284768212	1.14781456953642	0.81403973509934				-0.202172185430464	-0.161271523178808	-0.88794701986755	0.567417218543046	0.426490066225167	-1.04026490066225				0.208529801324503	-0.0965298013245033	-0.965721854304636	0.522913907284768	3.5435761589404	4.14437086092715				0.964026490066225	0.0994966887417219	0.117933774834437	-1.7282119205298	-0.228079470198675	-1.73748344370861				0.223788079470199	-0.302834437086093	-0.884238410596026	-4.45960264900662	3.51761589403974	0.925298013245032			
3	60	-0.248158940397351	0.146754966887417	-0.935523178807947	-0.246622516556291	0.695364238410596	-0.904900662251656				0.976953642384106	0.0317880794701987	0.237139072847682	-2.92609271523179	3.94781456953642	-0.585960264900661				-0.202172185430464	-0.161271523178808	-0.87194701986755	0.847417218543046	1.26649006622517	-0.48026490066225				0.208529801324503	-0.0805298013245033	-0.949721854304636	-2.55708609271523	3.2635761589404	3.02437086092715				0.964026490066225	0.0834966887417219	0.0859337748344371	-6.7682119205298	-3.30807947019868	-2.01748344370861				0.223788079470199	-0.286834437086093	-0.884238410596026	-3.89960264900662	5.75761589403974	1.20529801324503			
4	80	-0.248158940397351	0.130754966887417	-0.919523178807947	0.313377483443709	0.695364238410596	-0.344900662251656				0.992953642384106	0.0317880794701987	0.285139072847682	-0.406092715231788	-1.65218543046358	1.37403973509934				-0.202172185430464	-0.161271523178808	-0.88794701986755	0.287417218543046	0.426490066225167	-0.48026490066225				0.176529801324503	-0.0645298013245033	-0.949721854304636	-1.15708609271523	0.7435761589404	3.86437086092715				0.964026490066225	0.0674966887417219	0.0859337748344371	-5.9282119205298	-2.74807947019868	-1.45748344370861				0.207788079470199	-0.286834437086093	-0.868238410596026	-3.33960264900662	5.47761589403974	2.32529801324503			
5	100	-0.248158940397351	0.130754966887417	-0.935523178807947	0.873377483443709	-0.144635761589404	-0.904900662251656				0.960953642384106	-0.000211920529801304	0.253139072847682	-0.126092715231788	-3.89218543046358	1.37403973509934				-0.218172185430464	-0.161271523178808	-0.88794701986755	1.96741721854305	0.706490066225167	0.0797350993377501				0.192529801324503	-0.0645298013245033	-0.965721854304636	0.522913907284768	-2.0564238410596	3.30437086092715				0.964026490066225	0.0674966887417219	0.101933774834437	-7.3282119205298	-4.70807947019868	-1.17748344370861				0.207788079470199	-0.286834437086093	-0.852238410596026	-3.33960264900662	4.35761589403974	2.32529801324503			
6	120	-0.264158940397351	0.130754966887417	-0.935523178807947	-0.806622516556291	0.135364238410596	-0.904900662251656				0.944953642384106	-0.000211920529801304	0.221139072847682	-5.44609271523179	-3.61218543046358	-1.98596026490066				-0.202172185430464	-0.177271523178808	-0.88794701986755	1.12741721854305	0.986490066225167	-0.76026490066225				0.192529801324503	-0.0805298013245033	-0.965721854304636	-3.11708609271523	-2.8964238410596	1.90437086092715				0.948026490066225	0.0994966887417219	0.117933774834437	-5.3682119205298	-6.66807947019868	-2.85748344370861				0.223788079470199	-0.286834437086093	-0.868238410596026	-4.73960264900662	4.35761589403974	2.32529801324503			
7	140	-0.248158940397351	0.130754966887417	-0.919523178807947	-1.36662251655629	0.975364238410596	-1.18490066225166				0.992953642384106	0.0157880794701987	0.237139072847682	-7.96609271523179	2.26781456953642	-0.86596026490066				-0.186172185430464	-0.161271523178808	-0.87194701986755	0.847417218543046	0.146490066225167	-0.48026490066225				0.208529801324503	-0.0805298013245033	-0.949721854304636	-5.63708609271523	-2.8964238410596	3.02437086092715				0.964026490066225	0.0834966887417219	0.101933774834437	-7.0482119205298	-9.74807947019868	-2.29748344370861				0.223788079470199	-0.286834437086093	-0.868238410596026	-4.17960264900662	5.75761589403974	0.645298013245032			
8	160	-0.264158940397351	0.146754966887417	-0.919523178807947	-1.08662251655629	0.695364238410596	0.215099337748344				0.992953642384106	0.0317880794701987	0.205139072847682	-0.126092715231788	1.42781456953642	1.09403973509934				-0.202172185430464	-0.161271523178808	-0.87194701986755	0.847417218543046	-0.693509933774834	0.0797350993377501				0.192529801324503	-0.0645298013245033	-0.933721854304636	-5.07708609271523	-2.6164238410596	5.82437086092715				0.964026490066225	0.0994966887417219	0.0699337748344371	-7.3282119205298	-7.22807947019868	-1.17748344370861				0.223788079470199	-0.286834437086093	-0.868238410596026	-5.01960264900662	7.43761589403974	0.0852980132450323			
9	180	-0.248158940397351	0.146754966887417	-0.919523178807947	-0.806622516556291	0.135364238410596	-0.344900662251656				0.960953642384106	0.0477880794701987	0.285139072847682	0.153907284768212	-0.812185430463576	2.49403973509934				-0.202172185430464	-0.145271523178808	-0.88794701986755	1.12741721854305	-0.133509933774833	0.91973509933775				0.176529801324503	-0.0645298013245033	-0.949721854304636	-2.55708609271523	-2.0564238410596	5.54437086092715				0.948026490066225	0.115496688741722	0.0859337748344371	-5.0882119205298	-5.54807947019868	-1.73748344370861				0.223788079470199	-0.270834437086093	-0.868238410596026	-7.25960264900662	7.15761589403974	2.60529801324503			
10	200	-0.248158940397351	0.146754966887417	-0.935523178807947	-0.246622516556291	-0.424635761589404	-0.624900662251656				0.912953642384106	0.0637880794701987	0.253139072847682	-3.20609271523179	-3.33218543046358	0.25403973509934				-0.202172185430464	-0.161271523178808	-0.88794701986755	2.24741721854305	2.38649006622517	1.19973509933775				0.160529801324503	-0.0805298013245033	-0.949721854304636	-4.23708609271523	-0.9364238410596	4.42437086092715				0.932026490066225	0.0994966887417219	0.0699337748344371	-5.3682119205298	-6.94807947019868	-3.41748344370861				0.239788079470199	-0.254834437086093	-0.868238410596026	-8.65960264900662	4.35761589403974	4.00529801324503			
11	220	-0.264158940397351	0.146754966887417	-0.919523178807947	0.0333774834437086	-0.424635761589404	0.215099337748344				0.976953642384106	0.0477880794701987	0.157139072847682	0.153907284768212	-1.65218543046358	4.73403973509934				-0.218172185430464	-0.145271523178808	-0.87194701986755	4.76741721854305	1.82649006622517	0.63973509933775				0.160529801324503	-0.0485298013245033	-0.949721854304636	-4.79708609271523	-0.3764238410596	4.98437086092715				0.964026490066225	0.131496688741722	0.0539337748344371	-6.2082119205298	-7.22807947019868	-4.53748344370861				0.239788079470199	-0.238834437086093	-0.868238410596026	-6.41960264900662	1.83761589403974	2.04529801324503			
12	240	-0.264158940397351	0.146754966887417	-0.919523178807947	-1.08662251655629	0.415364238410596	0.775099337748344				1.02495364238411	0.0317880794701987	0.221139072847682	0.153907284768212	-3.61218543046358	4.17403973509934				-0.234172185430464	-0.145271523178808	-0.88794701986755	5.88741721854305	0.706490066225167	1.19973509933775				0.176529801324503	-0.0485298013245033	-0.965721854304636	-2.83708609271523	2.1435761589404	7.50437086092715				0.996026490066225	0.0834966887417219	0.0699337748344371	-1.1682119205298	-1.06807947019868	-0.897483443708608				0.223788079470199	-0.254834437086093	-0.916238410596027	-8.37960264900662	3.79761589403974	2.32529801324503			
13	260	-0.280158940397351	0.146754966887417	-0.919523178807947	-1.92662251655629	0.415364238410596	0.215099337748344				0.976953642384106	-0.000211920529801304	0.237139072847682	-0.126092715231788	-6.41218543046358	4.45403973509934				-0.234172185430464	-0.161271523178808	-0.88794701986755	7.84741721854305	0.706490066225167	1.47973509933775				0.160529801324503	-0.0645298013245033	-0.965721854304636	-2.27708609271523	2.7035761589404	8.62437086092715				0.980026490066225	0.0994966887417219	0.0699337748344371	-2.5682119205298	-1.62807947019868	-0.897483443708608				0.223788079470199	-0.238834437086093	-0.932238410596026	-3.05960264900662	6.59761589403974	0.925298013245032			
14	280	-0.280158940397351	0.146754966887417	-0.919523178807947	-1.64662251655629	1.2553642384106	0.215099337748344				0.992953642384106	-0.0482119205298013	0.269139072847682	-2.08609271523179	-4.17218543046358	2.21403973509934				-0.218172185430464	-0.177271523178808	-0.90394701986755	6.16741721854305	2.94649006622517	0.35973509933775				0.144529801324503	-0.0805298013245033	-0.981721854304636	-1.15708609271523	2.1435761589404	8.06437086092715				0.980026490066225	0.0674966887417219	0.0219337748344371	-5.0882119205298	-3.58807947019868	-1.17748344370861				0.223788079470199	-0.238834437086093	-0.916238410596027	-4.17960264900662	6.03761589403974	-1.31470198675497			
15	300	-0.264158940397351	0.130754966887417	-0.935523178807947	-3.32662251655629	2.0953642384106	-0.624900662251656				0.976953642384106	-0.0162119205298013	0.237139072847682	-10.2060927152318	-8.37218543046358	0.81403973509934				-0.202172185430464	-0.177271523178808	-0.87194701986755	6.44741721854305	2.94649006622517	-1.04026490066225				0.144529801324503	-0.0805298013245033	-0.949721854304636	-3.95708609271523	2.9835761589404	6.38437086092715				0.980026490066225	0.0834966887417219	0.0539337748344371	-5.6482119205298	-3.02807947019868	-0.617483443708608				0.223788079470199	-0.270834437086093	-0.900238410596026	-3.61960264900662	5.19761589403974	-1.59470198675497			
16	320	-0.264158940397351	0.130754966887417	-0.935523178807947	-4.44662251655629	2.6553642384106	-0.344900662251656				0.976953642384106	-0.000211920529801304	0.173139072847682	-12.1660927152318	-6.13218543046358	1.37403973509934				-0.202172185430464	-0.177271523178808	-0.90394701986755	5.60741721854305	2.94649006622517	-1.60026490066225				0.144529801324503	-0.0805298013245033	-0.949721854304636	-2.83708609271523	4.3835761589404	6.66437086092715				0.980026490066225	0.0674966887417219	0.0379337748344371	-4.2482119205298	0.0519205298013249	-1.17748344370861				0.207788079470199	-0.286834437086093	-0.916238410596027	-4.73960264900662	4.91761589403974	0.365298013245032			
17	340	-0.248158940397351	0.114754966887417	-0.951523178807947	-4.72662251655629	3.2153642384106	0.215099337748344				0.960953642384106	-0.000211920529801304	0.221139072847682	-10.4860927152318	-2.49218543046358	2.49403973509934				-0.186172185430464	-0.193271523178808	-0.88794701986755	7.00741721854305	3.50649006622517	-2.44026490066225				0.160529801324503	-0.0645298013245033	-0.965721854304636	-1.43708609271523	7.4635761589404	7.78437086092715				0.964026490066225	0.0834966887417219	0.0379337748344371	-7.0482119205298	-4.14807947019868	-0.897483443708608				0.207788079470199	-0.254834437086093	-0.900238410596026	-6.41960264900662	4.91761589403974	1.76529801324503			
18	360	-0.248158940397351	0.130754966887417	-0.919523178807947	-5.56662251655629	3.2153642384106	-0.0649006622516557				0.960953642384106	0.0157880794701987	0.221139072847682	-12.4460927152318	-3.05218543046358	3.05403973509934				-0.186172185430464	-0.177271523178808	-0.87194701986755	5.04741721854305	2.94649006622517	-1.60026490066225				0.160529801324503	-0.0805298013245033	-0.933721854304636	-2.83708609271523	9.1435761589404	6.10437086092715				0.964026490066225	0.0674966887417219	0.0219337748344371	-2.5682119205298	-0.228079470198675	0.502516556291392				0.175788079470199	-0.238834437086093	-0.900238410596026	-6.97960264900662	4.35761589403974	2.88529801324503			
19	380	-0.248158940397351	0.130754966887417	-0.919523178807947	-3.32662251655629	2.9353642384106	0.775099337748344				0.864953642384106	0.0317880794701987	0.285139072847682	-10.7660927152318	-6.41218543046358	-2.26596026490066				-0.186172185430464	-0.193271523178808	-0.87194701986755	7.00741721854305	3.78649006622517	-0.48026490066225				0.144529801324503	-0.0485298013245033	-0.901721854304636	-2.55708609271523	11.3835761589404	3.02437086092715				0.932026490066225	0.0834966887417219	0.0699337748344371	-5.9282119205298	-0.788079470198675	-1.45748344370861				0.191788079470199	-0.238834437086093	-0.916238410596027	-2.49960264900662	4.91761589403974	4.00529801324503			
20	400	-0.248158940397351	0.130754966887417	-0.935523178807947	-3.60662251655629	3.4953642384106	2.45509933774835				0.944953642384106	0.0317880794701987	0.0771390728476822	0.153907284768212	5.34781456953642	6.97403973509934				-0.170172185430464	-0.257271523178808	-0.87194701986755	8.12741721854305	4.90649006622517	1.75973509933775				0.160529801324503	-0.0805298013245033	-0.901721854304636	0.802913907284768	14.7435761589404	0.504370860927152				0.932026490066225	0.131496688741722	0.00593377483443711	-7.0482119205298	-2.74807947019868	-1.45748344370861				0.175788079470199	-0.238834437086093	-0.900238410596026	0.580397350993377	1.83761589403974	2.60529801324503			
21	420	-0.232158940397351	0.114754966887417	-0.919523178807947	-5.00662251655629	3.7753642384106	3.57509933774835				0.960953642384106	0.0157880794701987	0.205139072847682	1.83390728476821	8.98781456953643	8.93403973509934				-0.170172185430464	-0.289271523178808	-0.85594701986755	5.04741721854305	4.06649006622517	3.99973509933775				0.160529801324503	-0.0965298013245033	-0.901721854304636	-0.597086092715232	19.2235761589404	1.62437086092715				0.948026490066225	0.115496688741722	-0.0100662251655629	2.7517880794702	3.13192052980133	0.782516556291392				0.159788079470199	-0.238834437086093	-0.884238410596026	-0.539602649006623	0.437615894039735	1.20529801324503			
22	440	-0.248158940397351	0.130754966887417	-0.903523178807947	-5.00662251655629	1.5353642384106	4.41509933774834				0.944953642384106	-0.0322119205298013	0.253139072847682	-0.966092715231788	0.307814569536424	8.65403973509934				-0.154172185430464	-0.257271523178808	-0.83994701986755	-3.63258278145695	1.26649006622517	7.35973509933775				0.144529801324503	-0.0965298013245033	-0.869721854304636	5.00291390728477	24.2635761589404	1.90437086092715				0.916026490066225	0.0354966887417219	0.0219337748344371	4.1517880794702	7.89192052980133	3.30251655629139				0.143788079470199	-0.222834437086093	-0.900238410596026	0.300397350993377	3.79761589403974	2.88529801324503			
23	460	-0.248158940397351	0.130754966887417	-0.935523178807947	-5.84662251655629	-0.424635761589404	4.97509933774835				0.928953642384106	-0.0802119205298013	0.221139072847682	-3.48609271523179	-0.532185430463576	6.13403973509934				-0.202172185430464	-0.177271523178808	-0.82394701986755	-2.79258278145695	-0.133509933774833	8.75973509933775				0.112529801324503	-0.0645298013245033	-0.885721854304636	8.36291390728477	23.9835761589404	-0.0556291390728476				0.916026490066225	0.0194966887417219	0.0219337748344371	-1.1682119205298	9.57192052980133	2.46251655629139				0.159788079470199	-0.222834437086093	-0.900238410596026	5.90039735099338	6.59761589403974	2.60529801324503			
24	480	-0.264158940397351	0.114754966887417	-0.935523178807947	-9.48662251655629	0.695364238410596	5.25509933774834				0.976953642384106	-0.0482119205298013	0.125139072847682	-6.00609271523179	-0.252185430463576	4.45403973509934				-0.218172185430464	-0.177271523178808	-0.87194701986755	-0.272582781456954	0.426490066225167	10.7197350993378				0.144529801324503	-0.112529801324503	-0.917721854304636	13.9629139072848	26.7835761589404	-1.17562913907285				0.948026490066225	0.0194966887417219	0.0539337748344371	-2.5682119205298	8.17192052980133	2.74251655629139				0.159788079470199	-0.254834437086093	-0.868238410596026	8.70039735099338	7.43761589403974	-0.194701986754968			
25	500	-0.280158940397351	0.130754966887417	-0.919523178807947	-11.4466225165563	0.975364238410596	4.97509933774835				0.976953642384106	-0.0482119205298013	0.173139072847682	-10.2060927152318	6.74781456953642	4.17403973509934				-0.218172185430464	-0.225271523178808	-0.88794701986755	3.36741721854305	0.426490066225167	10.4397350993378				0.160529801324503	-0.144529801324503	-0.949721854304636	14.2429139072848	25.3835761589404	0.224370860927152				0.948026490066225	0.0194966887417219	0.0379337748344371	-2.2882119205298	5.93192052980133	3.86251655629139				0.175788079470199	-0.254834437086093	-0.900238410596026	11.7803973509934	9.39761589403974	-1.87470198675497			
26	520	-0.264158940397351	0.162754966887417	-0.919523178807947	-13.9666225165563	1.5353642384106	4.41509933774834				0.960953642384106	0.0317880794701987	0.189139072847682	-6.84609271523179	4.78781456953642	0.53403973509934				-0.186172185430464	-0.225271523178808	-0.88794701986755	-0.272582781456954	-1.25350993377483	9.87973509933775				0.208529801324503	-0.160529801324503	-0.965721854304636	13.1229139072848	23.7035761589404	1.62437086092715				0.964026490066225	0.0354966887417219	0.0379337748344371	-2.0082119205298	10.4119205298013	3.30251655629139				0.175788079470199	-0.254834437086093	-0.916238410596027	10.6603973509934	12.7576158940397	-1.31470198675497			
27	540	-0.248158940397351	0.194754966887417	-0.935523178807947	-11.4466225165563	1.2553642384106	4.97509933774835				0.992953642384106	-0.000211920529801304	0.285139072847682	5.47390728476821	15.9878145695364	3.05403973509934				-0.218172185430464	-0.161271523178808	-0.88794701986755	-5.31258278145695	-1.81350993377483	8.19973509933775				0.224529801324503	-0.176529801324503	-0.981721854304636	9.20291390728477	23.4235761589404	-1.73562913907285				0.948026490066225	0.0674966887417219	0.0219337748344371	-4.5282119205298	13.4919205298013	1.34251655629139				0.159788079470199	-0.254834437086093	-0.932238410596026	14.8603973509934	10.2376158940397	0.365298013245032			
28	560	-0.216158940397351	0.178754966887417	-0.935523178807947	-11.1666225165563	2.0953642384106	5.25509933774834				0.928953642384106	-0.0162119205298013	0.189139072847682	8.27390728476821	2.82781456953642	2.21403973509934				-0.186172185430464	-0.113271523178808	-0.87194701986755	-1.39258278145695	-1.81350993377483	8.19973509933775				0.224529801324503	-0.144529801324503	-0.981721854304636	2.48291390728477	23.7035761589404	-4.81562913907285				0.948026490066225	0.0674966887417219	0.0219337748344371	-0.328211920529802	16.5719205298013	-0.337483443708608				0.143788079470199	-0.270834437086093	-0.900238410596026	14.5803973509934	8.55761589403974	2.88529801324503			
29	580	-0.232158940397351	0.194754966887417	-0.951523178807947	-11.1666225165563	2.0953642384106	5.81509933774834				0.976953642384106	-0.000211920529801304	0.253139072847682	-0.406092715231788	18.5078145695364	0.25403973509934				-0.202172185430464	-0.129271523178808	-0.90394701986755	0.287417218543046	-1.25350993377483	8.47973509933775				0.256529801324503	-0.144529801324503	-0.997721854304636	0.242913907284768	23.7035761589404	-7.89562913907285				0.964026490066225	0.0674966887417219	0.0539337748344371	3.8717880794702	23.8519205298013	-2.57748344370861				0.111788079470199	-0.270834437086093	-0.884238410596026	9.54039735099338	7.99761589403974	4.28529801324503			
30	600	-0.248158940397351	0.210754966887417	-0.951523178807947	-8.64662251655629	1.5353642384106	5.81509933774834				0.960953642384106	-0.0162119205298013	0.317139072847682	-3.48609271523179	20.7478145695364	-0.0259602649006601				-0.202172185430464	-0.145271523178808	-0.90394701986755	5.60741721854305	-0.973509933774833	6.51973509933775				0.224529801324503	-0.144529801324503	-0.981721854304636	-5.91708609271523	23.4235761589404	-11.5356291390728				0.932026490066225	0.0834966887417219	0.0379337748344371	0.791788079470198	23.5719205298013	-2.01748344370861				0.143788079470199	-0.238834437086093	-0.900238410596026	6.18039735099338	11.6376158940397	5.68529801324503			
31	620	-0.216158940397351	0.194754966887417	-0.935523178807947	-6.68662251655629	2.6553642384106	4.69509933774834				0.928953642384106	0.0477880794701987	0.269139072847682	0.433907284768212	27.4678145695364	1.37403973509934				-0.186172185430464	-0.161271523178808	-0.90394701986755	2.24741721854305	-0.693509933774834	4.55973509933775				0.192529801324503	-0.144529801324503	-0.949721854304636	-12.0770860927152	23.1435761589404	-15.4556291390728				0.900026490066225	0.0994966887417219	0.0539337748344371	2.4717880794702	29.4519205298013	-5.37748344370861				0.159788079470199	-0.222834437086093	-0.884238410596026	11.2203973509934	16.3976158940397	5.68529801324503			
32	640	-0.200158940397351	0.194754966887417	-0.919523178807947	-6.12662251655629	4.0553642384106	3.57509933774835				0.976953642384106	-0.0162119205298013	0.205139072847682	11.3539072847682	33.9078145695364	8.09403973509934				-0.202172185430464	-0.145271523178808	-0.90394701986755	0.847417218543046	0.706490066225167	1.75973509933775				0.192529801324503	-0.112529801324503	-0.949721854304636	-14.3170860927152	25.1035761589404	-16.5756291390728				0.916026490066225	0.0674966887417219	0.0699337748344371	5.8317880794702	38.4119205298013	-7.05748344370861				0.175788079470199	-0.238834437086093	-0.820238410596026	14.8603973509934	19.4776158940397	2.32529801324503			
33	660	-0.216158940397351	0.210754966887417	-0.919523178807947	-5.28662251655629	0.695364238410596	1.89509933774834				0.976953642384106	-0.0482119205298013	0.269139072847682	7.99390728476821	37.2678145695364	6.69403973509934				-0.218172185430464	-0.129271523178808	-0.88794701986755	0.847417218543046	0.986490066225167	-0.20026490066225				0.240529801324503	-0.0965298013245033	-0.949721854304636	-10.3970860927152	29.5835761589404	-15.7356291390728				0.980026490066225	0.0514966887417219	0.149933774834437	10.5917880794702	39.2519205298013	-8.73748344370861				0.239788079470199	-0.286834437086093	-0.788238410596027	14.5803973509934	23.6776158940397	1.20529801324503			
34	680	-0.216158940397351	0.210754966887417	-0.935523178807947	-5.84662251655629	-1.2646357615894	1.89509933774834				0.880953642384106	0.0157880794701987	0.301139072847682	-1.24609271523179	38.1078145695364	4.17403973509934				-0.186172185430464	-0.129271523178808	-0.88794701986755	6.16741721854305	1.54649006622517	-1.88026490066225				0.272529801324503	-0.112529801324503	-0.949721854304636	-10.3970860927152	31.8235761589404	-16.2956291390729				0.900026490066225	0.0994966887417219	0.149933774834437	-0.608211920529802	29.4519205298013	-9.01748344370861				0.271788079470199	-0.270834437086093	-0.756238410596026	10.1003973509934	25.9176158940397	-1.31470198675497			
35	700	-0.264158940397351	0.226754966887417	-0.919523178807947	-4.16662251655629	-0.144635761589404	1.61509933774834				0.944953642384106	-0.000211920529801304	0.349139072847682	-7.68609271523179	43.1478145695364	6.97403973509934				-0.218172185430464	-0.145271523178808	-0.85594701986755	7.28741721854305	2.38649006622517	-1.32026490066225				0.240529801324503	-0.0965298013245033	-0.901721854304636	-16.5570860927152	29.3035761589404	-17.6956291390729				0.884026490066225	0.0994966887417219	0.133933774834437	-0.328211920529802	37.0119205298013	-12.0974834437086				0.255788079470199	-0.254834437086093	-0.804238410596027	17.1003973509934	28.1576158940397	-4.11470198675497			
36	720	-0.280158940397351	0.210754966887417	-0.887523178807947	-3.60662251655629	3.2153642384106	3.01509933774834				0.976953642384106	0.0317880794701987	0.317139072847682	0.433907284768212	40.9078145695364	4.73403973509934				-0.202172185430464	-0.161271523178808	-0.88794701986755	9.80741721854305	0.986490066225167	-1.04026490066225				0.240529801324503	-0.0805298013245033	-0.901721854304636	-17.6770860927152	27.3435761589404	-17.6956291390729				0.948026490066225	0.0834966887417219	0.165933774834437	-0.608211920529802	39.2519205298013	-15.1774834437086				0.223788079470199	-0.302834437086093	-0.852238410596026	30.8203973509934	35.1576158940397	-8.31470198675497			
37	740	-0.248158940397351	0.210754966887417	-0.871523178807947	-3.04662251655629	2.3753642384106	3.57509933774835				0.912953642384106	0.0157880794701987	0.269139072847682	11.0739072847682	45.6678145695364	6.97403973509934				-0.186172185430464	-0.177271523178808	-0.90394701986755	7.84741721854305	0.706490066225167	1.19973509933775				0.288529801324503	-0.0645298013245033	-0.933721854304636	-15.1570860927152	26.7835761589404	-16.0156291390729				0.948026490066225	0.115496688741722	0.149933774834437	-2.5682119205298	37.2919205298013	-15.1774834437086				0.287788079470199	-0.366834437086093	-0.820238410596026	30.8203973509934	36.8376158940397	-2.99470198675497			
38	760	-0.232158940397351	0.210754966887417	-0.919523178807947	-3.88662251655629	0.415364238410596	4.97509933774835				0.896953642384106	-0.0162119205298013	0.285139072847682	3.51390728476821	43.4278145695364	4.17403973509934				-0.170172185430464	-0.209271523178808	-0.87194701986755	11.767417218543	1.54649006622517	0.63973509933775				0.320529801324503	-0.0485298013245033	-0.901721854304636	-19.6370860927152	29.5835761589404	-14.0556291390728				0.948026490066225	0.131496688741722	0.149933774834437	-2.8482119205298	34.2119205298013	-13.7774834437086				0.303788079470199	-0.366834437086093	-0.836238410596026	18.2203973509934	35.7176158940397	7.08529801324503			
39	780	-0.248158940397351	0.194754966887417	-0.919523178807947	-5.00662251655629	0.975364238410596	8.33509933774834				0.848953642384106	-0.0322119205298013	0.365139072847682	-0.406092715231788	44.2678145695364	1.09403973509934				-0.170172185430464	-0.193271523178808	-0.82394701986755	15.127417218543	0.146490066225167	1.19973509933775				0.320529801324503	-0.0325298013245033	-0.885721854304636	-19.9170860927152	32.3835761589404	-15.4556291390728				0.932026490066225	0.131496688741722	0.133933774834437	-3.1282119205298	31.9719205298013	-12.0974834437086				0.287788079470199	-0.318834437086093	-0.836238410596026	12.0603973509934	31.2376158940397	13.805298013245			
40	800	-0.280158940397351	0.162754966887417	-0.919523178807947	-3.88662251655629	2.6553642384106	8.61509933774835				0.960953642384106	0.0317880794701987	0.381139072847682	2.11390728476821	47.3478145695364	1.09403973509934				-0.218172185430464	-0.241271523178808	-0.83994701986755	13.167417218543	0.146490066225167	5.67973509933775				0.272529801324503	-0.0165298013245033	-0.853721854304636	-15.4370860927152	28.1835761589404	-16.8556291390729				0.884026490066225	0.115496688741722	0.149933774834437	-2.5682119205298	35.6119205298013	-12.3774834437086				0.255788079470199	-0.286834437086093	-0.852238410596026	17.9403973509934	31.7976158940397	16.885298013245			
41	820	-0.248158940397351	0.178754966887417	-0.919523178807947	-5.84662251655629	2.9353642384106	8.33509933774834				0.896953642384106	0.0157880794701987	0.253139072847682	5.19390728476821	45.1078145695364	4.45403973509934				-0.218172185430464	-0.289271523178808	-0.85594701986755	10.367417218543	0.706490066225167	8.47973509933775				0.304529801324503	-0.0325298013245033	-0.885721854304636	-14.5970860927152	23.1435761589404	-19.9356291390729				0.900026490066225	0.131496688741722	0.213933774834437	-0.0482119205298018	39.2519205298013	-12.3774834437086				0.271788079470199	-0.302834437086093	-0.804238410596027	19.9003973509934	23.6776158940397	17.445298013245			
42	840	-0.248158940397351	0.194754966887417	-0.935523178807947	-8.36662251655629	1.2553642384106	7.49509933774834				0.944953642384106	-0.0482119205298013	0.349139072847682	15.2739072847682	54.0678145695364	9.49403973509934				-0.250172185430464	-0.257271523178808	-0.87194701986755	5.60741721854305	2.66649006622517	9.87973509933775				0.352529801324503	-0.0325298013245033	-0.933721854304636	-15.1570860927152	25.9435761589404	-19.6556291390729				0.964026490066225	0.115496688741722	0.229933774834437	1.6317880794702	39.8119205298013	-12.6574834437086				0.303788079470199	-0.350834437086093	-0.820238410596026	21.0203973509934	23.3976158940397	17.165298013245			
43	860	-0.296158940397351	0.210754966887417	-0.919523178807947	-11.1666225165563	3.2153642384106	7.77509933774834				0.960953642384106	-0.0802119205298013	0.493139072847682	4.07390728476821	51.5478145695364	5.57403973509934				-0.250172185430464	-0.161271523178808	-0.85594701986755	6.44741721854305	1.82649006622517	9.87973509933775				0.368529801324503	-0.0325298013245033	-0.917721854304636	-19.3570860927152	31.2635761589404	-21.8956291390728				0.964026490066225	0.0994966887417219	0.213933774834437	1.0717880794702	37.2919205298013	-11.8174834437086				0.303788079470199	-0.302834437086093	-0.804238410596027	12.3403973509934	25.0776158940397	14.645298013245			
44	880	-0.280158940397351	0.210754966887417	-0.903523178807947	-9.76662251655629	4.8953642384106	7.77509933774834				0.944953642384106	0.0157880794701987	0.445139072847682	-4.04609271523179	45.3878145695364	1.93403973509934				-0.250172185430464	-0.129271523178808	-0.88794701986755	8.68741721854305	2.66649006622517	10.1597350993378				0.352529801324503	-0.0165298013245033	-0.853721854304636	-24.9570860927152	32.9435761589404	-18.8156291390729				0.916026490066225	0.147496688741722	0.261933774834437	2.1917880794702	41.4919205298013	-11.8174834437086				0.303788079470199	-0.270834437086093	-0.836238410596026	11.5003973509934	30.3976158940397	7.64529801324503			
45	900	-0.232158940397351	0.242754966887417	-0.935523178807947	-9.48662251655629	4.6153642384106	8.05509933774835				0.928953642384106	-0.0322119205298013	0.381139072847682	7.99390728476821	53.2278145695364	5.57403973509934				-0.234172185430464	-0.177271523178808	-0.90394701986755	12.047417218543	4.34649006622517	9.03973509933775				0.352529801324503	0.0154701986754967	-0.837721854304636	-22.1570860927152	33.2235761589404	-17.9756291390729				0.932026490066225	0.163496688741722	0.277933774834437	2.7517880794702	41.4919205298013	-11.2574834437086				0.319788079470199	-0.302834437086093	-0.820238410596026	21.0203973509934	30.9576158940397	-0.474701986754968			
46	920	-0.264158940397351	0.258754966887417	-0.983523178807947	-12.2866225165563	5.4553642384106	10.0150993377483				0.912953642384106	-0.0802119205298013	0.509139072847682	11.0739072847682	55.7478145695364	4.45403973509934				-0.202172185430464	-0.177271523178808	-0.88794701986755	14.007417218543	5.74649006622517	7.35973509933775				0.400529801324503	0.0314701986754967	-0.853721854304636	-14.0370860927152	40.2235761589404	-17.4156291390728				0.948026490066225	0.131496688741722	0.293933774834437	5.2717880794702	43.1719205298013	-9.85748344370861				0.335788079470199	-0.334834437086093	-0.804238410596027	31.3803973509934	30.3976158940397	-7.75470198675497			
47	940	-0.232158940397351	0.242754966887417	-0.935523178807947	-13.4066225165563	10.2153642384106	9.45509933774835				0.944953642384106	-0.0642119205298013	0.525139072847682	4.35390728476821	49.8678145695364	2.49403973509934				0	0	0	0	0	0				0.448529801324503	0.0474701986754967	-0.869721854304636	-8.99708609271523	48.6235761589404	-15.7356291390728				0.964026490066225	0.131496688741722	0.341933774834437	5.5517880794702	43.4519205298013	-9.57748344370861				0.351788079470199	-0.382834437086093	-0.804238410596027	22.9803973509934	34.3176158940397	-9.43470198675497			
48	960	-0.248158940397351	0.226754966887417	-0.935523178807947	-13.4066225165563	10.7753642384106	11.6950993377483				0.832953642384106	-0.0162119205298013	0.509139072847682	4.63390728476821	48.1878145695364	1.65403973509934				-0.218172185430464	-0.209271523178808	-0.90394701986755	14.287417218543	-2.09350993377483	7.63973509933775				0	0	0	0	0	0				0.900026490066225	0.179496688741722	0.309933774834437	5.8317880794702	37.0119205298013	-7.61748344370861				0	0	0	0	0	0			
49	980	-0.264158940397351	0.226754966887417	-0.951523178807947	-15.6466225165563	7.9753642384106	14.2150993377483				0.880953642384106	-0.0322119205298013	0.541139072847682	9.39390728476821	56.0278145695364	1.09403973509934				-0.282172185430464	-0.225271523178808	-0.93594701986755	17.3674172185431	0.426490066225167	5.11973509933775				0.448529801324503	0.0474701986754967	-0.821721854304636	-7.59708609271523	47.2235761589404	-14.6156291390728				0.852026490066225	0.179496688741722	0.341933774834437	9.1917880794702	39.8119205298013	-5.65748344370861				0.447788079470199	-0.414834437086093	-0.772238410596026	17.6603973509934	30.9576158940397	-7.75470198675497			
50	1000	-0.232158940397351	0.210754966887417	-0.935523178807947	-17.3266225165563	10.7753642384106	15.3350993377483				0.896953642384106	-0.0322119205298013	0.621139072847682	13.3139072847682	62.1878145695364	2.49403973509934				-0.282172185430464	-0.209271523178808	-0.90394701986755	19.8874172185431	5.46649006622517	0.63973509933775				0.480529801324503	0.0474701986754967	-0.853721854304636	-6.47708609271523	44.7035761589404	-14.3356291390729				0.852026490066225	0.195496688741722	0.421933774834437	11.9917880794702	50.1719205298013	-7.33748344370861				0.431788079470199	-0.414834437086093	-0.756238410596026	15.7003973509934	26.4776158940397	-3.55470198675497			
51	1020	-0.216158940397351	0.210754966887417	-1.03152317880795	-15.0866225165563	10.7753642384106	16.1750993377483				0.832953642384106	-0.0162119205298013	0.589139072847682	13.5939072847682	51.2678145695364	3.89403973509934				-0.218172185430464	-0.241271523178808	-0.83994701986755	23.247417218543	8.54649006622517	-3.84026490066225				0.512529801324503	0.0154701986754967	-0.869721854304636	-7.03708609271523	45.2635761589404	-14.0556291390728				0.884026490066225	0.179496688741722	0.405933774834437	12.5517880794702	51.0119205298013	-9.01748344370861				0.447788079470199	-0.430834437086093	-0.708238410596026	15.9803973509934	27.3176158940397	-1.31470198675497			
52	1040	-0.264158940397351	0.226754966887417	-1.03152317880795	-34.9666225165563	17.7753642384106	20.6550993377483				0.848953642384106	-0.0642119205298013	0.509139072847682	-1.24609271523179	52.3878145695364	2.21403973509934				-0.186172185430464	-0.257271523178808	-0.85594701986755	19.607417218543	7.42649006622517	-6.64026490066225				0.560529801324503	0.0474701986754967	-0.853721854304636	-13.7570860927152	41.9035761589404	-11.8156291390728				0.900026490066225	0.163496688741722	0.469933774834437	15.0717880794702	50.7319205298013	-10.9774834437086				0.479788079470199	-0.462834437086093	-0.708238410596026	17.6603973509934	25.9176158940397	-1.87470198675497			
53	1060	-0.232158940397351	0.210754966887417	-0.887523178807947	-36.9266225165563	24.4953642384106	20.0950993377483				0.896953642384106	-0.0482119205298013	0.637139072847682	-1.80609271523179	44.2678145695364	0.81403973509934				-0.218172185430464	-0.289271523178808	-0.88794701986755	15.967417218543	7.98649006622517	-9.44026490066225				0.608529801324503	0.0634701986754967	-0.821721854304636	-14.8770860927152	37.1435761589404	-8.45562913907285				0.964026490066225	0.147496688741722	0.485933774834437	11.1517880794702	44.8519205298013	-7.89748344370861				0.495788079470199	-0.462834437086093	-0.724238410596026	17.1003973509934	30.3976158940397	-8.03470198675497			
54	1080	-0.216158940397351	0.306754966887417	-0.759523178807947	-28.5266225165563	24.2153642384106	17.0150993377483				0.848953642384106	0.0477880794701987	0.621139072847682	3.23390728476821	32.2278145695364	-1.14596026490066				-0.250172185430464	-0.289271523178808	-0.87194701986755	20.447417218543	11.3464900662252	-6.64026490066225				0.608529801324503	0.0634701986754967	-0.821721854304636	-14.0370860927152	34.0635761589404	-7.33562913907285				0.900026490066225	0.179496688741722	0.437933774834437	9.7517880794702	39.2519205298013	-7.33748344370861				0.495788079470199	-0.462834437086093	-0.708238410596026	16.5403973509934	36.2776158940397	-12.234701986755			
55	1100	-0.280158940397351	0.354754966887417	-0.839523178807947	-26.0066225165563	21.4153642384106	21.2150993377483				0.816953642384106	-0.0962119205298013	0.733139072847682	0.713907284768212	46.5078145695364	4.45403973509934				-0.282172185430464	-0.257271523178808	-0.88794701986755	17.927417218543	10.5064900662252	-5.52026490066225				0.608529801324503	0.0794701986754967	-0.837721854304636	-11.5170860927152	31.8235761589404	-7.05562913907285				0.836026490066225	0.195496688741722	0.517933774834437	13.6717880794702	42.0519205298013	-9.57748344370861				0.479788079470199	-0.478834437086093	-0.692238410596026	17.1003973509934	32.0776158940397	-11.954701986755			
56	1120	-0.312158940397351	0.338754966887417	-0.967523178807947	-22.3666225165563	25.8953642384106	18.9750993377483				0.912953642384106	-0.0162119205298013	0.717139072847682	0.713907284768212	45.9478145695364	0.53403973509934				-0.298172185430464	-0.337271523178808	-0.88794701986755	20.727417218543	13.8664900662252	-5.80026490066225				0.640529801324503	0.0954701986754967	-0.869721854304636	-11.2370860927152	31.2635761589404	-7.61562913907285				0.916026490066225	0.211496688741722	0.549933774834437	13.1117880794702	46.8119205298013	-12.3774834437086				0.511788079470199	-0.510834437086093	-0.708238410596026	16.5403973509934	30.6776158940397	-11.954701986755			
57	1140	-0.280158940397351	0.338754966887417	-0.999523178807947	-29.3666225165563	31.2153642384106	17.8550993377483				0.960953642384106	-0.0322119205298013	0.637139072847682	2.11390728476821	26.3478145695364	-0.585960264900661				-0.330172185430464	-0.321271523178808	-0.91994701986755	16.807417218543	17.7864900662252	-4.40026490066225				0.704529801324503	0.0794701986754967	-0.853721854304636	-13.1970860927152	30.4235761589404	-7.33562913907285				0.996026490066225	0.179496688741722	0.533933774834437	12.5517880794702	38.4119205298013	-11.8174834437086				0.559788079470199	-0.558834437086093	-0.740238410596026	17.9403973509934	33.1976158940397	-17.274701986755			
58	1160	-0.216158940397351	0.386754966887417	-0.839523178807947	-22.9266225165563	26.7353642384106	17.0150993377483				0.896953642384106	-0.000211920529801304	0.749139072847682	-6.28609271523179	18.2278145695364	-0.30596026490066				-0.266172185430464	-0.289271523178808	-0.83994701986755	17.647417218543	25.9064900662252	-2.72026490066225				0.720529801324503	0.111470198675497	-0.853721854304636	-12.3570860927152	30.7035761589404	-9.85562913907285				0.996026490066225	0.195496688741722	0.597933774834437	7.7917880794702	35.6119205298013	-12.3774834437086				0.591788079470199	-0.558834437086093	-0.788238410596027	15.7003973509934	35.9976158940397	-18.954701986755			
59	1180	-0.152158940397351	0.370754966887417	-0.903523178807947	-26.0066225165563	32.0553642384106	17.0150993377483				0.848953642384106	0.0477880794701987	0.829139072847682	10.5139072847682	25.2278145695364	-0.30596026490066				-0.250172185430464	-0.289271523178808	-0.87194701986755	1.40741721854305	25.9064900662252	-3.56026490066225				0.736529801324503	0.127470198675497	-0.885721854304636	-8.99708609271523	35.7435761589404	-12.0956291390728				0.980026490066225	0.259496688741722	0.597933774834437	2.7517880794702	31.1319205298013	-10.9774834437086				0.591788079470199	-0.542834437086093	-0.804238410596027	12.3403973509934	36.2776158940397	-18.394701986755			
60	1200	-0.200158940397351	0.386754966887417	-0.983523178807947	-10.8866225165563	35.1353642384106	17.5750993377483				0.928953642384106	-0.0642119205298013	0.861139072847682	18.3539072847682	27.4678145695364	4.17403973509934				-0.298172185430464	-0.353271523178808	-1.03194701986755	10.367417218543	32.3464900662252	-6.64026490066225				0.736529801324503	0.143470198675497	-0.885721854304636	-4.79708609271523	37.7035761589404	-12.6556291390728				0.996026490066225	0.259496688741722	0.597933774834437	12.8317880794702	35.3319205298013	-12.6574834437086				0.607788079470199	-0.526834437086093	-0.788238410596027	4.78039735099338	30.3976158940397	-15.874701986755			
61	1220	-0.200158940397351	0.466754966887417	-0.967523178807947	-7.52662251655629	41.5753642384106	14.7750993377483				0.944953642384106	-0.0642119205298013	0.845139072847682	16.3939072847682	24.3878145695364	1.93403973509934				-0.250172185430464	-0.337271523178808	-0.90394701986755	-2.51258278145695	40.7464900662252	-5.80026490066225				0.800529801324503	0.175470198675497	-0.869721854304636	1.64291390728477	37.4235761589404	-13.7756291390728				0.996026490066225	0.259496688741722	0.693933774834437	18.7117880794702	36.4519205298013	-13.4974834437086				0.671788079470199	-0.574834437086093	-0.804238410596027	7.02039735099338	28.7176158940397	-18.394701986755			
62	1240	-0.152158940397351	0.466754966887417	-0.951523178807947	-3.60662251655629	49.9753642384106	12.2550993377483				0.976953642384106	0.0317880794701987	0.909139072847682	12.1939072847682	23.5478145695364	-1.14596026490066				-0.250172185430464	-0.321271523178808	-0.98394701986755	-12.872582781457	41.5864900662252	-9.16026490066225				0.848529801324503	0.127470198675497	-0.917721854304636	8.36291390728477	38.5435761589404	-16.2956291390729				1.04402649006623	0.291496688741722	0.741933774834437	10.3117880794702	34.2119205298013	-14.0574834437086				0.735788079470199	-0.574834437086093	-0.820238410596026	5.06039735099338	26.4776158940397	-22.034701986755			
63	1260	-0.072158940397351	0.466754966887417	-0.983523178807947	9.27337748344371	57.2553642384106	10.2950993377483				0.992953642384106	0.0317880794701987	0.989139072847682	23.1139072847682	18.5078145695364	3.33403973509934				-0.218172185430464	-0.257271523178808	-0.91994701986755	-5.03258278145695	52.5064900662252	-10.2802649006622				0.880529801324503	0.111470198675497	-0.965721854304636	6.40291390728477	46.9435761589404	-17.1356291390729				1.06002649006623	0.323496688741722	0.709933774834437	13.3917880794702	37.2919205298013	-13.7774834437086				0.767788079470199	-0.574834437086093	-0.804238410596027	-10.6196026490066	30.6776158940397	-22.594701986755			
64	1280	-0.072158940397351	0.402754966887417	-1.06352317880795	14.8733774834437	65.9353642384106	11.4150993377483				0.960953642384106	-0.000211920529801304	0.893139072847682	33.4739072847682	-1.65218543046358	1.65403973509934				-0.138172185430464	-0.257271523178808	-0.91994701986755	-3.63258278145695	58.3864900662252	-14.2002649006623				0.928529801324503	0.207470198675497	-0.949721854304636	1.08291390728477	58.1435761589404	-14.8956291390728				1.10802649006623	0.355496688741722	0.757933774834437	24.3117880794702	40.9319205298013	-13.4974834437086				0.783788079470199	-0.558834437086093	-0.836238410596026	-18.1796026490066	35.4376158940397	-25.674701986755			
65	1300	-0.056158940397351	0.370754966887417	-1.03152317880795	14.0333774834437	75.1753642384106	11.4150993377483				0.960953642384106	-0.0322119205298013	0.909139072847682	29.2739072847682	-12.5721854304636	-0.0259602649006601				-0.122172185430464	-0.273271523178808	-1.03194701986755	-3.91258278145695	63.4264900662252	-18.9602649006623				0.960529801324503	0.255470198675497	-0.869721854304636	7.24291390728477	56.7435761589404	-12.3756291390728				1.06002649006623	0.323496688741722	0.789933774834437	18.4317880794702	21.3319205298013	-10.4174834437086				0.831788079470199	-0.558834437086093	-0.804238410596027	-7.53960264900662	40.1976158940397	-34.074701986755			
66	1320	-0.008158940397351	0.386754966887417	-0.999523178807947	24.3933774834437	81.8953642384106	12.2550993377483				0.992953642384106	0.0317880794701987	0.957139072847682	25.3539072847682	-2.21218543046358	-3.66596026490066				-0.0421721854304636	-0.241271523178808	-0.96794701986755	-2.79258278145695	71.5464900662252	-22.8802649006623				0.896529801324503	0.255470198675497	-0.869721854304636	22.9229139072848	45.5435761589404	-14.3356291390729				1.02802649006623	0.339496688741722	0.757933774834437	13.3917880794702	9.01192052980133	-8.17748344370861				0.863788079470199	-0.558834437086093	-0.804238410596027	-3.33960264900662	41.8776158940397	-34.074701986755			
67	1340	0.119841059602649	0.322754966887417	-1.04752317880795	33.6333774834437	91.4153642384106	13.6550993377483				0.992953642384106	-0.000211920529801304	1.00513907284768	32.9139072847682	-1.65218543046358	1.93403973509934				0.0378278145695364	-0.289271523178808	-1.01594701986755	1.96741721854305	79.3864900662252	-29.3202649006623				0.944529801324503	0.143470198675497	-0.949721854304636	31.3229139072848	38.8235761589404	-13.4956291390728				1.04402649006623	0.355496688741722	0.805933774834437	19.8317880794702	15.1719205298013	-8.17748344370861				0.895788079470199	-0.590834437086093	-0.788238410596027	-12.5796026490066	39.9176158940397	-29.874701986755			
68	1360	0.151841059602649	0.354754966887417	-1.06352317880795	32.5133774834437	95.8953642384106	14.4950993377483				0.992953642384106	0.0477880794701987	0.973139072847682	42.9939072847682	-19.2921854304636	4.73403973509934				0.101827814569536	-0.289271523178808	-0.96794701986755	7.00741721854305	84.9864900662252	-36.6002649006623				0.960529801324503	0.0474701986754967	-0.981721854304636	19.0029139072848	43.0235761589404	-15.1756291390728				1.09202649006623	0.339496688741722	0.773933774834437	19.5517880794702	18.2519205298013	-7.89748344370861				0.911788079470199	-0.558834437086093	-0.772238410596026	-35.5396026490066	41.8776158940397	-28.474701986755			
69	1380	0.151841059602649	0.338754966887417	-1.01552317880795	40.9133774834437	102.895364238411	14.7750993377483				1.00895364238411	-0.0162119205298013	0.941139072847682	39.6339072847682	-26.0121854304636	3.05403973509934				0.133827814569536	-0.321271523178808	-0.96794701986755	13.447417218543	89.4664900662252	-39.6802649006623				0.960529801324503	0.0954701986754967	-0.869721854304636	-4.51708609271523	47.2235761589404	-12.9356291390728				1.04402649006623	0.323496688741722	0.757933774834437	10.3117880794702	7.61192052980133	-9.57748344370861				0.895788079470199	-0.494834437086093	-0.772238410596026	-26.0196026490066	46.9176158940397	-32.394701986755			
70	1400	0.135841059602649	0.274754966887417	-1.01552317880795	43.9933774834437	106.815364238411	17.8550993377483				1.04095364238411	0.0157880794701987	0.845139072847682	22.5539072847682	-46.1721854304636	0.53403973509934				0.149827814569536	-0.369271523178808	-0.93594701986755	16.247417218543	93.9464900662252	-38.8402649006623				0.864529801324503	0.143470198675497	-0.805721854304636	0.802913907284768	46.1035761589404	-7.89562913907285				1.01202649006623	0.323496688741722	0.741933774834437	4.1517880794702	-1.34807947019868	-9.85748344370861				0.911788079470199	-0.414834437086093	-0.756238410596026	-16.4996026490066	51.3976158940397	-38.834701986755			
71	1420	0.167841059602649	0.258754966887417	-1.03152317880795	46.5133774834437	107.935364238411	19.5350993377483				1.04095364238411	0.0797880794701987	0.749139072847682	20.5939072847682	-44.2121854304636	2.49403973509934				0.165827814569536	-0.401271523178808	-0.95194701986755	13.447417218543	98.7064900662252	-37.1602649006623				0.784529801324503	0.127470198675497	-0.837721854304636	19.2829139072848	45.8235761589404	-1.45562913907285				1.01202649006623	0.339496688741722	0.629933774834437	4.1517880794702	-6.66807947019868	-6.21748344370861				0.847788079470199	-0.398834437086093	-0.772238410596026	-3.33960264900662	50.5576158940397	-41.354701986755			
72	1440	0.183841059602649	0.306754966887417	-0.983523178807947	46.2333774834437	114.375364238411	18.9750993377483				1.10495364238411	0.0477880794701987	0.781139072847682	31.7939072847682	-30.2121854304636	0.25403973509934				0.181827814569536	-0.321271523178808	-0.93594701986755	6.72741721854305	102.626490066225	-35.4802649006623				0.816529801324503	0.111470198675497	-0.821721854304636	27.9629139072848	50.8635761589404	8.62437086092715				0.964026490066225	0.355496688741722	0.645933774834437	8.6317880794702	-4.14807947019868	-5.65748344370861				0.847788079470199	-0.446834437086093	-0.756238410596026	-10.6196026490066	47.7576158940397	-40.514701986755			
73	1460	0.231841059602649	0.226754966887417	-0.951523178807947	57.4333774834437	124.455364238411	19.8150993377483				1.02495364238411	0.0317880794701987	0.765139072847682	29.8339072847682	-37.4921854304636	-3.10596026490066				0.197827814569536	-0.289271523178808	-0.88794701986755	5.04741721854305	108.506490066225	-34.9202649006623				0.880529801324503	0.0954701986754967	-0.773721854304636	29.0829139072848	49.7435761589404	7.78437086092715				0.948026490066225	0.291496688741722	0.677933774834437	2.7517880794702	-5.26807947019868	-7.89748344370861				0.863788079470199	-0.430834437086093	-0.724238410596026	-23.7796026490066	45.2376158940397	-36.594701986755			
74	1480	0.263841059602649	0.130754966887417	-0.887523178807947	56.0333774834437	130.055364238411	18.6950993377483				0.992953642384106	0.0317880794701987	0.653139072847682	16.3939072847682	-45.3321854304636	-7.86596026490066				0.229827814569536	-0.257271523178808	-0.90394701986755	-1.67258278145695	113.546490066225	-32.9602649006623				0.832529801324503	0.0474701986754967	-0.709721854304636	22.3629139072848	48.9035761589404	0.224370860927152				0.948026490066225	0.275496688741722	0.549933774834437	-7.3282119205298	-11.9880794701987	-6.77748344370861				0.847788079470199	-0.382834437086093	-0.724238410596026	-28.5396026490066	40.7576158940397	-32.954701986755			
75	1500	0.279841059602649	0.194754966887417	-0.871523178807947	45.9533774834437	124.455364238411	20.9350993377483				1.00895364238411	0.0637880794701987	0.509139072847682	14.7139072847682	-40.8521854304636	-12.9059602649007				0.261827814569536	-0.225271523178808	-0.85594701986755	-2.51258278145695	115.786490066225	-35.4802649006623				0.752529801324503	0.0314701986754967	-0.613721854304636	12.5629139072848	45.5435761589404	-2.01562913907285				0.900026490066225	0.307496688741722	0.517933774834437	-8.7282119205298	-13.3880794701987	-5.37748344370861				0.831788079470199	-0.302834437086093	-0.724238410596026	-26.2996026490066	36.8376158940397	-37.434701986755			
76	1520	0.375841059602649	0.178754966887417	-0.839523178807947	51.5533774834437	117.455364238411	18.6950993377483				0.944953642384106	0.0797880794701987	0.461139072847682	11.0739072847682	-29.0921854304636	-10.9459602649007				0.277827814569536	-0.209271523178808	-0.82394701986755	-1.39258278145695	118.586490066225	-36.6002649006623				0.720529801324503	0.0954701986754967	-0.613721854304636	6.68291390728477	48.3435761589404	-0.0556291390728476				0.852026490066225	0.291496688741722	0.533933774834437	-12.0882119205298	-16.1880794701987	-3.69748344370861				0.783788079470199	-0.270834437086093	-0.708238410596026	-16.4996026490066	27.0376158940397	-34.634701986755			
77	1540	0.439841059602649	0.162754966887417	-0.775523178807947	55.7533774834437	120.535364238411	14.4950993377483				0.864953642384106	0.0637880794701987	0.589139072847682	6.03390728476821	-16.2121854304636	-8.42596026490066				0.325827814569536	-0.193271523178808	-0.79194701986755	-7.83258278145695	121.386490066225	-39.1202649006623				0.640529801324503	0.159470198675497	-0.613721854304636	20.9629139072848	66.5435761589404	4.14437086092715				0.836026490066225	0.243496688741722	0.549933774834437	-5.9282119205298	-18.4280794701987	-0.897483443708608				0.687788079470199	-0.254834437086093	-0.660238410596027	-7.53960264900662	16.3976158940397	-27.634701986755			
78	1560	0.455841059602649	0.178754966887417	-0.695523178807947	44.5533774834437	123.335364238411	10.2950993377483				0.928953642384106	0.0477880794701987	0.605139072847682	14.4339072847682	-35.5321854304636	-9.54596026490066				0.341827814569536	-0.177271523178808	-0.72794701986755	-8.11258278145695	121.666490066225	-39.6802649006623				0.672529801324503	0.127470198675497	-0.533721854304636	38.3229139072848	76.0635761589404	2.46437086092715				0.788026490066225	0.259496688741722	0.485933774834437	-11.2482119205298	-20.1080794701987	-1.17748344370861				0.655788079470199	-0.206834437086093	-0.692238410596026	-12.5796026490066	-3.76238410596027	-31.834701986755			
79	1580	0.455841059602649	0.162754966887417	-0.711523178807947	35.8733774834437	125.575364238411	5.53509933774834				0.896953642384106	0.0957880794701987	0.461139072847682	22.8339072847682	-53.1721854304636	-14.8659602649007				0.373827814569536	-0.145271523178808	-0.67994701986755	-2.23258278145695	121.386490066225	-41.0802649006623				0.768529801324503	0.159470198675497	-0.437721854304636	53.1629139072848	74.9435761589404	-3.97562913907285				0.756026490066225	0.307496688741722	0.357933774834437	-12.0882119205298	-20.9480794701987	1.34251655629139				0.783788079470199	-0.206834437086093	-0.788238410596027	-56.2596026490066	-18.3223841059603	-39.954701986755			
80	1600	0.503841059602649	0.0987549668874172	-0.647523178807947	28.3133774834437	126.975364238411	-0.904900662251656				0.800953642384106	0.159788079470199	0.429139072847682	24.7939072847682	-65.4921854304636	-8.42596026490066				0.389827814569536	-0.177271523178808	-0.66394701986755	5.88741721854305	121.106490066225	-36.6002649006623				0.816529801324503	0.191470198675497	-0.389721854304636	65.2029139072848	60.1035761589404	-3.41562913907285				0.692026490066225	0.307496688741722	0.389933774834437	-3.6882119205298	-20.1080794701987	7.50251655629139				0.799788079470199	-0.286834437086093	-0.644238410596026	-20.9796026490066	-35.9623841059603	-21.194701986755			
81	1620	0.551841059602649	0.0987549668874172	-0.679523178807947	28.0333774834437	127.535364238411	-3.14490066225166				0.704953642384106	0.0477880794701987	0.269139072847682	26.1939072847682	-43.9321854304636	-5.06596026490066				0.437827814569536	-0.241271523178808	-0.61594701986755	4.20741721854305	119.146490066225	-29.6002649006623				0.816529801324503	0.0794701986754967	-0.389721854304636	64.9229139072848	39.1035761589404	0.504370860927152				0.660026490066225	0.291496688741722	0.453933774834437	5.5517880794702	-24.0280794701987	13.9425165562914				0.559788079470199	-0.286834437086093	-0.468238410596026	-29.3796026490066	-26.1623841059603	1.76529801324503			
82	1640	0.599841059602649	0.0667549668874172	-0.647523178807947	33.3533774834437	128.935364238411	-5.66490066225166				0.672953642384106	-0.0162119205298013	0.221139072847682	18.0739072847682	-4.73218543046358	-6.46596026490066				0.549827814569536	-0.241271523178808	-0.56794701986755	-3.91258278145695	117.746490066225	-23.7202649006623				0.784529801324503	-0.0325298013245033	-0.437721854304636	51.7629139072848	25.9435761589404	-4.25562913907285				0.676026490066225	0.259496688741722	0.453933774834437	4.4317880794702	-25.1480794701987	15.9025165562914				0.607788079470199	-0.0948344370860927	-0.500238410596026	-50.6596026490066	-11.6023841059603	2.04529801324503			
83	1660	0.695841059602649	0.0187549668874172	-0.599523178807947	33.9133774834437	125.855364238411	-7.90490066225166				0.784953642384106	0.143788079470199	0.429139072847682	9.67390728476821	15.9878145695364	-9.54596026490066				0.629827814569536	-0.177271523178808	-0.55194701986755	-1.95258278145695	119.146490066225	-21.4802649006623				0.736529801324503	-0.0325298013245033	-0.453721854304636	25.1629139072848	17.5435761589404	-11.5356291390728				0.628026490066225	0.227496688741722	0.469933774834437	4.4317880794702	-20.6680794701987	13.9425165562914				0.607788079470199	-0.110834437086093	-0.420238410596026	10.9403973509934	-29.5223841059603	-10.554701986755			
84	1680	0.727841059602649	0.00275496688741723	-0.551523178807947	23.5533774834437	124.175364238411	-10.1449006622517				0.816953642384106	0.0957880794701987	0.637139072847682	19.4739072847682	-19.0121854304636	-2.26596026490066				0.693827814569536	-0.177271523178808	-0.51994701986755	9.52741721854305	117.186490066225	-23.1602649006623				0.704529801324503	0.0314701986754967	-0.469721854304636	3.32291390728477	2.7035761589404	-13.7756291390728				0.644026490066225	0.259496688741722	0.453933774834437	1.3517880794702	-11.9880794701987	9.46251655629139				0.543788079470199	-0.126834437086093	-0.340238410596026	5.90039735099338	-23.6423841059603	-21.474701986755			
85	1700	0.663841059602649	0.00275496688741723	-0.503523178807947	13.1933774834437	126.135364238411	-9.86490066225166				0.704953642384106	0.0157880794701987	0.461139072847682	13.8739072847682	-42.2521854304636	1.37403973509934				0.693827814569536	-0.209271523178808	-0.50394701986755	16.807417218543	117.186490066225	-29.3202649006623				0.720529801324503	0.0794701986754967	-0.325721854304636	29.9229139072848	8.8635761589404	-4.81562913907285				0.644026490066225	0.259496688741722	0.469933774834437	2.1917880794702	-8.34807947019868	10.3025165562914				0.543788079470199	-0.142834437086093	-0.532238410596027	-10.0596026490066	-12.1623841059603	-25.674701986755			
86	1720	0.679841059602649	0.0507549668874172	-0.439523178807947	19.0733774834437	126.135364238411	-9.58490066225166				0.608953642384106	0.159788079470199	0.317139072847682	14.4339072847682	-28.5321854304636	-4.22596026490066				0.709827814569536	-0.241271523178808	-0.50394701986755	19.607417218543	113.546490066225	-32.6802649006623				0.800529801324503	0.0794701986754967	-0.325721854304636	55.1229139072848	5.5035761589404	0.784370860927152				0.660026490066225	0.227496688741722	0.437933774834437	15.0717880794702	-8.06807947019868	12.5425165562914				0.639788079470199	-0.190834437086093	-0.500238410596026	10.1003973509934	5.75761589403974	-27.074701986755			
87	1740	0.823841059602649	0.0347549668874172	-0.375523178807947	25.5133774834437	133.415364238411	-12.6649006622517				0.624953642384106	0.127788079470199	0.413139072847682	17.5139072847682	-1.37218543046358	-6.18596026490066				0.773827814569536	-0.241271523178808	-0.32794701986755	5.04741721854305	121.946490066225	-32.9602649006623				0.848529801324503	0.0474701986754967	-0.373721854304636	57.0829139072848	-1.4964238410596	1.62437086092715				0.660026490066225	0.243496688741722	0.469933774834437	6.9517880794702	-21.2280794701987	15.0625165562914				0.703788079470199	-0.254834437086093	-0.452238410596026	0.0203973509933773	16.6776158940397	-23.434701986755			
88	1760	0.903841059602649	0.0187549668874172	-0.311523178807947	19.9133774834437	132.575364238411	-11.2649006622517				0.720953642384106	-0.000211920529801304	0.557139072847682	13.5939072847682	-4.17218543046358	1.93403973509934				0.805827814569536	-0.161271523178808	-0.26394701986755	-18.752582781457	119.426490066225	-31.5602649006623				0.768529801324503	-0.0485298013245033	-0.357721854304636	44.4829139072848	-8.4964238410596	1.90437086092715				0.628026490066225	0.227496688741722	0.453933774834437	3.5917880794702	-24.5880794701987	13.6625165562914				0.671788079470199	-0.190834437086093	-0.548238410596027	-6.97960264900662	-6.84238410596027	-12.234701986755			
89	1780	0.855841059602649	0.0187549668874172	-0.343523178807947	12.3533774834437	128.095364238411	-6.78490066225166				0.704953642384106	0.127788079470199	0.557139072847682	11.3539072847682	-26.2921854304636	-1.42596026490066				0.917827814569536	-0.145271523178808	-0.24794701986755	-14.832582781457	117.186490066225	-28.4802649006623				0.752529801324503	-0.000529801324503289	-0.373721854304636	31.3229139072848	-14.6564238410596	3.30437086092715				0.612026490066225	0.211496688741722	0.453933774834437	14.5117880794702	-17.0280794701987	12.8225165562914				0.479788079470199	-0.110834437086093	-0.420238410596026	15.1403973509934	-25.3223841059603	-6.63470198675497			
90	1800	0.775841059602649	-0.0132450331125828	-0.359523178807947	4.79337748344371	129.495364238411	-4.82490066225166				0.592953642384106	0.207788079470199	0.445139072847682	18.0739072847682	-44.7721854304636	-4.50596026490066				0.901827814569536	-0.113271523178808	-0.27994701986755	6.72741721854305	109.626490066225	-24.8402649006623				0.704529801324503	0.175470198675497	-0.357721854304636	25.4429139072848	-13.8164238410596	-0.895629139072848				0.612026490066225	0.259496688741722	0.469933774834437	15.0717880794702	-11.9880794701987	9.18251655629139				0.495788079470199	-0.126834437086093	-0.308238410596026	7.58039735099338	-17.7623841059603	-11.674701986755			
91	1820	0.855841059602649	0.0187549668874172	-0.247523178807947	11.5133774834437	136.775364238411	-5.66490066225166				0.640953642384106	0.111788079470199	0.413139072847682	20.0339072847682	-23.7721854304636	-6.18596026490066				0.901827814569536	-0.113271523178808	-0.24794701986755	12.327417218543	104.586490066225	-22.3202649006623				0.608529801324503	0.111470198675497	-0.373721854304636	42.2429139072848	-14.3764238410596	-5.65562913907285				0.580026490066225	0.259496688741722	0.421933774834437	11.1517880794702	-18.7080794701987	9.18251655629139				0.687788079470199	-0.190834437086093	-0.372238410596026	-32.4596026490066	11.0776158940397	-16.994701986755			
92	1840	0.935841059602649	0.0347549668874172	-0.231523178807947	12.6333774834437	138.455364238411	-2.86490066225166				0.624953642384106	-0.000211920529801304	0.429139072847682	2.95390728476821	-15.6521854304636	1.65403973509934				0.885827814569536	-0.161271523178808	-0.19994701986755	8.96741721854305	102.906490066225	-18.1202649006623				0.720529801324503	-0.000529801324503289	-0.325721854304636	36.3629139072848	-20.5364238410596	-3.41562913907285				0.548026490066225	0.227496688741722	0.421933774834437	16.4717880794702	-20.3880794701987	11.7025165562914				0.735788079470199	-0.0788344370860927	-0.484238410596026	-22.3796026490066	7.99761589403974	-16.154701986755			
93	1860	0.919841059602649	0.0827549668874172	-0.167523178807947	19.3533774834437	134.255364238411	0.215099337748344				0.560953642384106	0.191788079470199	0.509139072847682	-16.0860927152318	-10.6121854304636	-5.62596026490066				0.949827814569536	-0.273271523178808	-0.18394701986755	0.567417218543046	96.4664900662252	-7.76026490066225				0.672529801324503	0.0474701986754967	-0.357721854304636	16.4829139072848	-29.4964238410596	3.02437086092715				0.628026490066225	0.227496688741722	0.469933774834437	16.4717880794702	-15.3480794701987	11.7025165562914				0.607788079470199	-0.0948344370860927	-0.372238410596026	14.8603973509934	-5.16238410596027	-11.394701986755			
94	1880	0.807841059602649	0.0667549668874172	-0.119523178807947	17.3933774834437	122.215364238411	0.775099337748344				0.624953642384106	0.239788079470199	0.573139072847682	-2.92609271523179	-13.6921854304636	-5.34596026490066				0.757827814569536	-0.305271523178808	-0.0719470198675496	-19.312582781457	92.8264900662252	-4.12026490066225				0.640529801324503	0.127470198675497	-0.405721854304636	21.5229139072848	-16.0564238410596	-0.895629139072848				0.628026490066225	0.243496688741722	0.485933774834437	10.3117880794702	-16.4680794701987	8.34251655629139				0.591788079470199	-0.206834437086093	-0.292238410596026	15.9803973509934	-14.1223841059603	-15.034701986755			
95	1900	0.807841059602649	0.114754966887417	-0.071523178807947	15.1533774834437	118.575364238411	-0.344900662251656				0.688953642384106	0.0957880794701987	0.445139072847682	5.47390728476821	-28.8121854304636	-1.42596026490066				0.789827814569536	-0.225271523178808	-0.0559470198675496	-36.392582781457	97.5864900662252	-0.76026490066225				0.608529801324503	0.0154701986754967	-0.437721854304636	33.5629139072848	-10.1764238410596	-7.61562913907285				0.564026490066225	0.243496688741722	0.437933774834437	1.6317880794702	-24.8680794701987	5.54251655629139				0.735788079470199	-0.206834437086093	-0.372238410596026	7.58039735099338	-4.04238410596027	-16.154701986755			
96	1920	0.855841059602649	0.0827549668874172	-0.00752317880794696	20.7533774834437	119.975364238411	-4.82490066225166				0.624953642384106	0.0637880794701987	0.413139072847682	-8.52609271523179	-17.6121854304636	-1.42596026490066				1.01382781456954	-0.129271523178808	-0.0879470198675496	-41.992582781457	90.5864900662252	1.47973509933775				0.576529801324503	-0.0645298013245033	-0.373721854304636	0.522913907284768	-24.7364238410596	-6.77562913907285				0.548026490066225	0.259496688741722	0.357933774834437	-1.4482119205298	-16.7480794701987	7.50251655629139				0.895788079470199	-0.126834437086093	-0.452238410596026	-26.0196026490066	3.51761589403974	-12.234701986755			
97	1940	0.871841059602649	0.0187549668874172	-0.071523178807947	17.9533774834437	113.815364238411	-6.78490066225166				0.560953642384106	0.223788079470199	0.621139072847682	-25.3260927152318	4.50781456953642	-11.5059602649007				0.965827814569536	-0.0652715231788079	-0.10394701986755	-31.912582781457	82.7464900662252	-0.48026490066225				0.496529801324503	0.0794701986754967	-0.341721854304636	-19.6370860927152	-21.0964238410596	-0.0556291390728476				0	0	0	0	0	0				0.751788079470199	-0.206834437086093	-0.452238410596026	-1.65960264900662	-35.6823841059603	2.32529801324503			
98	1960	1.01584105960265	0.0347549668874172	-0.023523178807947	9.55337748344371	109.895364238411	-2.58490066225166				0.608953642384106	0.127788079470199	0.637139072847682	-7.96609271523179	-8.65218543046358	-4.50596026490066				0.821827814569536	-0.0172715231788079	-0.0879470198675496	-21.552582781457	73.5064900662252	-5.52026490066225				0	0	0	0	0	0				0.612026490066225	0.291496688741722	0.533933774834437	-20.7682119205298	-8.06807947019868	6.94251655629139				0	0	0	0	0	0			
99	1980	1.04784105960265	0.0507549668874172	0.088476821192053	10.3933774834437	97.0153642384106	-5.38490066225166				0.656953642384106	0.0957880794701987	0.461139072847682	-8.52609271523179	-20.9721854304636	-3.66596026490066				0.869827814569536	-0.00127152317880793	-0.0559470198675496	-16.232582781457	64.8264900662252	-0.76026490066225				0.560529801324503	0.0634701986754967	-0.357721854304636	22.0829139072848	9.7035761589404	11.4243708609272				0.660026490066225	0.147496688741722	0.485933774834437	-24.1282119205298	-15.3480794701987	11.4225165562914				0.863788079470199	-0.222834437086093	-0.452238410596026	-42.2596026490066	-43.5223841059603	23.325298013245			
100	2000	0.871841059602649	0.114754966887417	0.104476821192053	-1.36662251655629	84.4153642384106	-7.90490066225166				0.640953642384106	0.143788079470199	0.541139072847682	-17.4860927152318	-5.01218543046358	-3.38596026490066				0.981827814569536	-0.0652715231788079	-0.0239470198675496	-10.352582781457	53.9064900662252	1.19973509933775				0.752529801324503	-0.0325298013245033	-0.357721854304636	14.2429139072848	-6.5364238410596	21.5043708609272				0.644026490066225	0.163496688741722	0.469933774834437	-31.1282119205298	-17.8680794701987	13.6625165562914				0.687788079470199	-0.0948344370860927	-0.500238410596026	-31.0596026490066	-67.6023841059603	38.725298013245			
101	2020	0.887841059602649	0.114754966887417	0.104476821192053	0.0333774834437086	72.6553642384106	-10.1449006622517				0.672953642384106	0.0157880794701987	0.605139072847682	0.993907284768212	-8.93218543046358	-7.58596026490066				0.901827814569536	-0.113271523178808	-0.0559470198675496	3.64741721854305	41.5864900662252	-0.76026490066225				0.896529801324503	0.0634701986754967	-0.405721854304636	19.2829139072848	-12.9764238410596	31.0243708609272				0.628026490066225	0.355496688741722	0.437933774834437	-34.4882119205298	-17.0280794701987	15.9025165562914				0.431788079470199	-0.0468344370860927	-0.388238410596026	-13.4196026490066	-42.4023841059603	28.645298013245			
102	2040	0.951841059602649	0.130754966887417	0.056476821192053	8.71337748344371	56.4153642384106	-11.2649006622517				0.624953642384106	0.127788079470199	0.573139072847682	-5.16609271523179	-2.49218543046358	-6.18596026490066				0.853827814569536	-0.177271523178808	-0.0399470198675496	9.52741721854305	36.5464900662252	-3.00026490066225				0.944529801324503	-0.000529801324503289	-0.357721854304636	18.1629139072848	-26.1364238410596	29.9043708609272				0.596026490066225	0.227496688741722	0.469933774834437	-12.6482119205298	-12.2680794701987	15.6225165562914				0.495788079470199	0.113165562913907	-0.356238410596026	-29.3796026490066	10.7976158940397	1.20529801324503			
103	2060	0.983841059602649	0.0507549668874172	0.104476821192053	21.3133774834437	44.0953642384106	-13.7849006622517				0.672953642384106	0.143788079470199	0.509139072847682	-7.40609271523179	1.42781456953642	2.49403973509934				0.853827814569536	-0.161271523178808	0.00805298013245037	-1.67258278145695	33.1864900662252	0.63973509933775				0.880529801324503	-0.0485298013245033	-0.293721854304636	-21.5970860927152	-41.8164238410596	27.1043708609272				0.692026490066225	0.211496688741722	0.581933774834437	-5.6482119205298	-1.62807947019868	11.7025165562914				0.607788079470199	-0.0628344370860927	-0.644238410596026	4.78039735099338	-18.8823841059603	-11.674701986755			
104	2080	0.887841059602649	-0.0292450331125828	0.136476821192053	20.1933774834437	37.9353642384106	-10.9849006622517				0.720953642384106	0.0957880794701987	0.525139072847682	-3.76609271523179	5.06781456953642	5.01403973509934				0.949827814569536	-0.145271523178808	0.0240529801324504	-12.872582781457	33.1864900662252	2.03973509933775				0.832529801324503	0.223470198675497	-0.309721854304636	-18.7970860927152	-18.0164238410596	19.5443708609272				0.820026490066225	0.243496688741722	0.677933774834437	-7.3282119205298	-39.1480794701987	20.9425165562914				0.527788079470199	-0.494834437086093	-0.548238410596027	35.8603973509934	-45.4823841059603	-3.83470198675497			
105	2100	0.887841059602649	-0.0612450331125828	0.184476821192053	12.0733774834437	35.1353642384106	-8.46490066225166				0.816953642384106	0.159788079470199	0.605139072847682	-12.1660927152318	6.46781456953642	5.29403973509934				1.01382781456954	-0.145271523178808	0.0400529801324504	-7.55258278145695	28.4264900662252	-4.12026490066225				0.832529801324503	0.143470198675497	-0.325721854304636	15.6429139072848	-10.4564238410596	11.1443708609272				0.756026490066225	0.211496688741722	0.485933774834437	-9.0082119205298	-44.7480794701987	20.3825165562914				0.655788079470199	-0.350834437086093	-0.308238410596026	3.94039735099338	4.91761589403974	18.285298013245			
106	2120	1.01584105960265	-0.0452450331125828	0.168476821192053	6.75337748344371	33.1753642384106	-5.94490066225166				0.896953642384106	0.191788079470199	0.621139072847682	-11.8860927152318	0.867814569536424	4.73403973509934				1.02982781456954	-0.0972715231788079	0.0400529801324504	0.847417218543046	21.4264900662252	-7.48026490066225				0.752529801324503	-0.0965298013245033	-0.421721854304636	12.0029139072848	-14.3764238410596	4.42437086092715				0.772026490066225	0.131496688741722	0.421933774834437	-3.9682119205298	-27.9480794701987	15.6225165562914				0.767788079470199	-0.190834437086093	-0.564238410596026	-45.8996026490066	25.0776158940397	27.245298013245			
107	2140	1.06384105960265	-0.0292450331125828	0.216476821192053	-4.44662251655629	29.2553642384106	-3.98490066225166				0.816953642384106	0.159788079470199	0.525139072847682	7.43390728476821	-2.49218543046358	3.33403973509934				1.04582781456954	-0.0812715231788079	0.00805298013245037	-1.39258278145695	14.9864900662252	-6.64026490066225				0.752529801324503	0.0154701986754967	-0.517721854304636	2.20291390728477	8.0235761589404	3.86437086092715				0.804026490066225	0.243496688741722	0.469933774834437	-13.4882119205298	-7.78807947019868	8.90251655629139				0.799788079470199	-0.190834437086093	-0.628238410596026	7.30039735099338	-4.60238410596027	27.525298013245			
108	2160	0.983841059602649	0.0507549668874172	0.168476821192053	-6.96662251655629	23.0953642384106	-1.18490066225166				0.752953642384106	0.223788079470199	0.589139072847682	6.87390728476821	5.62781456953642	3.61403973509934				0.965827814569536	-0.129271523178808	-0.0239470198675496	1.40741721854305	16.6664900662252	-3.28026490066225				0.864529801324503	0.0954701986754967	-0.485721854304636	8.08291390728477	21.1835761589404	4.14437086092715				0.804026490066225	0.259496688741722	0.501933774834437	-9.5682119205298	11.8119205298013	4.42251655629139				0.735788079470199	-0.0788344370860927	-0.372238410596026	8.98039735099338	-2.92238410596027	18.285298013245			
109	2180	0.887841059602649	0.114754966887417	0.152476821192053	1.15337748344371	12.4553642384106	-0.344900662251656				0.800953642384106	0.159788079470199	0.589139072847682	12.1939072847682	-6.69218543046358	8.09403973509934				0.933827814569536	-0.113271523178808	-0.00794701986754963	1.40741721854305	13.8664900662252	0.63973509933775				0.864529801324503	0.0314701986754967	-0.517721854304636	8.92291390728477	8.0235761589404	6.94437086092715				0.884026490066225	0.259496688741722	0.405933774834437	-8.7282119205298	12.9319205298013	1.90251655629139				0.687788079470199	-0.0788344370860927	-0.612238410596026	-6.97960264900662	28.4376158940397	7.92529801324503			
110	2200	0.951841059602649	0.0667549668874172	0.136476821192053	8.43337748344371	10.7753642384106	0.215099337748344				0.928953642384106	0.143788079470199	0.413139072847682	9.95390728476821	-7.81218543046358	10.8940397350993				1.02982781456954	-0.0972715231788079	0.00805298013245037	10.087417218543	10.7864900662252	1.75973509933775				0.864529801324503	-0.0165298013245033	-0.485721854304636	-0.317086092715232	6.6235761589404	9.74437086092715				0.884026490066225	0.227496688741722	0.469933774834437	-11.8082119205298	10.6919205298013	5.26251655629139				0.831788079470199	-0.142834437086093	-0.804238410596027	17.6603973509934	32.3576158940397	-0.474701986754968			
111	2220	0.983841059602649	0.0347549668874172	0.136476821192053	7.03337748344371	9.6553642384106	-0.0649006622516557				0.912953642384106	0.0957880794701987	0.525139072847682	4.07390728476821	9.26781456953642	12.5740397350993				0.997827814569536	-0.129271523178808	-0.0239470198675496	19.607417218543	7.70649006622517	-1.04026490066225				0.880529801324503	-0.0165298013245033	-0.501721854304636	9.20291390728477	13.0635761589404	8.90437086092715				0.820026490066225	0.211496688741722	0.501933774834437	-3.1282119205298	5.93192052980133	8.06251655629139				0.751788079470199	-0.158834437086093	-0.756238410596026	20.1803973509934	-6.56238410596027	9.32529801324503			
112	2240	0.983841059602649	0.0507549668874172	0.120476821192053	8.15337748344371	8.8153642384106	-2.30490066225166				0.880953642384106	0.0157880794701987	0.637139072847682	7.99390728476821	4.50781456953642	14.2540397350993				1.01382781456954	-0.193271523178808	-0.0719470198675496	19.8874172185431	4.34649006622517	-1.88026490066225				0.832529801324503	-0.0165298013245033	-0.501721854304636	10.6029139072848	9.9835761589404	4.98437086092715				0.868026490066225	0.147496688741722	0.485933774834437	3.3117880794702	12.6519205298013	6.10251655629139				0.527788079470199	-0.206834437086093	-0.628238410596026	24.1003973509934	-25.8823841059603	14.085298013245			
113	2260	0.951841059602649	0.0347549668874172	0.088476821192053	7.59337748344371	5.7353642384106	-1.18490066225166				0.944953642384106	0.0637880794701987	0.493139072847682	4.63390728476821	-10.3321854304636	13.9740397350993				1.06182781456954	-0.225271523178808	-0.0719470198675496	7.28741721854305	0.986490066225167	1.75973509933775				0.848529801324503	-0.0485298013245033	-0.501721854304636	3.60291390728477	-0.0964238410596001	2.46437086092715				0.900026490066225	0.131496688741722	0.437933774834437	4.7117880794702	17.6919205298013	5.82251655629139				0.639788079470199	-0.238834437086093	-0.564238410596026	14.0203973509934	3.79761589403974	3.44529801324503			
114	2280	1.07984105960265	0.0507549668874172	0.056476821192053	-2.20662251655629	3.2153642384106	0.775099337748344				0.976953642384106	0.143788079470199	0.445139072847682	-13.5660927152318	-6.97218543046358	14.5340397350993				1.04582781456954	-0.225271523178808	-0.0559470198675496	-8.11258278145695	-4.33350993377483	3.99973509933775				0.896529801324503	-0.112529801324503	-0.533721854304636	10.8829139072848	-0.6564238410596	3.30437086092715				0.932026490066225	0.131496688741722	0.469933774834437	14.2317880794702	14.0519205298013	9.18251655629139				0.799788079470199	-0.254834437086093	-0.740238410596026	-19.0196026490066	21.1576158940397	0.645298013245032			
115	2300	1.06384105960265	0.0987549668874172	0.056476821192053	-11.7266225165563	-1.5446357615894	-2.02490066225166				0.960953642384106	0.111788079470199	0.413139072847682	-12.7260927152318	-7.81218543046358	10.8940397350993				1.01382781456954	-0.177271523178808	-0.0239470198675496	-11.472582781457	-8.53350993377483	5.95973509933775				0.880529801324503	-0.192529801324503	-0.581721854304636	16.4829139072848	-2.3364238410596	3.86437086092715				0.964026490066225	0.0994966887417219	0.437933774834437	-3.9682119205298	-5.26807947019868	8.90251655629139				0.735788079470199	-0.238834437086093	-0.756238410596026	9.26039735099338	-3.76238410596027	8.20529801324503			
116	2320	0.967841059602649	0.130754966887417	0.104476821192053	-14.5266225165563	1.8153642384106	-0.0649006622516557				0.960953642384106	0.0637880794701987	0.397139072847682	-2.92609271523179	-6.97218543046358	8.65403973509934				0.981827814569536	-0.0972715231788079	-0.0559470198675496	-8.39258278145695	-10.7735099337748	6.23973509933775				0.816529801324503	-0.208529801324503	-0.613721854304636	9.48291390728477	-4.5764238410596	3.58437086092715				0.948026490066225	0.115496688741722	0.405933774834437	-2.5682119205298	4.81192052980133	5.82251655629139				0.639788079470199	-0.222834437086093	-0.580238410596026	26.3403973509934	-8.24238410596027	4.28529801324503			
117	2340	0.967841059602649	0.130754966887417	0.056476821192053	-8.64662251655629	4.0553642384106	0.775099337748344				0.976953642384106	0.159788079470199	0.429139072847682	-2.64609271523179	-8.65218543046358	5.01403973509934				0.933827814569536	-0.0492715231788079	-0.0719470198675496	-11.192582781457	-7.13350993377484	5.11973509933775				0.800529801324503	-0.176529801324503	-0.597721854304636	-3.39708609271523	-5.6964238410596	8.06437086092715				0.868026490066225	0.147496688741722	0.389933774834437	-2.5682119205298	3.13192052980133	4.42251655629139				0.607788079470199	-0.126834437086093	-0.612238410596026	3.10039735099338	2.67761589403974	-2.99470198675497			
118	2360	0.967841059602649	0.0667549668874172	0.040476821192053	-4.16662251655629	3.7753642384106	0.215099337748344				0.896953642384106	0.207788079470199	0.381139072847682	-4.32609271523179	-13.1321854304636	4.73403973509934				0.901827814569536	-0.0492715231788079	-0.0719470198675496	-12.872582781457	-0.973509933774833	3.71973509933775				0.752529801324503	-0.128529801324503	-0.565721854304636	-8.15708609271523	-6.8164238410596	10.8643708609272				0.852026490066225	0.163496688741722	0.341933774834437	-2.2882119205298	-3.30807947019868	3.58251655629139				0.591788079470199	-0.126834437086093	-0.708238410596026	10.6603973509934	2.95761589403974	-6.07470198675497			
119	2380	0.951841059602649	0.0347549668874172	0.040476821192053	0.873377483443709	-2.3846357615894	1.05509933774834				0.864953642384106	0.127788079470199	0.349139072847682	-4.04609271523179	-14.2521854304636	4.73403973509934				0.901827814569536	-0.0492715231788079	-0.0879470198675496	-9.79258278145695	2.94649006622517	4.83973509933775				0.704529801324503	-0.0965298013245033	-0.581721854304636	-8.71708609271523	-6.2564238410596	9.46437086092715				0.884026490066225	0.147496688741722	0.357933774834437	-3.4082119205298	-4.42807947019868	3.30251655629139				0.639788079470199	-0.206834437086093	-0.692238410596026	16.2603973509934	2.95761589403974	-8.59470198675497			
120	2400	0.951841059602649	0.0827549668874172	0.120476821192053	2.83337748344371	-3.7846357615894	-0.624900662251656				0.896953642384106	0.0957880794701987	0.301139072847682	-2.64609271523179	-10.3321854304636	5.01403973509934				0.933827814569536	-0.0652715231788079	-0.10394701986755	-6.99258278145695	4.62649006622517	3.99973509933775				0.736529801324503	-0.112529801324503	-0.533721854304636	-5.91708609271523	-7.0964238410596	9.74437086092715				0.916026490066225	0.131496688741722	0.357933774834437	-5.9282119205298	-1.90807947019868	4.70251655629139				0.655788079470199	-0.206834437086093	-0.724238410596026	-9.49960264900662	-8.52238410596027	-4.67470198675497			
121	2420	0.983841059602649	0.0827549668874172	0.168476821192053	0.0333774834437086	-0.144635761589404	-0.344900662251656				0.992953642384106	0.127788079470199	0.349139072847682	-3.76609271523179	-4.17218543046358	3.89403973509934				0.933827814569536	-0.0972715231788079	-0.0879470198675496	-1.95258278145695	4.62649006622517	3.15973509933775				0.752529801324503	-0.160529801324503	-0.549721854304636	-0.597086092715232	-6.5364238410596	12.5443708609272				0.900026490066225	0.0994966887417219	0.325933774834437	-2.5682119205298	-6.10807947019868	6.38251655629139				0.543788079470199	-0.158834437086093	-0.708238410596026	-6.69960264900662	-15.5223841059603	4.28529801324503			
122	2440	0.983841059602649	0.114754966887417	0.184476821192053	-3.88662251655629	4.6153642384106	2.17509933774834				0.928953642384106	0.0637880794701987	0.397139072847682	0.433907284768212	-10.0521854304636	3.61403973509934				0.965827814569536	-0.113271523178808	-0.10394701986755	-2.51258278145695	5.46649006622517	2.03973509933775				0.752529801324503	-0.160529801324503	-0.565721854304636	-1.15708609271523	-4.5764238410596	13.6643708609272				0.868026490066225	0.163496688741722	0.325933774834437	-5.0882119205298	-5.54807947019868	5.82251655629139				0.543788079470199	-0.126834437086093	-0.692238410596026	-5.57960264900662	0.437615894039735	2.04529801324503			
123	2460	0.951841059602649	0.0827549668874172	0.152476821192053	-2.20662251655629	6.5753642384106	1.89509933774834				0.880953642384106	0.111788079470199	0.301139072847682	-0.406092715231788	-9.77218543046358	3.33403973509934				0.965827814569536	-0.129271523178808	-0.10394701986755	-1.95258278145695	6.02649006622517	0.63973509933775				0.752529801324503	-0.144529801324503	-0.565721854304636	0.522913907284768	-5.4164238410596	13.1043708609272				0.868026490066225	0.115496688741722	0.325933774834437	0.511788079470198	-3.30807947019868	6.10251655629139				0.575788079470199	-0.110834437086093	-0.724238410596026	-3.05960264900662	3.23761589403974	-5.51470198675497			
124	2480	0.935841059602649	0.0667549668874172	0.104476821192053	-5.56662251655629	4.0553642384106	1.05509933774834				0.928953642384106	0.127788079470199	0.349139072847682	-3.48609271523179	-2.77218543046358	3.89403973509934				0.997827814569536	-0.129271523178808	-0.0879470198675496	-1.67258278145695	6.02649006622517	1.19973509933775				0.752529801324503	-0.208529801324503	-0.565721854304636	6.68291390728477	-4.8564238410596	8.62437086092715				0.900026490066225	0.0514966887417219	0.341933774834437	4.1517880794702	-1.34807947019868	4.42251655629139				0.543788079470199	-0.142834437086093	-0.692238410596026	14.5803973509934	-6.84238410596027	-6.91470198675497			
125	2500	0.983841059602649	0.0347549668874172	0.104476821192053	-6.40662251655629	6.0153642384106	0.775099337748344				0.896953642384106	0.127788079470199	0.333139072847682	0.713907284768212	-3.33218543046358	-0.86596026490066				0.933827814569536	-0.145271523178808	-0.0719470198675496	0.567417218543046	2.10649006622517	2.03973509933775				0.752529801324503	-0.192529801324503	-0.597721854304636	-0.597086092715232	-0.0964238410596001	4.42437086092715				0.868026490066225	0.163496688741722	0.309933774834437	-2.2882119205298	-1.34807947019868	1.06251655629139				0.559788079470199	-0.238834437086093	-0.740238410596026	2.54039735099338	-8.52238410596027	-9.15470198675497			
126	2520	0.999841059602649	0.0667549668874172	0.184476821192053	-6.40662251655629	8.2553642384106	3.01509933774834				0.864953642384106	0.127788079470199	0.365139072847682	2.39390728476821	5.90781456953642	0.25403973509934				0.917827814569536	-0.129271523178808	-0.0879470198675496	7.28741721854305	0.706490066225167	1.75973509933775				0.784529801324503	-0.112529801324503	-0.549721854304636	-9.83708609271523	2.7035761589404	4.98437086092715				0.836026490066225	0.195496688741722	0.357933774834437	0.511788079470198	1.45192052980132	2.18251655629139				0.591788079470199	-0.206834437086093	-0.756238410596026	4.78039735099338	-2.08238410596027	-5.23470198675497			
127	2540	0.951841059602649	0.0667549668874172	0.168476821192053	-2.76662251655629	11.8953642384106	3.01509933774834				0.944953642384106	0.0797880794701987	0.413139072847682	-0.966092715231788	4.50781456953642	3.89403973509934				0.933827814569536	-0.113271523178808	-0.10394701986755	5.04741721854305	1.54649006622517	3.15973509933775				0.784529801324503	-0.0965298013245033	-0.501721854304636	-3.95708609271523	1.8635761589404	2.46437086092715				0.900026490066225	0.0514966887417219	0.405933774834437	11.7117880794702	9.57192052980133	2.74251655629139				0.623788079470199	-0.174834437086093	-0.724238410596026	3.10039735099338	-1.52238410596026	1.48529801324503			
128	2560	0.951841059602649	0.0827549668874172	0.184476821192053	-2.48662251655629	9.6553642384106	1.89509933774834				0.944953642384106	0.0317880794701987	0.397139072847682	0.993907284768212	0.587814569536424	2.21403973509934				0.981827814569536	-0.129271523178808	-0.0879470198675496	0.00741721854304636	4.34649006622517	2.03973509933775				0.784529801324503	-0.160529801324503	-0.533721854304636	2.20291390728477	1.3035761589404	-2.57562913907285				0.948026490066225	0.0354966887417219	0.405933774834437	3.3117880794702	5.09192052980133	3.02251655629139				0.671788079470199	-0.238834437086093	-0.708238410596026	6.18039735099338	-9.92238410596027	1.20529801324503			
129	2580	0.983841059602649	0.0507549668874172	0.168476821192053	-1.36662251655629	6.2953642384106	0.215099337748344				0.912953642384106	0.0957880794701987	0.333139072847682	7.71390728476821	0.307814569536424	-1.98596026490066				0.981827814569536	-0.113271523178808	-0.0719470198675496	3.92741721854305	4.62649006622517	-0.20026490066225				0.784529801324503	-0.144529801324503	-0.581721854304636	4.72291390728477	7.1835761589404	-2.29562913907285				0.884026490066225	0.179496688741722	0.389933774834437	-3.9682119205298	-2.74807947019868	3.58251655629139				0.671788079470199	-0.238834437086093	-0.692238410596026	12.9003973509934	-8.80238410596027	-6.07470198675497			
130	2600	0.999841059602649	0.0507549668874172	0.136476821192053	3.95337748344371	6.5753642384106	1.33509933774834				0.880953642384106	0.127788079470199	0.365139072847682	13.8739072847682	7.86781456953642	-0.585960264900661				0.949827814569536	-0.113271523178808	-0.0719470198675496	14.007417218543	4.06649006622517	-1.60026490066225				0.800529801324503	-0.0965298013245033	-0.549721854304636	9.20291390728477	4.1035761589404	-3.13562913907285				0.836026490066225	0.163496688741722	0.405933774834437	-0.0482119205298018	-0.228079470198675	4.70251655629139				0.623788079470199	-0.190834437086093	-0.660238410596027	13.7403973509934	-4.32238410596027	-4.67470198675497			
131	2620	0.951841059602649	0.0187549668874172	0.120476821192053	5.63337748344371	4.6153642384106	1.89509933774834				0.944953642384106	0.0637880794701987	0.477139072847682	11.6339072847682	6.46781456953642	3.61403973509934				0.981827814569536	-0.145271523178808	-0.0559470198675496	19.8874172185431	2.94649006622517	-2.44026490066225				0.800529801324503	-0.112529801324503	-0.517721854304636	3.88291390728477	-0.3764238410596	-3.97562913907285				0.884026490066225	0.0674966887417219	0.437933774834437	7.7917880794702	4.53192052980133	4.42251655629139				0.607788079470199	-0.190834437086093	-0.660238410596027	10.6603973509934	-0.962384105960265	2.32529801324503			
132	2640	0.967841059602649	0.00275496688741723	0.120476821192053	4.79337748344371	3.2153642384106	1.89509933774834				0.944953642384106	0.0477880794701987	0.477139072847682	5.19390728476821	2.54781456953642	0.81403973509934				0.997827814569536	-0.193271523178808	-0.0559470198675496	15.967417218543	1.26649006622517	-1.88026490066225				0.816529801324503	-0.144529801324503	-0.533721854304636	4.16291390728477	-0.9364238410596	-4.25562913907285				0.868026490066225	0.0994966887417219	0.421933774834437	1.3517880794702	2.85192052980133	4.14251655629139				0.623788079470199	-0.222834437086093	-0.628238410596026	10.6603973509934	-4.32238410596027	0.0852980132450323			
133	2660	0.967841059602649	0.00275496688741723	0.136476821192053	3.67337748344371	4.3353642384106	3.57509933774835				0.896953642384106	0.111788079470199	0.397139072847682	1.55390728476821	0.867814569536424	-1.42596026490066				0.965827814569536	-0.193271523178808	-0.0399470198675496	10.087417218543	0.986490066225167	-1.04026490066225				0.816529801324503	-0.128529801324503	-0.533721854304636	1.08291390728477	-0.3764238410596	-4.81562913907285				0.852026490066225	0.163496688741722	0.421933774834437	2.7517880794702	3.97192052980133	3.02251655629139				0.639788079470199	-0.206834437086093	-0.644238410596026	10.9403973509934	2.95761589403974	-4.67470198675497			
134	2680	0.951841059602649	0.0187549668874172	0.104476821192053	1.15337748344371	4.8953642384106	1.89509933774834				0.912953642384106	0.0637880794701987	0.381139072847682	3.51390728476821	3.94781456953642	1.09403973509934				0.965827814569536	-0.193271523178808	-0.0239470198675496	4.20741721854305	0.426490066225167	-0.76026490066225				0.800529801324503	-0.144529801324503	-0.533721854304636	0.522913907284768	-0.6564238410596	-3.41562913907285				0.884026490066225	0.115496688741722	0.437933774834437	6.1117880794702	4.81192052980133	2.46251655629139				0.655788079470199	-0.222834437086093	-0.644238410596026	7.58039735099338	4.91761589403974	-3.83470198675497			
135	2700	0.951841059602649	0.0507549668874172	0.120476821192053	-2.48662251655629	3.7753642384106	0.215099337748344				0.928953642384106	0.0477880794701987	0.413139072847682	2.95390728476821	3.10781456953642	2.77403973509934				0.965827814569536	-0.193271523178808	-0.00794701986754963	0.847417218543046	-0.413509933774833	-0.20026490066225				0.784529801324503	-0.160529801324503	-0.549721854304636	0.242913907284768	-1.4964238410596	-2.57562913907285				0.900026490066225	0.0674966887417219	0.421933774834437	6.9517880794702	4.53192052980133	1.62251655629139				0.687788079470199	-0.238834437086093	-0.644238410596026	8.42039735099338	1.27761589403974	-3.55470198675497			
136	2720	0.967841059602649	0.0507549668874172	0.152476821192053	-3.88662251655629	3.2153642384106	-0.0649006622516557				0.912953642384106	0.0797880794701987	0.397139072847682	-1.80609271523179	2.54781456953642	1.09403973509934				0.965827814569536	-0.177271523178808	-0.00794701986754963	0.567417218543046	-1.25350993377483	0.0797350993377501				0.784529801324503	-0.128529801324503	-0.565721854304636	-0.877086092715232	-1.2164238410596	-2.85562913907285				0.900026490066225	0.147496688741722	0.405933774834437	-0.888211920529802	0.891920529801325	0.502516556291392				0.655788079470199	-0.222834437086093	-0.676238410596026	6.74039735099338	0.997615894039735	-7.19470198675497			
137	2740	0.967841059602649	0.0507549668874172	0.200476821192053	-5.84662251655629	6.2953642384106	1.05509933774834				0.928953642384106	0.143788079470199	0.397139072847682	-4.32609271523179	1.42781456953642	1.09403973509934				0.965827814569536	-0.129271523178808	-0.0239470198675496	0.00741721854304636	-2.37350993377483	0.91973509933775				0.816529801324503	-0.112529801324503	-0.549721854304636	-0.0370860927152318	-1.4964238410596	-0.895629139072848				0.868026490066225	0.179496688741722	0.421933774834437	2.4717880794702	3.41192052980132	0.502516556291392				0.623788079470199	-0.190834437086093	-0.692238410596026	9.26039735099338	3.23761589403974	-6.63470198675497			
138	2760	0.999841059602649	0.0667549668874172	0.216476821192053	-8.64662251655629	10.2153642384106	1.33509933774834				0.960953642384106	0.127788079470199	0.413139072847682	-2.92609271523179	-0.812185430463576	1.37403973509934				0.981827814569536	-0.129271523178808	-0.0239470198675496	-0.832582781456954	-1.53350993377483	1.19973509933775				0.800529801324503	-0.128529801324503	-0.549721854304636	0.242913907284768	-2.0564238410596	0.784370860927152				0.916026490066225	0.0994966887417219	0.389933774834437	5.8317880794702	2.85192052980133	1.34251655629139				0.623788079470199	-0.206834437086093	-0.676238410596026	9.82039735099338	5.47761589403974	-6.07470198675497			
139	2780	0.983841059602649	0.0667549668874172	0.184476821192053	-6.68662251655629	7.1353642384106	0.495099337748344				0.912953642384106	0.0957880794701987	0.413139072847682	2.67390728476821	-2.21218543046358	1.09403973509934				0.981827814569536	-0.129271523178808	-0.0239470198675496	1.12741721854305	-0.413509933774833	1.19973509933775				0.784529801324503	-0.128529801324503	-0.533721854304636	-3.11708609271523	-2.0564238410596	-0.615629139072848				0.884026490066225	0.0994966887417219	0.389933774834437	3.3117880794702	0.891920529801325	1.90251655629139				0.639788079470199	-0.222834437086093	-0.676238410596026	4.78039735099338	-0.402384105960265	-4.95470198675497			
140	2800	0.951841059602649	0.0827549668874172	0.152476821192053	-2.48662251655629	2.0953642384106	0.215099337748344				0.880953642384106	0.143788079470199	0.397139072847682	6.31390728476821	3.66781456953642	-0.585960264900661				0.965827814569536	-0.0972715231788079	-0.0399470198675496	2.24741721854305	1.82649006622517	0.63973509933775				0.768529801324503	-0.0965298013245033	-0.533721854304636	-0.317086092715232	1.3035761589404	-3.41562913907285				0.852026490066225	0.179496688741722	0.421933774834437	1.9117880794702	-1.06807947019868	1.06251655629139				0.639788079470199	-0.206834437086093	-0.708238410596026	-0.259602649006623	-5.44238410596027	-4.11470198675497			
141	2820	0.983841059602649	0.0827549668874172	0.200476821192053	2.27337748344371	2.3753642384106	-0.904900662251656				0.928953642384106	0.143788079470199	0.461139072847682	6.03390728476821	5.62781456953642	0.25403973509934				0.965827814569536	-0.113271523178808	-0.0399470198675496	7.84741721854305	4.34649006622517	-0.20026490066225				0.768529801324503	-0.0965298013245033	-0.517721854304636	1.08291390728477	2.4235761589404	-3.41562913907285				0.868026490066225	0.131496688741722	0.405933774834437	5.8317880794702	3.41192052980132	1.06251655629139				0.639788079470199	-0.190834437086093	-0.676238410596026	-0.259602649006623	-0.962384105960265	-1.31470198675497			
142	2840	0.983841059602649	0.0507549668874172	0.248476821192053	5.35337748344371	4.6153642384106	0.495099337748344				0.944953642384106	0.0637880794701987	0.461139072847682	4.63390728476821	2.26781456953642	1.65403973509934				0.997827814569536	-0.145271523178808	-0.0239470198675496	10.087417218543	4.34649006622517	-0.76026490066225				0.736529801324503	-0.0965298013245033	-0.517721854304636	1.92291390728477	2.9835761589404	-1.73562913907285				0.900026490066225	0.0834966887417219	0.453933774834437	5.8317880794702	2.01192052980133	2.46251655629139				0.639788079470199	-0.254834437086093	-0.660238410596027	2.26039735099338	1.83761589403974	-1.31470198675497			
143	2860	0.983841059602649	0.0347549668874172	0.264476821192053	6.75337748344371	9.0953642384106	-0.344900662251656				0.928953642384106	0.0477880794701987	0.429139072847682	1.83390728476821	2.26781456953642	-1.70596026490066				1.01382781456954	-0.177271523178808	-0.0399470198675496	11.487417218543	3.22649006622517	-1.04026490066225				0.800529801324503	-0.0965298013245033	-0.533721854304636	3.88291390728477	2.9835761589404	-0.615629139072848				0.916026490066225	0.147496688741722	0.405933774834437	-4.2482119205298	0.891920529801325	3.30251655629139				0.719788079470199	-0.238834437086093	-0.740238410596026	1.42039735099338	4.07761589403974	-4.67470198675497			
144	2880	0.951841059602649	0.0347549668874172	0.216476821192053	2.55337748344371	8.5353642384106	-2.02490066225166				0.896953642384106	0.127788079470199	0.429139072847682	2.67390728476821	3.94781456953642	-0.30596026490066				0.965827814569536	-0.161271523178808	-0.0559470198675496	10.087417218543	1.54649006622517	-1.60026490066225				0.880529801324503	-0.128529801324503	-0.549721854304636	10.6029139072848	5.5035761589404	0.224370860927152				0.852026490066225	0.147496688741722	0.405933774834437	2.7517880794702	3.41192052980132	3.58251655629139				0.719788079470199	-0.206834437086093	-0.724238410596026	10.6603973509934	2.11761589403974	-1.31470198675497			
145	2900	0.983841059602649	0.0347549668874172	0.184476821192053	1.43337748344371	4.8953642384106	-1.46490066225166				0.912953642384106	0.127788079470199	0.445139072847682	4.35390728476821	3.38781456953642	2.49403973509934				0.981827814569536	-0.161271523178808	-0.0399470198675496	10.087417218543	0.426490066225167	-1.04026490066225				0.832529801324503	-0.160529801324503	-0.533721854304636	6.68291390728477	3.8235761589404	-0.895629139072848				0.868026490066225	0.0834966887417219	0.469933774834437	6.1117880794702	7.89192052980133	3.86251655629139				0.687788079470199	-0.222834437086093	-0.660238410596027	8.70039735099338	-2.64238410596027	5.12529801324503			
146	2920	0.967841059602649	0.0187549668874172	0.136476821192053	3.67337748344371	-4.3446357615894	0.215099337748344				0.912953642384106	0.0637880794701987	0.445139072847682	11.3539072847682	3.94781456953642	1.93403973509934				0.965827814569536	-0.177271523178808	-0.0239470198675496	10.647417218543	-1.25350993377483	-0.20026490066225				0.784529801324503	-0.112529801324503	-0.533721854304636	-2.27708609271523	-0.9364238410596	-1.45562913907285				0.868026490066225	0.115496688741722	0.421933774834437	-0.328211920529802	3.13192052980133	4.42251655629139				0.655788079470199	-0.254834437086093	-0.612238410596026	7.30039735099338	-5.16238410596027	-0.194701986754968			
147	2940	0.935841059602649	0.00275496688741723	0.136476821192053	5.91337748344371	-1.8246357615894	0.215099337748344				0.880953642384106	0.0957880794701987	0.413139072847682	11.0739072847682	8.14781456953643	-1.70596026490066				0.965827814569536	-0.177271523178808	-0.00794701986754963	7.00741721854305	-0.973509933774833	0.63973509933775				0.784529801324503	-0.0645298013245033	-0.501721854304636	-1.15708609271523	1.0235761589404	0.784370860927152				0.820026490066225	0.163496688741722	0.453933774834437	-0.888211920529802	2.85192052980133	4.42251655629139				0.623788079470199	-0.206834437086093	-0.628238410596026	9.82039735099338	-0.962384105960265	-2.43470198675497			
148	2960	0.935841059602649	0.00275496688741723	0.200476821192053	5.07337748344371	0.415364238410596	0.775099337748344				0.912953642384106	0.0957880794701987	0.445139072847682	0.433907284768212	10.1078145695364	2.49403973509934				0.965827814569536	-0.177271523178808	-0.00794701986754963	5.60741721854305	0.146490066225167	0.0797350993377501				0	0	0	0	0	0				0.852026490066225	0.131496688741722	0.469933774834437	6.6717880794702	7.05192052980133	3.02251655629139				0.655788079470199	-0.238834437086093	-0.612238410596026	8.42039735099338	-1.24238410596026	0.365298013245032			
149	2980	0.951841059602649	0.0347549668874172	0.232476821192053	1.15337748344371	4.6153642384106	1.05509933774834				0.928953642384106	0.0477880794701987	0.461139072847682	-1.24609271523179	3.66781456953642	3.61403973509934				0.965827814569536	-0.161271523178808	-0.00794701986754963	5.04741721854305	-1.25350993377483	-1.04026490066225				0.816529801324503	-0.0965298013245033	-0.517721854304636	4.44291390728477	2.9835761589404	-1.45562913907285				0.884026490066225	0.0834966887417219	0.453933774834437	2.7517880794702	6.21192052980133	3.02251655629139				0.703788079470199	-0.286834437086093	-0.644238410596026	7.02039735099338	-5.16238410596027	0.925298013245032			
150	3000	0	0	0	0	0	0				0	0	0	0	0	0				0.981827814569536	-0.177271523178808	-0.00794701986754963	4.48741721854305	-0.693509933774834	-1.32026490066225				0.816529801324503	-0.112529801324503	-0.517721854304636	5.28291390728477	4.9435761589404	-1.45562913907285				0.884026490066225	0.115496688741722	0.453933774834437	-0.0482119205298018	2.85192052980133	3.58251655629139				0.719788079470199	-0.286834437086093	-0.644238410596026	3.38039735099338	-0.962384105960265	0.0852980132450323			
151	3020	0.983841059602649	0.0507549668874172	0.168476821192053	-3.60662251655629	2.6553642384106	-2.58490066225166				0.896953642384106	0.0957880794701987	0.445139072847682	1.27390728476821	3.66781456953642	3.33403973509934				0.981827814569536	-0.161271523178808	0.00805298013245037	1.96741721854305	0.706490066225167	-1.04026490066225				0.816529801324503	-0.112529801324503	-0.533721854304636	3.60291390728477	5.2235761589404	1.62437086092715				0.852026490066225	0.147496688741722	0.453933774834437	1.0717880794702	2.85192052980133	5.26251655629139				0.671788079470199	-0.238834437086093	-0.676238410596026	0.300397350993377	3.51761589403974	4.00529801324503			
152	3040	0.983841059602649	0.0507549668874172	0.152476821192053	-1.92662251655629	-2.1046357615894	-2.02490066225166				0.912953642384106	0.111788079470199	0.461139072847682	0.713907284768212	5.34781456953642	4.73403973509934				0.965827814569536	-0.161271523178808	0.00805298013245037	3.64741721854305	-0.413509933774833	-0.76026490066225				0.816529801324503	-0.112529801324503	-0.533721854304636	3.60291390728477	3.5435761589404	1.06437086092715				0.868026490066225	0.0994966887417219	0.453933774834437	2.4717880794702	5.37192052980133	5.26251655629139				0.671788079470199	-0.254834437086093	-0.644238410596026	7.58039735099338	1.55761589403974	7.08529801324503			
153	3060	0.951841059602649	0.0347549668874172	0.184476821192053	-0.526622516556291	-1.2646357615894	-0.344900662251656				0.928953642384106	0.0637880794701987	0.477139072847682	-3.20609271523179	7.86781456953642	3.61403973509934				0.981827814569536	-0.177271523178808	0.00805298013245037	3.36741721854305	-0.693509933774834	-1.04026490066225				0.800529801324503	-0.112529801324503	-0.501721854304636	1.08291390728477	2.4235761589404	0.504370860927152				0.884026490066225	0.0834966887417219	0.469933774834437	1.6317880794702	3.69192052980133	5.26251655629139				0.655788079470199	-0.286834437086093	-0.612238410596026	8.42039735099338	-2.92238410596027	6.24529801324503			
154	3080	0.951841059602649	0.0187549668874172	0.248476821192053	2.83337748344371	1.2553642384106	-0.904900662251656				0.896953642384106	0.0957880794701987	0.477139072847682	-5.16609271523179	6.18781456953642	-0.0259602649006601				0.965827814569536	-0.161271523178808	-0.00794701986754963	-1.11258278145695	-0.413509933774833	-0.20026490066225				0.816529801324503	-0.0965298013245033	-0.517721854304636	1.92291390728477	3.5435761589404	1.90437086092715				0.884026490066225	0.131496688741722	0.469933774834437	-3.9682119205298	2.57192052980133	3.30251655629139				0.687788079470199	-0.286834437086093	-0.628238410596026	1.14039735099338	0.157615894039735	2.04529801324503			
155	3100	0.967841059602649	0.0187549668874172	0.232476821192053	1.71337748344371	4.0553642384106	-1.18490066225166				0.896953642384106	0.111788079470199	0.461139072847682	-1.24609271523179	4.78781456953642	3.89403973509934				0.965827814569536	-0.145271523178808	-0.0239470198675496	-0.552582781456954	0.706490066225167	0.0797350993377501				0.832529801324503	-0.0805298013245033	-0.533721854304636	4.16291390728477	5.5035761589404	2.46437086092715				0.868026490066225	0.131496688741722	0.469933774834437	-2.8482119205298	2.85192052980133	3.58251655629139				0.671788079470199	-0.270834437086093	-0.660238410596027	1.14039735099338	6.59761589403974	0.645298013245032			
156	3120	0.967841059602649	0.0667549668874172	0.200476821192053	-1.36662251655629	0.695364238410596	-2.30490066225166				0.912953642384106	0.0637880794701987	0.461139072847682	0.153907284768212	1.14781456953642	5.57403973509934				0.997827814569536	-0.161271523178808	-0.00794701986754963	-0.832582781456954	1.82649006622517	-0.20026490066225				0.848529801324503	-0.128529801324503	-0.517721854304636	3.32291390728477	4.9435761589404	3.02437086092715				0.884026490066225	0.0834966887417219	0.453933774834437	2.1917880794702	4.81192052980133	3.58251655629139				0.687788079470199	-0.270834437086093	-0.660238410596027	0.580397350993377	7.43761589403974	3.44529801324503			
157	3140	0.951841059602649	0.0507549668874172	0.184476821192053	-4.16662251655629	-1.8246357615894	-1.74490066225166				0.880953642384106	0.111788079470199	0.477139072847682	-5.16609271523179	2.54781456953642	3.61403973509934				0.997827814569536	-0.145271523178808	-0.00794701986754963	-3.91258278145695	2.38649006622517	-0.76026490066225				0.832529801324503	-0.144529801324503	-0.501721854304636	1.64291390728477	3.5435761589404	2.18437086092715				0.868026490066225	0.0834966887417219	0.453933774834437	-0.328211920529802	2.29192052980133	2.74251655629139				0.671788079470199	-0.270834437086093	-0.644238410596026	3.66039735099338	-4.04238410596027	4.28529801324503			
158	3160	0.967841059602649	0.0347549668874172	0.184476821192053	0.593377483443709	-0.704635761589404	-1.74490066225166				0.896953642384106	0.111788079470199	0.477139072847682	-4.60609271523179	3.66781456953642	2.77403973509934				0.965827814569536	-0.145271523178808	-0.00794701986754963	-1.67258278145695	0.986490066225167	-0.76026490066225				0.816529801324503	-0.0965298013245033	-0.517721854304636	-0.877086092715232	3.2635761589404	1.06437086092715				0.852026490066225	0.131496688741722	0.469933774834437	-4.2482119205298	-0.508079470198675	2.46251655629139				0.655788079470199	-0.270834437086093	-0.644238410596026	6.18039735099338	-6.56238410596027	2.88529801324503			
159	3180	0.967841059602649	0.0347549668874172	0.200476821192053	1.71337748344371	-0.424635761589404	-0.904900662251656				0.912953642384106	0.0797880794701987	0.461139072847682	0.153907284768212	2.54781456953642	2.77403973509934				0.949827814569536	-0.129271523178808	-0.0239470198675496	0.00741721854304636	-0.413509933774833	-0.20026490066225				0.816529801324503	-0.0805298013245033	-0.485721854304636	0.242913907284768	3.5435761589404	4.14437086092715				0.852026490066225	0.115496688741722	0.469933774834437	-1.7282119205298	1.17192052980133	2.46251655629139				0.655788079470199	-0.270834437086093	-0.644238410596026	5.90039735099338	-0.402384105960265	2.32529801324503			
160	3200	0.951841059602649	0.0507549668874172	0.200476821192053	-0.806622516556291	-1.5446357615894	-0.624900662251656				0.912953642384106	0.0637880794701987	0.461139072847682	0.153907284768212	0.867814569536424	3.89403973509934				0.981827814569536	-0.145271523178808	-0.0239470198675496	-1.67258278145695	-1.53350993377483	0.0797350993377501				0.832529801324503	-0.112529801324503	-0.501721854304636	2.48291390728477	1.0235761589404	5.26437086092715				0.868026490066225	0.0674966887417219	0.469933774834437	-0.608211920529802	0.331920529801325	3.02251655629139				0.671788079470199	-0.286834437086093	-0.644238410596026	1.42039735099338	0.157615894039735	4.56529801324503			
161	3220	0.951841059602649	0.0507549668874172	0.216476821192053	-1.36662251655629	-2.3846357615894	-1.18490066225166				0.896953642384106	0.0637880794701987	0.477139072847682	-2.08609271523179	2.82781456953642	3.61403973509934				0.981827814569536	-0.145271523178808	-0.0399470198675496	-2.51258278145695	-0.693509933774834	-0.48026490066225				0.832529801324503	-0.112529801324503	-0.517721854304636	3.60291390728477	1.5835761589404	4.14437086092715				0.884026490066225	0.0834966887417219	0.469933774834437	-2.8482119205298	-1.62807947019868	2.74251655629139				0.687788079470199	-0.286834437086093	-0.628238410596026	3.66039735099338	-3.76238410596027	4.84529801324503			
162	3240	0.967841059602649	0.0667549668874172	0.216476821192053	-0.806622516556291	-1.2646357615894	-1.46490066225166				0.912953642384106	0.0957880794701987	0.493139072847682	-3.20609271523179	2.82781456953642	1.09403973509934				0.981827814569536	-0.145271523178808	-0.0239470198675496	-1.67258278145695	0.426490066225167	-1.32026490066225				0.832529801324503	-0.128529801324503	-0.501721854304636	3.88291390728477	2.7035761589404	1.62437086092715				0.868026490066225	0.115496688741722	0.453933774834437	-3.1282119205298	-1.34807947019868	2.18251655629139				0.639788079470199	-0.270834437086093	-0.612238410596026	4.78039735099338	-3.48238410596027	2.60529801324503			
163	3260	0.967841059602649	0.0667549668874172	0.200476821192053	1.15337748344371	-0.984635761589404	-1.74490066225166				0.896953642384106	0.0957880794701987	0.461139072847682	-2.36609271523179	1.42781456953642	0.53403973509934				0.981827814569536	-0.145271523178808	-0.00794701986754963	-3.07258278145695	-0.693509933774834	-0.76026490066225				0.832529801324503	-0.128529801324503	-0.517721854304636	1.92291390728477	0.7435761589404	1.06437086092715				0.852026490066225	0.115496688741722	0.469933774834437	-1.4482119205298	0.331920529801325	0.502516556291392				0.623788079470199	-0.270834437086093	-0.612238410596026	4.78039735099338	2.67761589403974	2.04529801324503			
164	3280	0.983841059602649	0.0507549668874172	0.168476821192053	0.313377483443709	-1.8246357615894	-1.46490066225166				0.896953642384106	0.0797880794701987	0.477139072847682	-1.80609271523179	3.38781456953642	2.49403973509934				0.981827814569536	-0.145271523178808	-0.0239470198675496	-4.19258278145695	-2.37350993377483	-0.20026490066225				0.832529801324503	-0.128529801324503	-0.533721854304636	0.522913907284768	-0.6564238410596	2.74437086092715				0.868026490066225	0.0834966887417219	0.485933774834437	0.791788079470198	-0.788079470198675	1.06251655629139				0.655788079470199	-0.302834437086093	-0.612238410596026	3.94039735099338	2.11761589403974	2.88529801324503			
165	3300	0.967841059602649	0.0347549668874172	0.200476821192053	-1.08662251655629	-3.5046357615894	-0.624900662251656				0.896953642384106	0.0797880794701987	0.493139072847682	-3.20609271523179	-0.252185430463576	1.09403973509934				0.965827814569536	-0.145271523178808	-0.0399470198675496	-4.47258278145695	-3.77350993377483	0.35973509933775				0.816529801324503	-0.128529801324503	-0.501721854304636	-1.99708609271523	-0.0964238410596001	3.58437086092715				0.884026490066225	0.0674966887417219	0.453933774834437	-1.4482119205298	-0.788079470198675	0.502516556291392				0.671788079470199	-0.318834437086093	-0.628238410596026	-0.819602649006623	0.157615894039735	3.72529801324503			
166	3320	0.967841059602649	0.0507549668874172	0.216476821192053	-0.526622516556291	-1.8246357615894	-1.18490066225166				0.896953642384106	0.0797880794701987	0.445139072847682	-2.92609271523179	0.867814569536424	-0.30596026490066				0.981827814569536	-0.129271523178808	-0.0399470198675496	-3.63258278145695	-3.21350993377483	-0.48026490066225				0.816529801324503	-0.112529801324503	-0.501721854304636	-3.95708609271523	-0.0964238410596001	2.46437086092715				0.868026490066225	0.0994966887417219	0.453933774834437	-4.8082119205298	-2.18807947019868	-0.897483443708608				0.687788079470199	-0.302834437086093	-0.660238410596027	-4.73960264900662	1.27761589403974	3.44529801324503			
167	3340	0.951841059602649	0.0507549668874172	0.248476821192053	-2.76662251655629	-1.8246357615894	-2.58490066225166				0.896953642384106	0.0797880794701987	0.493139072847682	-2.36609271523179	2.82781456953642	1.09403973509934				0.965827814569536	-0.129271523178808	-0.0239470198675496	-3.07258278145695	-2.93350993377483	-1.04026490066225				0.816529801324503	-0.112529801324503	-0.501721854304636	-0.877086092715232	1.3035761589404	3.86437086092715				0.852026490066225	0.0994966887417219	0.501933774834437	-2.5682119205298	0.611920529801325	-1.17748344370861				0.655788079470199	-0.286834437086093	-0.628238410596026	-3.05960264900662	0.437615894039735	4.84529801324503			
168	3360	0.983841059602649	0.0667549668874172	0.216476821192053	-2.20662251655629	-0.704635761589404	-2.58490066225166				0.896953642384106	0.0797880794701987	0.493139072847682	-2.64609271523179	-0.252185430463576	1.09403973509934				0.965827814569536	-0.145271523178808	-0.0239470198675496	-3.35258278145695	-3.21350993377483	-1.04026490066225				0.816529801324503	-0.128529801324503	-0.517721854304636	-1.99708609271523	0.4635761589404	4.42437086092715				0.868026490066225	0.0834966887417219	0.453933774834437	-4.5282119205298	0.891920529801325	-0.617483443708608				0.655788079470199	-0.254834437086093	-0.612238410596026	-3.05960264900662	-0.402384105960265	5.40529801324503			
169	3380	0.983841059602649	0.0507549668874172	0.200476821192053	-1.64662251655629	-2.9446357615894	-1.74490066225166				0.896953642384106	0.0797880794701987	0.461139072847682	-0.686092715231788	-2.49218543046358	-1.70596026490066				0.997827814569536	-0.145271523178808	-0.0239470198675496	-1.67258278145695	-3.49350993377483	-1.04026490066225				0.816529801324503	-0.112529801324503	-0.501721854304636	-4.51708609271523	-1.2164238410596	4.70437086092715				0.868026490066225	0.0994966887417219	0.453933774834437	-2.8482119205298	-1.34807947019868	-1.17748344370861				0.671788079470199	-0.270834437086093	-0.660238410596027	-1.37960264900662	2.67761589403974	0.0852980132450323			
170	3400	0.967841059602649	0.0347549668874172	0.184476821192053	-2.48662251655629	-3.5046357615894	-1.18490066225166				0.896953642384106	0.0957880794701987	0.461139072847682	-2.08609271523179	-0.812185430463576	-1.98596026490066				0.981827814569536	-0.161271523178808	-0.00794701986754963	-0.272582781456954	-4.05350993377483	-1.04026490066225				0.848529801324503	-0.0965298013245033	-0.517721854304636	-0.877086092715232	-1.4964238410596	5.26437086092715				0.868026490066225	0.131496688741722	0.485933774834437	-4.2482119205298	0.0519205298013249	-1.45748344370861				0.687788079470199	-0.286834437086093	-0.708238410596026	-1.37960264900662	5.75761589403974	-0.474701986754968			
171	3420	0.967841059602649	0.0347549668874172	0.200476821192053	-1.64662251655629	-2.3846357615894	-1.46490066225166				0.912953642384106	0.0797880794701987	0.493139072847682	-1.24609271523179	-4.73218543046358	-0.0259602649006601				0.965827814569536	-0.145271523178808	-0.0239470198675496	-4.47258278145695	-3.49350993377483	-0.76026490066225				0.864529801324503	-0.112529801324503	-0.517721854304636	-1.43708609271523	-1.2164238410596	4.70437086092715				0.868026490066225	0.131496688741722	0.453933774834437	-2.5682119205298	1.17192052980133	-1.45748344370861				0.655788079470199	-0.270834437086093	-0.676238410596026	0.300397350993377	-0.402384105960265	3.16529801324503			
172	3440	0.967841059602649	0.0347549668874172	0.216476821192053	-1.64662251655629	-2.3846357615894	-2.30490066225166				0.896953642384106	0.0797880794701987	0.461139072847682	1.27390728476821	-9.49218543046358	0.81403973509934				0.965827814569536	-0.145271523178808	-0.0239470198675496	-3.35258278145695	-1.53350993377483	-1.04026490066225				0.848529801324503	-0.128529801324503	-0.501721854304636	-1.71708609271523	-1.2164238410596	3.58437086092715				0.884026490066225	0.0834966887417219	0.469933774834437	1.0717880794702	1.45192052980132	-0.337483443708608				0.655788079470199	-0.270834437086093	-0.628238410596026	-0.539602649006623	-4.60238410596027	5.12529801324503			
173	3460	0.951841059602649	0.0347549668874172	0.200476821192053	-0.246622516556291	-3.7846357615894	-1.46490066225166				0.896953642384106	0.0957880794701987	0.461139072847682	0.993907284768212	-7.25218543046358	-0.0259602649006601				0.965827814569536	-0.145271523178808	-0.0239470198675496	-2.23258278145695	-2.37350993377483	-0.48026490066225				0.816529801324503	-0.112529801324503	-0.517721854304636	-0.597086092715232	-1.4964238410596	2.74437086092715				0.868026490066225	0.0994966887417219	0.469933774834437	-0.328211920529802	-0.508079470198675	-0.897483443708608				0.655788079470199	-0.270834437086093	-0.628238410596026	-1.65960264900662	-0.962384105960265	1.20529801324503			
174	3480	0.951841059602649	0.0507549668874172	0.200476821192053	-1.92662251655629	-4.0646357615894	-0.904900662251656				0.896953642384106	0.0797880794701987	0.445139072847682	0.153907284768212	-5.57218543046358	-0.585960264900661				0.965827814569536	-0.161271523178808	-0.0399470198675496	-1.39258278145695	-3.21350993377483	-0.76026490066225				0.816529801324503	-0.112529801324503	-0.517721854304636	-0.0370860927152318	0.1835761589404	3.02437086092715				0.852026490066225	0.115496688741722	0.453933774834437	-1.7282119205298	-1.34807947019868	-1.73748344370861				0.655788079470199	-0.270834437086093	-0.644238410596026	1.14039735099338	2.39761589403974	-3.83470198675497			
175	3500	0.967841059602649	0.0507549668874172	0.168476821192053	-1.36662251655629	-4.3446357615894	-1.18490066225166				0.896953642384106	0.0797880794701987	0.445139072847682	-2.64609271523179	-6.41218543046358	0.81403973509934				0.965827814569536	-0.145271523178808	-0.0399470198675496	-0.832582781456954	-3.21350993377483	-0.20026490066225				0.832529801324503	-0.128529801324503	-0.517721854304636	-0.0370860927152318	0.1835761589404	3.02437086092715				0.852026490066225	0.0994966887417219	0.469933774834437	0.791788079470198	-2.18807947019868	-1.73748344370861				0.655788079470199	-0.286834437086093	-0.644238410596026	1.98039735099338	0.437615894039735	-1.31470198675497			
176	3520	0.951841059602649	0.0507549668874172	0.152476821192053	-0.246622516556291	-5.1846357615894	-1.46490066225166				0.864953642384106	0.0797880794701987	0.445139072847682	-3.48609271523179	-5.85218543046358	0.25403973509934				0.965827814569536	-0.145271523178808	-0.0399470198675496	-0.272582781456954	-2.93350993377483	-0.76026490066225				0.800529801324503	-0.112529801324503	-0.501721854304636	-2.83708609271523	-1.2164238410596	2.46437086092715				0.852026490066225	0.0674966887417219	0.453933774834437	-0.328211920529802	-0.788079470198675	-1.45748344370861				0.655788079470199	-0.286834437086093	-0.612238410596026	-0.259602649006623	-6.28238410596027	1.48529801324503			
177	3540	0.951841059602649	0.0187549668874172	0.136476821192053	1.43337748344371	-7.1446357615894	-0.0649006622516557				0.880953642384106	0.0637880794701987	0.445139072847682	-0.686092715231788	-4.17218543046358	-0.0259602649006601				0.965827814569536	-0.145271523178808	-0.0399470198675496	-1.39258278145695	-4.89350993377483	-1.04026490066225				0.800529801324503	-0.0965298013245033	-0.501721854304636	-1.15708609271523	-1.7764238410596	1.90437086092715				0.868026490066225	0.115496688741722	0.469933774834437	-1.1682119205298	-2.18807947019868	-2.01748344370861				0.655788079470199	-0.302834437086093	-0.612238410596026	0.300397350993377	-6.56238410596027	-0.194701986754968			
178	3560	0.951841059602649	0.0187549668874172	0.168476821192053	-1.36662251655629	-7.9846357615894	-1.46490066225166				0.896953642384106	0.0637880794701987	0.429139072847682	-0.406092715231788	-3.33218543046358	-1.14596026490066				0.949827814569536	-0.145271523178808	-0.0399470198675496	-2.51258278145695	-6.01350993377483	-1.60026490066225				0.832529801324503	-0.112529801324503	-0.501721854304636	1.36291390728477	-2.0564238410596	3.02437086092715				0.868026490066225	0.115496688741722	0.469933774834437	-2.5682119205298	-4.70807947019868	-0.897483443708608				0.687788079470199	-0.286834437086093	-0.660238410596027	-2.21960264900662	-0.122384105960265	-2.99470198675497			
