No	Time	12-AccX	12-AccY	12-AccZ	12-GyroX	12-GyroY	12-GyroZ	13-AccX	13-AccY	13-AccZ	13-GyroX	13-GyroY	13-GyroZ	14-AccX	14-AccY	14-AccZ	14-GyroX	14-GyroY	14-GyroZ	15-AccX	15-AccY	15-AccZ	15-GyroX	15-GyroY	15-GyroZ	16-AccX	16-AccY	16-AccZ	16-GyroX	16-GyroY	16-GyroZ	17-AccX	17-AccY	17-AccZ	17-GyroX	17-GyroY	17-GyroZ
0	0	-0.248158940397351	0.130754966887417	-0.903523178807947	0.0333774834437086	0.135364238410596	-0.0649006622516557				0.944953642384106	0.0317880794701987	0.285139072847682	-0.406092715231788	0.587814569536424	1.09403973509934				-0.218172185430464	-0.113271523178808	-0.87194701986755	-0.552582781456954	-1.25350993377483	-0.76026490066225				0	0	0	0	0	0				0	0	0	0	0	0				0	0	0	0	0	0			
1	20	-0.248158940397351	0.130754966887417	-0.919523178807947	0.0333774834437086	-0.144635761589404	0.215099337748344				0.944953642384106	0.0317880794701987	0.285139072847682	-0.406092715231788	-0.252185430463576	0.81403973509934				-0.218172185430464	-0.113271523178808	-0.87194701986755	-0.552582781456954	-1.53350993377483	-0.76026490066225				0.144529801324503	-0.000529801324503289	-0.949721854304636	-0.597086092715232	1.5835761589404	-0.615629139072848				0.948026490066225	0.0994966887417219	0.0859337748344371	-0.888211920529802	0.331920529801325	-2.57748344370861				0.0797880794701987	-0.382834437086093	-0.868238410596026	-0.539602649006623	1.55761589403974	-4.11470198675497			
2	40	-0.264158940397351	0.114754966887417	-0.935523178807947	-0.526622516556291	-0.424635761589404	0.215099337748344				0.944953642384106	0.0317880794701987	0.285139072847682	-1.24609271523179	-1.65218543046358	0.81403973509934				-0.218172185430464	-0.113271523178808	-0.87194701986755	1.12741721854305	-0.133509933774833	-1.32026490066225				0.160529801324503	-0.0165298013245033	-0.949721854304636	0.242913907284768	1.3035761589404	-0.615629139072848				0.948026490066225	0.0994966887417219	0.101933774834437	-0.328211920529802	0.331920529801325	-3.13748344370861				0.0797880794701987	-0.398834437086093	-0.868238410596026	0.300397350993377	2.11761589403974	-3.55470198675497			
3	60	-0.264158940397351	0.130754966887417	-0.935523178807947	-1.08662251655629	-0.144635761589404	-0.344900662251656				0.960953642384106	0.0317880794701987	0.285139072847682	-2.08609271523179	0.587814569536424	0.53403973509934				-0.234172185430464	-0.113271523178808	-0.88794701986755	0.00741721854304636	0.146490066225167	-2.16026490066225				0.160529801324503	-0.000529801324503289	-0.949721854304636	-0.0370860927152318	1.8635761589404	-1.73562913907285				0.964026490066225	0.0994966887417219	0.101933774834437	-0.888211920529802	0.611920529801325	-2.29748344370861				0.0797880794701987	-0.398834437086093	-0.868238410596026	-0.819602649006623	1.83761589403974	-3.83470198675497			
4	80	-0.264158940397351	0.130754966887417	-0.935523178807947	-0.806622516556291	-0.144635761589404	-1.18490066225166				0.976953642384106	0.0317880794701987	0.301139072847682	-1.80609271523179	2.26781456953642	-0.30596026490066				-0.218172185430464	-0.113271523178808	-0.88794701986755	0.00741721854304636	-0.133509933774833	-1.04026490066225				0.160529801324503	-0.000529801324503289	-0.965721854304636	-1.71708609271523	1.8635761589404	-1.17562913907285				0.964026490066225	0.115496688741722	0.0859337748344371	0.511788079470198	0.0519205298013249	-2.01748344370861				0.0797880794701987	-0.382834437086093	-0.884238410596026	-2.21960264900662	2.67761589403974	-3.83470198675497			
5	100	-0.248158940397351	0.130754966887417	-0.935523178807947	-0.526622516556291	-0.144635761589404	-0.624900662251656				0.960953642384106	0.0317880794701987	0.285139072847682	-2.36609271523179	1.98781456953642	-0.30596026490066				-0.218172185430464	-0.129271523178808	-0.88794701986755	2.80741721854305	0.426490066225167	-1.60026490066225				0.160529801324503	-0.0165298013245033	-0.965721854304636	-0.317086092715232	1.8635761589404	-0.615629139072848				0.948026490066225	0.115496688741722	0.0859337748344371	1.0717880794702	-0.228079470198675	-0.617483443708608				0.0637880794701987	-0.366834437086093	-0.884238410596026	0.0203973509933773	2.11761589403974	-3.55470198675497			
6	120	-0.248158940397351	0.130754966887417	-0.935523178807947	-0.526622516556291	-0.424635761589404	-0.904900662251656				0.960953642384106	0.0317880794701987	0.301139072847682	-3.20609271523179	1.42781456953642	-0.30596026490066				-0.218172185430464	-0.129271523178808	-0.88794701986755	0.567417218543046	-1.25350993377483	-1.88026490066225				0.160529801324503	-0.0165298013245033	-0.965721854304636	-1.71708609271523	1.0235761589404	-0.895629139072848				0.964026490066225	0.0994966887417219	0.0859337748344371	-0.328211920529802	-0.228079470198675	-0.337483443708608				0.0957880794701987	-0.398834437086093	-0.884238410596026	1.70039735099338	2.39761589403974	-4.39470198675497			
7	140	-0.248158940397351	0.114754966887417	-0.935523178807947	-0.526622516556291	-1.2646357615894	-1.74490066225166				0.960953642384106	0.0317880794701987	0.301139072847682	-3.48609271523179	2.54781456953642	0.53403973509934				-0.218172185430464	-0.129271523178808	-0.88794701986755	1.12741721854305	-0.693509933774834	-1.88026490066225				0.160529801324503	-0.0165298013245033	-0.965721854304636	-0.877086092715232	2.4235761589404	-1.45562913907285				0.964026490066225	0.115496688741722	0.101933774834437	0.231788079470198	0.331920529801325	-0.0574834437086077				0.0797880794701987	-0.398834437086093	-0.884238410596026	-0.819602649006623	2.95761589403974	-1.87470198675497			
8	160	-0.264158940397351	0.130754966887417	-0.935523178807947	0.313377483443709	-1.2646357615894	-2.30490066225166				0.944953642384106	0.0477880794701987	0.301139072847682	-2.92609271523179	5.06781456953642	0.25403973509934				-0.218172185430464	-0.129271523178808	-0.88794701986755	0.00741721854304636	0.706490066225167	-0.76026490066225				0.144529801324503	-0.000529801324503289	-0.965721854304636	-1.71708609271523	4.3835761589404	-0.0556291390728476				0.964026490066225	0.115496688741722	0.0859337748344371	-0.888211920529802	-0.228079470198675	-1.45748344370861				0.0797880794701987	-0.382834437086093	-0.868238410596026	-2.77960264900662	3.23761589403974	-1.03470198675497			
9	180	-0.264158940397351	0.146754966887417	-0.935523178807947	1.15337748344371	0.135364238410596	-1.46490066225166				0.960953642384106	0.0317880794701987	0.333139072847682	0.153907284768212	5.06781456953642	1.93403973509934				-0.218172185430464	-0.129271523178808	-0.88794701986755	1.40741721854305	0.146490066225167	-1.60026490066225				0.160529801324503	-0.0165298013245033	-0.965721854304636	-0.877086092715232	3.8235761589404	0.504370860927152				0.948026490066225	0.115496688741722	0.0859337748344371	-0.0482119205298018	3.69192052980133	-1.45748344370861				0.0957880794701987	-0.366834437086093	-0.868238410596026	0.300397350993377	3.51761589403974	-2.43470198675497			
10	200	-0.248158940397351	0.114754966887417	-0.919523178807947	0.873377483443709	-0.424635761589404	-1.18490066225166				0.944953642384106	0.0157880794701987	0.285139072847682	-0.406092715231788	-2.49218543046358	3.61403973509934				-0.202172185430464	-0.129271523178808	-0.87194701986755	3.92741721854305	-0.133509933774833	-0.48026490066225				0.144529801324503	-0.0165298013245033	-0.965721854304636	-1.43708609271523	4.6635761589404	1.90437086092715				0.948026490066225	0.115496688741722	0.101933774834437	1.0717880794702	6.77192052980133	-2.01748344370861				0.0797880794701987	-0.366834437086093	-0.868238410596026	2.82039735099338	2.11761589403974	-2.71470198675497			
11	220	-0.264158940397351	0.114754966887417	-0.903523178807947	-1.08662251655629	-1.2646357615894	-1.46490066225166				0.944953642384106	0.0157880794701987	0.253139072847682	-4.04609271523179	-5.57218543046358	2.77403973509934				-0.234172185430464	-0.145271523178808	-0.87194701986755	2.52741721854305	-0.413509933774833	-0.76026490066225				0.128529801324503	-0.0165298013245033	-0.965721854304636	-3.67708609271523	4.1035761589404	3.58437086092715				0.964026490066225	0.115496688741722	0.0699337748344371	-2.5682119205298	2.85192052980133	-2.29748344370861				0.0797880794701987	-0.382834437086093	-0.852238410596026	1.70039735099338	1.83761589403974	-1.87470198675497			
12	240	-0.280158940397351	0.0987549668874172	-0.919523178807947	-2.76662251655629	-0.984635761589404	-1.18490066225166				0.976953642384106	0.0317880794701987	0.253139072847682	-5.72609271523179	-7.25218543046358	3.05403973509934				-0.234172185430464	-0.129271523178808	-0.87194701986755	2.24741721854305	0.426490066225167	-0.20026490066225				0.144529801324503	-0.000529801324503289	-0.965721854304636	-2.55708609271523	4.1035761589404	5.54437086092715				0.980026490066225	0.0994966887417219	0.0859337748344371	-0.328211920529802	1.73192052980133	-0.337483443708608				0.0797880794701987	-0.382834437086093	-0.868238410596026	-2.21960264900662	3.79761589403974	-1.59470198675497			
13	260	-0.280158940397351	0.114754966887417	-0.935523178807947	-3.32662251655629	-0.424635761589404	-1.74490066225166				0.976953642384106	0.0157880794701987	0.253139072847682	-6.84609271523179	-9.21218543046358	3.33403973509934				-0.234172185430464	-0.129271523178808	-0.88794701986755	2.80741721854305	0.146490066225167	-0.20026490066225				0.128529801324503	-0.0165298013245033	-0.965721854304636	-0.0370860927152318	3.2635761589404	6.10437086092715				0.980026490066225	0.0994966887417219	0.0699337748344371	-3.4082119205298	-0.788079470198675	0.782516556291392				0.0797880794701987	-0.366834437086093	-0.884238410596026	-1.65960264900662	6.87761589403974	-4.11470198675497			
14	280	-0.280158940397351	0.114754966887417	-0.935523178807947	-5.84662251655629	-0.144635761589404	-0.624900662251656				0.992953642384106	-0.000211920529801304	0.221139072847682	-7.96609271523179	-15.0921854304636	4.45403973509934				-0.234172185430464	-0.129271523178808	-0.88794701986755	4.76741721854305	0.986490066225167	0.35973509933775				0.128529801324503	-0.0325298013245033	-0.997721854304636	1.08291390728477	4.1035761589404	6.38437086092715				0.980026490066225	0.0994966887417219	0.0539337748344371	-4.5282119205298	0.891920529801325	-0.617483443708608				0.0637880794701987	-0.350834437086093	-0.900238410596026	-2.49960264900662	5.75761589403974	-5.23470198675497			
15	300	-0.280158940397351	0.114754966887417	-0.919523178807947	-7.52662251655629	2.0953642384106	0.775099337748344				0.992953642384106	0.0317880794701987	0.237139072847682	-11.3260927152318	-13.6921854304636	4.17403973509934				-0.234172185430464	-0.129271523178808	-0.87194701986755	6.16741721854305	0.986490066225167	-0.76026490066225				0.112529801324503	-0.0325298013245033	-0.997721854304636	1.08291390728477	4.1035761589404	9.18437086092715				1.01202649006623	0.0994966887417219	0.0539337748344371	-4.8082119205298	0.611920529801325	-0.337483443708608				0.0477880794701987	-0.366834437086093	-0.900238410596026	-2.21960264900662	6.03761589403974	-4.67470198675497			
16	320	-0.280158940397351	0.0987549668874172	-0.903523178807947	-8.64662251655629	3.2153642384106	1.05509933774834				0.992953642384106	0.0637880794701987	0.205139072847682	-8.80609271523179	-13.9721854304636	4.73403973509934				-0.234172185430464	-0.129271523178808	-0.90394701986755	3.92741721854305	0.986490066225167	-1.04026490066225				0.112529801324503	-0.0645298013245033	-0.997721854304636	-0.597086092715232	3.8235761589404	9.74437086092715				1.01202649006623	0.0994966887417219	0.0379337748344371	-7.8882119205298	-4.42807947019868	0.782516556291392				0.0637880794701987	-0.398834437086093	-0.900238410596026	-4.45960264900662	6.87761589403974	-3.27470198675497			
17	340	-0.280158940397351	0.114754966887417	-0.935523178807947	-9.48662251655629	2.3753642384106	1.61509933774834				0.992953642384106	-0.0482119205298013	0.253139072847682	-10.4860927152318	-16.4921854304636	7.53403973509934				-0.234172185430464	-0.129271523178808	-0.88794701986755	5.32741721854305	1.54649006622517	-0.76026490066225				0.0965298013245033	-0.0485298013245033	-0.997721854304636	-3.11708609271523	2.1435761589404	8.90437086092715				0.980026490066225	0.0834966887417219	0.00593377483443711	-5.9282119205298	-4.14807947019868	0.782516556291392				0.0477880794701987	-0.366834437086093	-0.884238410596026	-7.81960264900662	9.11761589403974	-2.43470198675497			
18	360	-0.280158940397351	0.130754966887417	-0.919523178807947	-11.1666225165563	2.3753642384106	4.13509933774834				1.08895364238411	-0.0642119205298013	0.317139072847682	-11.3260927152318	-44.2121854304636	6.41403973509934				-0.234172185430464	-0.129271523178808	-0.90394701986755	6.44741721854305	4.34649006622517	-3.00026490066225				0.0805298013245033	-0.0325298013245033	-0.981721854304636	-5.91708609271523	1.0235761589404	9.18437086092715				0.980026490066225	0.0674966887417219	0.0539337748344371	-7.0482119205298	-1.90807947019868	-0.0574834437086077				0.0157880794701987	-0.318834437086093	-0.916238410596027	-8.37960264900662	12.7576158940397	-3.27470198675497			
19	380	-0.264158940397351	0.114754966887417	-0.935523178807947	-11.7266225165563	4.6153642384106	4.69509933774834				0.976953642384106	0.0477880794701987	0.221139072847682	-9.36609271523179	-83.6921854304636	3.61403973509934				-0.186172185430464	-0.161271523178808	-0.90394701986755	10.647417218543	3.22649006622517	-5.52026490066225				0.0805298013245033	-0.0485298013245033	-0.981721854304636	-5.07708609271523	2.9835761589404	7.78437086092715				0.980026490066225	0.0834966887417219	0.0379337748344371	-10.4082119205298	-2.18807947019868	1.06251655629139				0.0157880794701987	-0.334834437086093	-0.900238410596026	-0.819602649006623	11.6376158940397	-2.99470198675497			
20	400	-0.248158940397351	0.114754966887417	-0.935523178807947	-10.6066225165563	4.8953642384106	4.13509933774834				0.880953642384106	0.0317880794701987	0.0611390728476822	-8.52609271523179	-58.7721854304636	4.73403973509934				-0.218172185430464	-0.145271523178808	-0.87194701986755	7.56741721854305	1.54649006622517	-5.52026490066225				0.0805298013245033	-0.0805298013245033	-0.965721854304636	-2.55708609271523	6.6235761589404	6.66437086092715				0.916026490066225	0.0674966887417219	-0.0100662251655629	-10.9682119205298	-2.18807947019868	-0.897483443708608				-0.000211920529801336	-0.382834437086093	-0.884238410596026	-0.819602649006623	9.95761589403974	-1.03470198675497			
21	420	-0.232158940397351	0.146754966887417	-0.935523178807947	-10.3266225165563	2.3753642384106	5.81509933774834				0.944953642384106	-0.0322119205298013	0.109139072847682	-12.7260927152318	-29.3721854304636	5.85403973509934				-0.186172185430464	-0.129271523178808	-0.87194701986755	7.28741721854305	0.986490066225167	-4.40026490066225				0.0485298013245033	-0.0965298013245033	-0.933721854304636	-7.03708609271523	8.3035761589404	3.30437086092715				0.884026490066225	0.0354966887417219	-0.0260662251655629	-5.6482119205298	7.05192052980133	-1.17748344370861				-0.0162119205298013	-0.350834437086093	-0.868238410596026	-6.13960264900662	11.6376158940397	0.645298013245032			
22	440	-0.232158940397351	0.162754966887417	-0.951523178807947	-11.7266225165563	1.2553642384106	8.33509933774834				0.976953642384106	-0.0322119205298013	0.205139072847682	-19.1660927152318	-39.7321854304636	1.09403973509934				-0.202172185430464	-0.161271523178808	-0.87194701986755	9.24741721854305	0.426490066225167	-2.16026490066225				0.0165298013245033	-0.0645298013245033	-0.917721854304636	-11.7970860927152	9.4235761589404	0.504370860927152				0.900026490066225	0.0514966887417219	0.0219337748344371	-9.0082119205298	9.85192052980133	-2.29748344370861				-0.0322119205298013	-0.270834437086093	-0.884238410596026	-1.93960264900662	14.4376158940397	1.48529801324503			
23	460	-0.248158940397351	0.146754966887417	-0.935523178807947	-10.6066225165563	3.7753642384106	9.17509933774834				0.928953642384106	0.0477880794701987	0.109139072847682	3.51390728476821	-50.6521854304636	7.53403973509934				-0.218172185430464	-0.193271523178808	-0.90394701986755	6.44741721854305	-1.53350993377483	-1.04026490066225				-0.0154701986754967	-0.0805298013245033	-0.917721854304636	-10.9570860927152	11.9435761589404	0.224370860927152				0.868026490066225	0.0834966887417219	-0.0260662251655629	-11.5282119205298	13.4919205298013	-2.01748344370861				-0.0482119205298013	-0.254834437086093	-0.900238410596026	8.42039735099338	13.5976158940397	2.32529801324503			
24	480	-0.216158940397351	0.146754966887417	-0.919523178807947	-7.24662251655629	3.2153642384106	7.49509933774834				0.896953642384106	0.0317880794701987	0.0771390728476822	0.713907284768212	-10.6121854304636	4.45403973509934				-0.186172185430464	-0.193271523178808	-0.87194701986755	6.16741721854305	-5.17350993377483	-2.16026490066225				-0.0154701986754967	-0.0805298013245033	-0.933721854304636	-7.87708609271523	18.1035761589404	-3.41562913907285				0.884026490066225	0.0674966887417219	-0.0580662251655629	-7.3282119205298	23.8519205298013	-2.57748344370861				-0.0482119205298013	-0.302834437086093	-0.900238410596026	15.4203973509934	17.2376158940397	2.60529801324503			
25	500	-0.168158940397351	0.162754966887417	-0.919523178807947	-8.08662251655629	-0.144635761589404	6.37509933774834				0.896953642384106	-0.000211920529801304	0.0931390728476822	0.993907284768212	12.0678145695364	4.45403973509934				-0.250172185430464	-0.129271523178808	-0.77594701986755	4.48741721854305	-3.21350993377483	0.0797350993377501				0.0325298013245033	-0.0485298013245033	-0.901721854304636	-10.6770860927152	24.5435761589404	-6.49562913907285				0.916026490066225	0.0674966887417219	-0.0260662251655629	-5.3682119205298	30.2919205298013	-2.01748344370861				-0.0642119205298013	-0.318834437086093	-0.884238410596026	9.54039735099338	19.7576158940397	7.64529801324503			
26	520	-0.216158940397351	0.194754966887417	-0.919523178807947	-9.20662251655629	-3.5046357615894	6.65509933774834				0.928953642384106	-0.0162119205298013	0.0771390728476822	0.993907284768212	18.5078145695364	8.65403973509934				-0.186172185430464	-0.161271523178808	-0.83994701986755	6.16741721854305	-3.21350993377483	0.91973509933775				0.0325298013245033	-0.0165298013245033	-0.901721854304636	-8.99708609271523	29.0235761589404	-9.01562913907285				0.948026490066225	0.0674966887417219	-0.0260662251655629	-5.3682119205298	32.8119205298013	-1.17748344370861				-0.0962119205298013	-0.286834437086093	-0.868238410596026	6.74039735099338	26.7576158940397	10.725298013245			
27	540	-0.264158940397351	0.178754966887417	-0.935523178807947	-8.08662251655629	-2.9446357615894	6.37509933774834				0.976953642384106	-0.0322119205298013	0.109139072847682	-6.56609271523179	34.1878145695364	6.97403973509934				-0.250172185430464	-0.209271523178808	-0.88794701986755	5.04741721854305	-3.77350993377483	0.91973509933775				0.0485298013245033	-0.0485298013245033	-0.917721854304636	-3.39708609271523	35.1835761589404	-10.4156291390728				0.932026490066225	0.0674966887417219	-0.0100662251655629	-3.9682119205298	35.8919205298013	-1.73748344370861				-0.0482119205298013	-0.270834437086093	-0.900238410596026	14.3003973509934	38.7976158940397	4.00529801324503			
28	560	-0.264158940397351	0.178754966887417	-0.919523178807947	-7.24662251655629	0.135364238410596	3.29509933774834				0.912953642384106	-0.112211920529801	0.205139072847682	-18.3260927152318	57.9878145695364	7.53403973509934				-0.202172185430464	-0.177271523178808	-0.87194701986755	-0.272582781456954	-3.49350993377483	0.63973509933775				0.0645298013245033	-0.0805298013245033	-0.949721854304636	-0.0370860927152318	40.2235761589404	-16.2956291390729				0.884026490066225	0.0514966887417219	0.00593377483443711	-3.9682119205298	38.9719205298013	-2.29748344370861				-0.000211920529801336	-0.286834437086093	-0.868238410596026	24.9403973509934	37.9576158940397	7.36529801324503			
29	580	-0.264158940397351	0.210754966887417	-0.903523178807947	-8.64662251655629	-0.144635761589404	1.61509933774834				0.976953642384106	0.0317880794701987	0.237139072847682	-20.0060927152318	69.7478145695364	2.49403973509934				-0.218172185430464	-0.129271523178808	-0.88794701986755	-3.63258278145695	-3.77350993377483	0.63973509933775				0.0805298013245033	-0.0645298013245033	-0.933721854304636	-9.27708609271523	40.2235761589404	-19.3756291390728				0.852026490066225	0.0514966887417219	0.0699337748344371	-5.0882119205298	46.8119205298013	-3.97748344370861				-0.0162119205298013	-0.334834437086093	-0.836238410596026	30.8203973509934	32.6376158940397	9.04529801324503			
30	600	-0.264158940397351	0.258754966887417	-0.919523178807947	-8.08662251655629	-0.984635761589404	1.05509933774834				0.992953642384106	0.0157880794701987	0.0291390728476822	-14.1260927152318	68.3478145695364	5.57403973509934				-0.234172185430464	-0.0972715231788079	-0.85594701986755	-0.552582781456954	0.426490066225167	1.47973509933775				0.0965298013245033	-0.0645298013245033	-0.917721854304636	-10.6770860927152	40.2235761589404	-23.0156291390729				0.948026490066225	0.0834966887417219	0.0699337748344371	-4.8082119205298	52.6919205298013	-6.21748344370861				0.0637880794701987	-0.350834437086093	-0.836238410596026	26.0603973509934	35.4376158940397	11.285298013245			
31	620	-0.232158940397351	0.226754966887417	-0.935523178807947	-10.6066225165563	-1.5446357615894	3.01509933774834				0.896953642384106	0.0637880794701987	0.0771390728476822	-19.7260927152318	73.1078145695364	5.01403973509934				-0.266172185430464	-0.145271523178808	-0.87194701986755	4.48741721854305	0.706490066225167	1.47973509933775				0.144529801324503	-0.0165298013245033	-0.949721854304636	-6.19708609271523	46.9435761589404	-19.9356291390729				0.996026490066225	0.0834966887417219	0.165933774834437	2.7517880794702	59.4119205298013	-6.77748344370861				0.159788079470199	-0.382834437086093	-0.868238410596026	28.3003973509934	38.7976158940397	6.52529801324503			
32	640	-0.280158940397351	0.242754966887417	-0.935523178807947	-11.7266225165563	-1.2646357615894	2.45509933774835				0.960953642384106	0.0157880794701987	0.333139072847682	-3.76609271523179	82.0678145695364	12.0140397350993				-0.314172185430464	-0.113271523178808	-0.88794701986755	5.88741721854305	0.426490066225167	-0.20026490066225				0.240529801324503	-0.0325298013245033	-0.933721854304636	-0.597086092715232	53.9435761589404	-16.5756291390728				0.980026490066225	0.0994966887417219	0.181933774834437	-3.1282119205298	55.2119205298013	-5.93748344370861				0.191788079470199	-0.430834437086093	-0.836238410596026	28.8603973509934	34.5976158940397	-0.474701986754968			
33	660	-0.328158940397351	0.226754966887417	-0.903523178807947	-7.52662251655629	2.3753642384106	0.775099337748344				1.05695364238411	0.0317880794701987	0.349139072847682	2.95390728476821	87.1078145695364	6.41403973509934				-0.330172185430464	-0.0972715231788079	-0.85594701986755	5.32741721854305	0.426490066225167	-0.48026490066225				0.256529801324503	-0.0165298013245033	-0.901721854304636	-2.55708609271523	57.8635761589404	-12.3756291390728				0.916026490066225	0.147496688741722	0.165933774834437	-6.7682119205298	52.6919205298013	-5.65748344370861				0.159788079470199	-0.430834437086093	-0.804238410596027	21.5803973509934	35.4376158940397	0.925298013245032			
34	680	-0.296158940397351	0.210754966887417	-0.903523178807947	-5.00662251655629	7.1353642384106	1.05509933774834				0.960953642384106	0.0317880794701987	0.301139072847682	2.95390728476821	87.6678145695364	7.25403973509934				-0.298172185430464	-0.0812715231788079	-0.88794701986755	4.48741721854305	2.94649006622517	-0.48026490066225				0.304529801324503	0.0314701986754967	-0.901721854304636	-1.15708609271523	58.9835761589404	-10.1356291390728				0.932026490066225	0.131496688741722	0.213933774834437	-5.9282119205298	55.2119205298013	-6.21748344370861				0.127788079470199	-0.414834437086093	-0.788238410596027	18.2203973509934	40.4776158940397	3.44529801324503			
35	700	-0.264158940397351	0.194754966887417	-0.903523178807947	-8.92662251655629	6.2953642384106	0.775099337748344				0.896953642384106	-0.0642119205298013	0.317139072847682	-9.92609271523179	82.3478145695364	11.1740397350993				-0.218172185430464	-0.0972715231788079	-0.90394701986755	7.00741721854305	3.22649006622517	-3.28026490066225				0.352529801324503	0.0314701986754967	-0.965721854304636	3.32291390728477	61.2235761589404	-10.4156291390728				0.916026490066225	0.147496688741722	0.325933774834437	2.4717880794702	59.6919205298013	-6.77748344370861				0.175788079470199	-0.414834437086093	-0.788238410596027	14.8603973509934	39.6376158940397	7.36529801324503			
36	720	-0.296158940397351	0.210754966887417	-0.871523178807947	-15.6466225165563	6.8553642384106	0.215099337748344				0.928953642384106	-0.000211920529801304	0.365139072847682	-12.1660927152318	77.0278145695364	6.69403973509934				-0.218172185430464	-0.113271523178808	-0.88794701986755	11.767417218543	4.90649006622517	-7.20026490066225				0.432529801324503	0.0474701986754967	-0.933721854304636	-2.83708609271523	56.1835761589404	-11.8156291390728				0.964026490066225	0.0834966887417219	0.309933774834437	-2.2882119205298	51.8519205298013	-6.21748344370861				0.207788079470199	-0.398834437086093	-0.788238410596027	14.8603973509934	33.4776158940397	3.44529801324503			
37	740	-0.296158940397351	0.242754966887417	-0.903523178807947	-14.8066225165563	7.4153642384106	1.33509933774834				0.976953642384106	-0.0322119205298013	0.493139072847682	-7.40609271523179	92.1478145695364	8.09403973509934				-0.266172185430464	-0.113271523178808	-0.87194701986755	12.327417218543	6.30649006622517	-9.44026490066225				0.448529801324503	0.0314701986754967	-0.933721854304636	-6.75708609271523	46.6635761589404	-15.4556291390728				0.916026490066225	0.147496688741722	0.261933774834437	-9.5682119205298	44.8519205298013	-7.05748344370861				0.255788079470199	-0.446834437086093	-0.772238410596026	25.7803973509934	33.4776158940397	-4.67470198675497			
38	760	-0.280158940397351	0.226754966887417	-0.919523178807947	-13.9666225165563	9.6553642384106	4.69509933774834				0.896953642384106	0.0797880794701987	0.429139072847682	-16.3660927152318	80.9478145695364	2.49403973509934				-0.266172185430464	-0.113271523178808	-0.87194701986755	14.567417218543	6.02649006622517	-6.08026490066225				0.432529801324503	0.0314701986754967	-0.901721854304636	-15.7170860927152	41.3435761589404	-17.9756291390729				0.884026490066225	0.131496688741722	0.309933774834437	-5.0882119205298	43.4519205298013	-7.33748344370861				0.271788079470199	-0.478834437086093	-0.724238410596026	22.9803973509934	30.9576158940397	0.0852980132450323			
39	780	-0.232158940397351	0.178754966887417	-0.919523178807947	-12.5666225165563	10.2153642384106	7.21509933774835				0.896953642384106	0.0637880794701987	0.365139072847682	-2.92609271523179	74.2278145695364	9.49403973509934				-0.218172185430464	-0.145271523178808	-0.87194701986755	24.087417218543	7.42649006622517	-4.40026490066225				0.400529801324503	0.0634701986754967	-0.885721854304636	-22.1570860927152	36.3035761589404	-21.6156291390729				0.868026490066225	0.179496688741722	0.405933774834437	0.791788079470198	48.4919205298013	-9.85748344370861				0.271788079470199	-0.494834437086093	-0.756238410596026	27.1803973509934	30.3976158940397	6.80529801324503			
40	800	-0.232158940397351	0.210754966887417	-0.951523178807947	-9.76662251655629	7.6953642384106	8.89509933774834				0.912953642384106	-0.0802119205298013	0.445139072847682	4.91390728476821	65.2678145695364	17.0540397350993				-0.202172185430464	-0.209271523178808	-0.88794701986755	26.3274172185431	3.50649006622517	-4.12026490066225				0.448529801324503	0.0634701986754967	-0.917721854304636	-22.1570860927152	37.1435761589404	-18.5356291390728				0.932026490066225	0.179496688741722	0.437933774834437	5.2717880794702	48.4919205298013	-10.4174834437086				0.287788079470199	-0.510834437086093	-0.740238410596026	4.78039735099338	38.2376158940397	6.24529801324503			
41	820	-0.280158940397351	0.194754966887417	-0.951523178807947	-15.3666225165563	7.1353642384106	12.5350993377483				0.880953642384106	-0.0162119205298013	0.589139072847682	0.713907284768212	63.5878145695364	12.5740397350993				-0.234172185430464	-0.241271523178808	-0.88794701986755	26.3274172185431	4.06649006622517	-5.80026490066225				0.496529801324503	0.0634701986754967	-0.885721854304636	-19.9170860927152	37.7035761589404	-15.4556291390728				0.916026490066225	0.147496688741722	0.389933774834437	0.791788079470198	41.2119205298013	-9.57748344370861				0.351788079470199	-0.430834437086093	-0.820238410596026	9.54039735099338	32.6376158940397	-0.754701986754968			
42	840	-0.280158940397351	0.162754966887417	-0.871523178807947	-12.2866225165563	11.3353642384106	14.7750993377483				0.912953642384106	-0.0642119205298013	0.621139072847682	-3.20609271523179	58.8278145695364	18.4540397350993				-0.186172185430464	-0.241271523178808	-0.88794701986755	27.727417218543	6.30649006622517	-3.84026490066225				0.480529801324503	0.111470198675497	-0.885721854304636	-22.4370860927152	35.4635761589404	-11.8156291390728				0.868026490066225	0.179496688741722	0.437933774834437	6.6717880794702	42.3319205298013	-9.01748344370861				0.367788079470199	-0.462834437086093	-0.820238410596026	14.5803973509934	25.9176158940397	-4.95470198675497			
43	860	-0.280158940397351	0.178754966887417	-0.919523178807947	-9.76662251655629	10.4953642384106	16.1750993377483				0.880953642384106	-0.0962119205298013	0.605139072847682	-6.28609271523179	49.8678145695364	15.3740397350993				-0.186172185430464	-0.241271523178808	-0.91994701986755	26.8874172185431	9.10649006622517	-1.88026490066225				0.496529801324503	0.127470198675497	-0.853721854304636	-18.7970860927152	31.2635761589404	-6.77562913907285				0.900026490066225	0.131496688741722	0.501933774834437	8.6317880794702	42.0519205298013	-8.45748344370861				0.399788079470199	-0.542834437086093	-0.836238410596026	15.7003973509934	18.0776158940397	-5.51470198675497			
44	880	-0.296158940397351	0.178754966887417	-0.919523178807947	-12.8466225165563	10.4953642384106	19.2550993377483				0.880953642384106	-0.112211920529801	0.541139072847682	-11.8860927152318	32.5078145695364	12.2940397350993				-0.218172185430464	-0.273271523178808	-0.88794701986755	30.247417218543	8.82649006622517	-3.00026490066225				0.496529801324503	0.0954701986754967	-0.869721854304636	-12.0770860927152	26.7835761589404	-4.81562913907285				0.916026490066225	0.0994966887417219	0.485933774834437	3.0317880794702	37.5719205298013	-7.33748344370861				0.351788079470199	-0.542834437086093	-0.756238410596026	15.9803973509934	16.6776158940397	-7.19470198675497			
45	900	-0.312158940397351	0.242754966887417	-0.967523178807947	-13.9666225165563	6.0153642384106	22.8950993377483				0.816953642384106	-0.0962119205298013	0.541139072847682	-17.7660927152318	41.1878145695364	7.53403973509934				-0.234172185430464	-0.273271523178808	-0.82394701986755	28.567417218543	9.94649006622517	-4.96026490066225				0.496529801324503	0.0634701986754967	-0.837721854304636	-11.7970860927152	23.7035761589404	-4.53562913907285				0.900026490066225	0.0834966887417219	0.469933774834437	-3.4082119205298	29.7319205298013	-6.21748344370861				0.415788079470199	-0.606834437086093	-0.772238410596026	11.2203973509934	18.3576158940397	-8.59470198675497			
46	920	-0.264158940397351	0.258754966887417	-0.999523178807947	-21.2466225165563	13.5753642384106	26.5350993377483				0.848953642384106	-0.0322119205298013	0.685139072847682	-11.0460927152318	43.1478145695364	7.25403973509934				-0.202172185430464	-0.257271523178808	-0.87194701986755	27.447417218543	12.7464900662252	-4.40026490066225				0.496529801324503	0.0794701986754967	-0.837721854304636	-18.2370860927152	20.0635761589404	-4.53562913907285				0.836026490066225	0.115496688741722	0.469933774834437	-5.9282119205298	28.0519205298013	-5.93748344370861				0.351788079470199	-0.574834437086093	-0.740238410596026	11.5003973509934	18.6376158940397	-8.03470198675497			
47	940	0	0	0	0	0	0				0	0	0	0	0	0				0	0	0	0	0	0				0.496529801324503	0.127470198675497	-0.821721854304636	-19.3570860927152	20.0635761589404	-5.65562913907285				0.836026490066225	0.0994966887417219	0.501933774834437	-6.2082119205298	28.0519205298013	-5.93748344370861				0.335788079470199	-0.542834437086093	-0.724238410596026	13.4603973509934	20.3176158940397	-5.79470198675497			
48	960	-0.200158940397351	0.210754966887417	-0.983523178807947	-22.0866225165563	16.6553642384106	25.9750993377483				0.784953642384106	-0.0482119205298013	0.669139072847682	-18.8860927152318	42.0278145695364	3.61403973509934				-0.170172185430464	-0.273271523178808	-0.85594701986755	30.8074172185431	12.4664900662252	-5.80026490066225				0.496529801324503	0.127470198675497	-0.821721854304636	-12.9170860927152	23.1435761589404	-7.33562913907285				0.852026490066225	0.131496688741722	0.437933774834437	-8.4482119205298	26.6519205298013	-7.89748344370861				0.319788079470199	-0.526834437086093	-0.708238410596026	21.0203973509934	17.2376158940397	-1.87470198675497			
49	980	-0.168158940397351	0.258754966887417	-0.903523178807947	-13.4066225165563	9.6553642384106	31.2950993377483				0.800953642384106	0.0157880794701987	0.541139072847682	-15.2460927152318	37.8278145695364	5.57403973509934				-0.186172185430464	-0.241271523178808	-0.88794701986755	23.807417218543	13.3064900662252	-3.56026490066225				0.480529801324503	0.0954701986754967	-0.917721854304636	-4.51708609271523	25.1035761589404	-8.17562913907285				0.868026490066225	0.163496688741722	0.485933774834437	-6.2082119205298	28.3319205298013	-9.57748344370861				0.335788079470199	-0.526834437086093	-0.740238410596026	20.4603973509934	16.3976158940397	-2.43470198675497			
50	1000	-0.232158940397351	0.290754966887417	-0.983523178807947	-10.8866225165563	16.0953642384106	33.5350993377483				0.752953642384106	-0.144211920529801	0.621139072847682	-17.2060927152318	38.6678145695364	9.49403973509934				-0.202172185430464	-0.241271523178808	-0.87194701986755	25.2074172185431	16.6664900662252	0.35973509933775				0.512529801324503	0.0954701986754967	-0.885721854304636	-8.15708609271523	21.1835761589404	-7.05562913907285				0.868026490066225	0.163496688741722	0.501933774834437	-4.8082119205298	25.8119205298013	-10.1374834437086				0.335788079470199	-0.510834437086093	-0.708238410596026	25.5003973509934	19.7576158940397	-6.91470198675497			
51	1020	-0.264158940397351	0.338754966887417	-0.887523178807947	-24.3266225165563	16.0953642384106	34.6550993377484				0.800953642384106	-0.192211920529801	0.749139072847682	-28.4060927152318	52.9478145695364	6.41403973509934				-0.218172185430464	-0.353271523178808	-0.85594701986755	32.4874172185431	15.8264900662252	-1.88026490066225				0.544529801324503	0.0954701986754967	-0.885721854304636	-14.0370860927152	12.2235761589404	-7.05562913907285				0.852026490066225	0.115496688741722	0.517933774834437	-7.0482119205298	18.8119205298013	-7.89748344370861				0.335788079470199	-0.526834437086093	-0.708238410596026	20.1803973509934	21.9976158940397	-8.03470198675497			
52	1040	-0.200158940397351	0.418754966887417	-0.855523178807947	-14.8066225165563	19.7353642384106	32.1350993377484				0.848953642384106	-0.0322119205298013	0.797139072847682	-20.8460927152318	55.4678145695364	5.57403973509934				-0.202172185430464	-0.417271523178808	-0.83994701986755	58.5274172185431	44.3864900662252	-0.48026490066225				0.496529801324503	0.0794701986754967	-0.869721854304636	-21.3170860927152	7.7435761589404	-8.45562913907285				0.868026490066225	0.131496688741722	0.501933774834437	-8.4482119205298	20.7719205298013	-9.57748344370861				0.351788079470199	-0.510834437086093	-0.724238410596026	8.14039735099338	20.3176158940397	-8.87470198675497			
53	1060	-0.184158940397351	0.482754966887417	-0.903523178807947	-3.88662251655629	26.4553642384106	26.8150993377483				0.848953642384106	-0.0322119205298013	0.685139072847682	-5.44609271523179	50.9878145695364	11.7340397350993				-0.250172185430464	-0.369271523178808	-0.83994701986755	70.847417218543	61.7464900662252	1.75973509933775				0.544529801324503	0.127470198675497	-0.853721854304636	-27.7570860927152	5.5035761589404	-8.45562913907285				0.884026490066225	0.211496688741722	0.549933774834437	-6.2082119205298	28.8919205298013	-11.2574834437086				0.335788079470199	-0.558834437086093	-0.756238410596026	7.86039735099338	21.9976158940397	-13.354701986755			
54	1080	-0.152158940397351	0.482754966887417	-0.967523178807947	-5.00662251655629	31.7753642384106	20.6550993377483				0.896953642384106	-0.0802119205298013	0.669139072847682	6.03390728476821	38.3878145695364	13.1340397350993				-0.266172185430464	-0.369271523178808	-0.88794701986755	57.4074172185431	55.5864900662252	3.71973509933775				0.560529801324503	0.223470198675497	-0.837721854304636	-28.0370860927152	15.0235761589404	-7.33562913907285				0.964026490066225	0.227496688741722	0.549933774834437	-4.2482119205298	29.4519205298013	-8.45748344370861				0.399788079470199	-0.542834437086093	-0.772238410596026	4.22039735099338	25.6376158940397	-15.314701986755			
55	1100	-0.232158940397351	0.434754966887417	-0.919523178807947	-13.1266225165563	35.4153642384106	13.9350993377483				0.848953642384106	-0.0962119205298013	0.893139072847682	11.0739072847682	40.9078145695364	11.1740397350993				-0.282172185430464	-0.401271523178808	-0.91994701986755	33.8874172185431	37.1064900662252	3.15973509933775				0.560529801324503	0.239470198675497	-0.821721854304636	-15.7170860927152	28.7435761589404	-4.81562913907285				0.980026490066225	0.227496688741722	0.549933774834437	2.1917880794702	28.3319205298013	-7.05748344370861				0.383788079470199	-0.606834437086093	-0.820238410596026	6.46039735099338	28.1576158940397	-17.554701986755			
56	1120	-0.184158940397351	0.386754966887417	-0.951523178807947	-5.84662251655629	38.4953642384106	9.73509933774834				0.864953642384106	-0.144211920529801	1.05313907284768	8.55390728476821	52.1078145695364	13.6940397350993				-0.218172185430464	-0.433271523178808	-0.88794701986755	-4.75258278145695	27.0264900662252	2.31973509933775				0.576529801324503	0.239470198675497	-0.837721854304636	1.08291390728477	40.2235761589404	-3.69562913907285				0.916026490066225	0.243496688741722	0.629933774834437	5.8317880794702	28.8919205298013	-6.77748344370861				0.399788079470199	-0.622834437086093	-0.884238410596026	10.3803973509934	30.1176158940397	-20.354701986755			
57	1140	-0.232158940397351	0.306754966887417	-0.967523178807947	-3.04662251655629	46.0553642384106	9.45509933774835				0.864953642384106	-0.192211920529801	0.925139072847682	18.6339072847682	42.3078145695364	15.6540397350993				-0.202172185430464	-0.353271523178808	-0.88794701986755	9.80741721854305	41.0264900662252	-0.48026490066225				0.656529801324503	0.207470198675497	-0.949721854304636	13.1229139072848	53.6635761589404	-6.49562913907285				0.932026490066225	0.259496688741722	0.629933774834437	12.2717880794702	39.8119205298013	-6.49748344370861				0.463788079470199	-0.606834437086093	-0.932238410596026	7.58039735099338	29.2776158940397	-18.954701986755			
58	1160	-0.200158940397351	0.370754966887417	-0.967523178807947	-3.04662251655629	51.9353642384106	9.17509933774834				0.848953642384106	-0.176211920529801	0.765139072847682	20.8739072847682	28.3078145695364	13.6940397350993				-0.154172185430464	-0.401271523178808	-0.91994701986755	-14.552582781457	35.7064900662252	-6.64026490066225				0.736529801324503	0.191470198675497	-0.901721854304636	9.20291390728477	62.3435761589404	-6.49562913907285				0.980026490066225	0.195496688741722	0.741933774834437	17.0317880794702	45.6919205298013	-5.93748344370861				0.559788079470199	-0.686834437086093	-0.916238410596027	11.2203973509934	17.2376158940397	-16.714701986755			
59	1180	-0.088158940397351	0.354754966887417	-0.983523178807947	4.79337748344371	55.5753642384106	7.21509933774835				0.864953642384106	-0.176211920529801	0.845139072847682	12.4739072847682	23.2678145695364	9.21403973509934				-0.170172185430464	-0.321271523178808	-0.91994701986755	-19.872582781457	39.3464900662252	-11.1202649006623				0.752529801324503	0.159470198675497	-0.885721854304636	6.96291390728477	61.7835761589404	-6.21562913907285				1.01202649006623	0.0994966887417219	0.725933774834437	18.1517880794702	36.4519205298013	-2.29748344370861				0.607788079470199	-0.734834437086093	-0.836238410596026	5.06039735099338	7.15761589403974	-11.394701986755			
60	1200	-0.088158940397351	0.386754966887417	-0.983523178807947	1.99337748344371	61.7353642384106	6.93509933774835				0.832953642384106	-0.128211920529801	0.909139072847682	11.3539072847682	20.7478145695364	3.33403973509934				-0.0901721854304636	-0.273271523178808	-0.91994701986755	-39.752582781457	37.3864900662252	-15.3202649006623				0.752529801324503	0.223470198675497	-0.885721854304636	11.7229139072848	57.8635761589404	-2.85562913907285				1.02802649006623	0.147496688741722	0.709933774834437	11.1517880794702	30.8519205298013	-1.73748344370861				0.575788079470199	-0.718834437086093	-0.836238410596026	-4.17960264900662	18.9176158940397	-12.794701986755			
61	1220	-0.088158940397351	0.402754966887417	-0.983523178807947	4.51337748344371	72.0953642384106	6.09509933774834				0.832953642384106	-0.0642119205298013	0.909139072847682	24.7939072847682	25.2278145695364	5.01403973509934				-0.138172185430464	-0.321271523178808	-0.95194701986755	-61.592582781457	32.6264900662252	-16.1602649006623				0.704529801324503	0.207470198675497	-0.885721854304636	22.3629139072848	51.4235761589404	3.86437086092715				0.996026490066225	0.211496688741722	0.725933774834437	5.2717880794702	20.4919205298013	1.34251655629139				0.527788079470199	-0.622834437086093	-0.852238410596026	-0.259602649006623	24.2376158940397	-20.914701986755			
62	1240	-0.008158940397351	0.322754966887417	-1.06352317880795	12.3533774834437	77.6953642384106	5.53509933774834				0.864953642384106	-0.0802119205298013	0.973139072847682	22.2739072847682	26.9078145695364	5.57403973509934				-0.122172185430464	-0.273271523178808	-0.98394701986755	-31.912582781457	50.8264900662252	-19.2402649006623				0.768529801324503	0.111470198675497	-0.965721854304636	32.1629139072848	47.5035761589404	8.62437086092715				0.964026490066225	0.243496688741722	0.725933774834437	4.9917880794702	16.2919205298013	0.782516556291392				0.543788079470199	-0.622834437086093	-0.836238410596026	8.70039735099338	23.3976158940397	-23.994701986755			
63	1260	0.039841059602649	0.306754966887417	-1.06352317880795	13.7533774834437	79.9353642384106	6.93509933774835				0.864953642384106	-0.0642119205298013	1.02113907284768	26.4739072847682	21.3078145695364	4.45403973509934				-0.0101721854304636	-0.337271523178808	-0.99994701986755	-10.632582781457	67.3464900662252	-21.7602649006623				0.800529801324503	0.0794701986754967	-0.997721854304636	26.5629139072848	57.0235761589404	8.34437086092715				1.01202649006623	0.291496688741722	0.677933774834437	1.0717880794702	25.8119205298013	-0.337483443708608				0.559788079470199	-0.670834437086093	-0.788238410596027	-5.85960264900662	19.1976158940397	-14.474701986755			
64	1280	0.103841059602649	0.322754966887417	-1.06352317880795	28.0333774834437	81.6153642384106	10.8550993377483				0.912953642384106	-0.112211920529801	1.03713907284768	30.1139072847682	19.3478145695364	9.49403973509934				0.0538278145695364	-0.353271523178808	-0.99994701986755	1.12741721854305	73.5064900662252	-27.3602649006623				0.736529801324503	0.111470198675497	-0.965721854304636	12.8429139072848	69.3435761589404	7.50437086092715				1.04402649006623	0.275496688741722	0.677933774834437	6.3917880794702	33.3719205298013	-3.97748344370861				0.591788079470199	-0.638834437086093	-0.740238410596026	-28.2596026490066	21.9976158940397	-3.83470198675497			
65	1300	0.151841059602649	0.242754966887417	-1.03152317880795	33.3533774834437	89.4553642384106	13.0950993377483				0.816953642384106	-0.144211920529801	1.06913907284768	14.7139072847682	14.0278145695364	11.7340397350993				0.133827814569536	-0.337271523178808	-0.98394701986755	-3.91258278145695	83.5864900662252	-32.4002649006623				0.672529801324503	0.143470198675497	-0.917721854304636	15.3629139072848	77.7435761589404	11.4243708609272				0.980026490066225	0.179496688741722	0.773933774834437	-11.2482119205298	26.9319205298013	-12.0974834437086				0.591788079470199	-0.638834437086093	-0.788238410596027	-37.2196026490066	38.5176158940397	-6.91470198675497			
66	1320	0.215841059602649	0.258754966887417	-1.01552317880795	32.7933774834437	98.4153642384106	16.7350993377483				0.832953642384106	-0.192211920529801	1.00513907284768	12.4739072847682	9.82781456953643	16.7740397350993				0.213827814569536	-0.289271523178808	-0.95194701986755	1.96741721854305	89.1864900662252	-35.7602649006623				0.736529801324503	0.111470198675497	-0.821721854304636	26.2829139072848	76.9035761589404	20.9443708609272				0.996026490066225	0.227496688741722	0.741933774834437	-18.5282119205298	10.4119205298013	-10.9774834437086				0.607788079470199	-0.590834437086093	-0.916238410596027	-30.4996026490066	38.5176158940397	-13.354701986755			
67	1340	0.183841059602649	0.258754966887417	-0.999523178807947	31.9533774834437	101.495364238411	19.8150993377483				0.832953642384106	-0.192211920529801	0.925139072847682	6.03390728476821	15.1478145695364	15.3740397350993				0.261827814569536	-0.305271523178808	-0.93594701986755	4.48741721854305	93.1064900662252	-36.0402649006623				0.752529801324503	-0.0165298013245033	-0.805721854304636	38.3229139072848	68.5035761589404	29.9043708609272				0.964026490066225	0.163496688741722	0.677933774834437	-42.6082119205298	16.0119205298013	-8.45748344370861				0.655788079470199	-0.558834437086093	-1.01223841059603	-50.6596026490066	18.9176158940397	0.645298013245032			
68	1360	0.183841059602649	0.242754966887417	-1.01552317880795	36.7133774834437	104.015364238411	22.0550993377483				0.832953642384106	-0.128211920529801	0.909139072847682	0.153907284768212	20.4678145695364	9.49403973509934				0.229827814569536	-0.369271523178808	-0.93594701986755	2.80741721854305	97.8664900662252	-36.6002649006623				0.800529801324503	0.0634701986754967	-0.869721854304636	33.8429139072848	69.6235761589404	30.1843708609272				0.868026490066225	0.147496688741722	0.677933774834437	-38.4082119205298	17.1319205298013	-5.09748344370861				0.607788079470199	-0.638834437086093	-1.01223841059603	-62.4196026490066	14.9976158940397	15.485298013245			
69	1380	0.247841059602649	0.258754966887417	-1.03152317880795	41.1933774834437	108.215364238411	24.2950993377483				0.864953642384106	-0.192211920529801	1.03713907284768	12.7539072847682	25.7878145695364	6.13403973509934				0.261827814569536	-0.337271523178808	-0.88794701986755	-1.67258278145695	105.426490066225	-34.9202649006623				0.880529801324503	0.0794701986754967	-0.853721854304636	33.0029139072848	57.3035761589404	31.0243708609272				0.852026490066225	0.163496688741722	0.805933774834437	-21.6082119205298	26.9319205298013	-4.53748344370861				0.639788079470199	-0.590834437086093	-0.948238410596026	-35.5396026490066	8.55761589403974	8.48529801324503			
70	1400	0.327841059602649	0.242754966887417	-0.983523178807947	45.3933774834437	112.415364238411	22.3350993377483				0.752953642384106	-0.240211920529801	1.03713907284768	14.4339072847682	20.4678145695364	0.25403973509934				0.357827814569536	-0.353271523178808	-0.85594701986755	-2.51258278145695	106.546490066225	-32.6802649006623				0.944529801324503	0.0314701986754967	-0.821721854304636	33.2829139072848	36.5835761589404	19.8243708609272				0.900026490066225	0.211496688741722	0.757933774834437	-22.7282119205298	23.2919205298013	-0.337483443708608				0.591788079470199	-0.494834437086093	-0.916238410596027	-21.5396026490066	9.11761589403974	-1.87470198675497			
71	1420	0.359841059602649	0.194754966887417	-0.951523178807947	43.9933774834437	116.055364238411	20.0950993377483				0.752953642384106	-0.176211920529801	0.941139072847682	-5.72609271523179	16.5478145695364	-3.94596026490066				0.389827814569536	-0.369271523178808	-0.82394701986755	-6.43258278145695	111.586490066225	-29.6002649006623				0.944529801324503	0.0474701986754967	-0.709721854304636	19.8429139072848	24.5435761589404	8.90437086092715				0.836026490066225	0.163496688741722	0.693933774834437	-2.2882119205298	17.1319205298013	4.14251655629139				0.607788079470199	-0.462834437086093	-0.852238410596026	16.5403973509934	-19.1623841059603	-4.11470198675497			
72	1440	0.375841059602649	0.194754966887417	-0.887523178807947	47.3533774834437	119.695364238411	18.6950993377483				0.720953642384106	-0.0962119205298013	0.941139072847682	-14.1260927152318	31.9478145695364	-4.22596026490066				0.373827814569536	-0.321271523178808	-0.77594701986755	-5.87258278145695	115.506490066225	-27.3602649006623				0.960529801324503	0.0794701986754967	-0.661721854304636	13.6829139072848	6.6235761589404	7.22437086092715				0.788026490066225	0.243496688741722	0.901933774834437	22.6317880794702	2.57192052980133	9.46251655629139				0.543788079470199	-0.622834437086093	-0.724238410596026	41.4603973509934	-28.9623841059603	-2.99470198675497			
73	1460	0.439841059602649	0.178754966887417	-0.727523178807947	53.5133774834437	126.135364238411	17.0150993377483				0.736953642384106	-0.112211920529801	1.02113907284768	-10.4860927152318	31.3878145695364	-3.94596026490066				0.405827814569536	-0.337271523178808	-0.74394701986755	-2.51258278145695	121.106490066225	-20.6402649006623				0.816529801324503	0.0474701986754967	-0.629721854304636	19.0029139072848	11.1035761589404	8.90437086092715				0.756026490066225	0.259496688741722	0.901933774834437	45.3117880794702	-92.0680794701987	29.9025165562914				0.527788079470199	-0.574834437086093	-0.644238410596026	20.7403973509934	-22.2423841059603	-4.95470198675497			
74	1480	0.503841059602649	0.114754966887417	-0.743523178807947	56.3133774834437	123.895364238411	15.6150993377483				0.704953642384106	-0.0642119205298013	0.861139072847682	-0.406092715231788	14.0278145695364	-6.18596026490066				0.469827814569536	-0.353271523178808	-0.71194701986755	-8.67258278145695	124.746490066225	-17.2802649006623				0.736529801324503	0.191470198675497	-0.517721854304636	11.4429139072848	38.5435761589404	1.06437086092715				0.788026490066225	0.211496688741722	0.789933774834437	-22.1682119205298	-116.988079470199	36.9025165562914				0.511788079470199	-0.510834437086093	-0.788238410596027	15.7003973509934	-12.1623841059603	-2.99470198675497			
75	1500	0.583841059602649	0.0347549668874172	-0.775523178807947	46.2333774834437	123.895364238411	11.9750993377483				0.624953642384106	-0.000211920529801304	0.813139072847682	1.27390728476821	15.7078145695364	-3.94596026490066				0.517827814569536	-0.305271523178808	-0.69594701986755	-20.432582781457	129.506490066225	-15.3202649006623				0.816529801324503	0.111470198675497	-0.485721854304636	30.7629139072848	48.6235761589404	-5.65562913907285				0.580026490066225	0.0674966887417219	0.325933774834437	-83.2082119205298	-90.1080794701987	34.1025165562914				0.559788079470199	-0.542834437086093	-0.660238410596027	45.6603973509934	-8.52238410596027	-10.554701986755			
76	1520	0.647841059602649	0.0827549668874172	-0.759523178807947	30.5533774834437	120.815364238411	8.61509933774835				0.560953642384106	-0.000211920529801304	0.909139072847682	-9.92609271523179	31.9478145695364	-1.42596026490066				0.565827814569536	-0.225271523178808	-0.67994701986755	-18.472582781457	134.266490066225	-15.8802649006623				0.832529801324503	0.0474701986754967	-0.517721854304636	36.9229139072848	38.8235761589404	1.90437086092715				0.500026490066225	0.0834966887417219	0.629933774834437	-45.9682119205298	-54.5480794701987	3.86251655629139				0.575788079470199	-0.494834437086093	-0.580238410596026	24.1003973509934	-9.36238410596027	-5.79470198675497			
77	1540	0.663841059602649	0.114754966887417	-0.631523178807947	28.0333774834437	121.375364238411	4.97509933774835				0.464953642384106	-0.128211920529801	0.957139072847682	0.993907284768212	38.3878145695364	1.93403973509934				0.613827814569536	-0.193271523178808	-0.58394701986755	-8.11258278145695	136.226490066225	-17.2802649006623				0.880529801324503	0.159470198675497	-0.517721854304636	15.6429139072848	52.5435761589404	-11.2556291390728				0.852026490066225	0.195496688741722	0.661933774834437	-23.5682119205298	-23.4680794701987	-5.09748344370861				0.543788079470199	-0.478834437086093	-0.612238410596026	23.5403973509934	-10.2023841059603	-4.11470198675497			
78	1560	0.695841059602649	0.0667549668874172	-0.551523178807947	33.0733774834437	119.135364238411	0.495099337748344				0.576953642384106	-0.192211920529801	0.957139072847682	20.0339072847682	19.9078145695364	4.17403973509934				0.645827814569536	-0.177271523178808	-0.55194701986755	-3.35258278145695	125.026490066225	-14.7602649006622				0.864529801324503	0.287470198675497	-0.261721854304636	-1.43708609271523	56.1835761589404	-11.2556291390728				0.740026490066225	0.131496688741722	0.677933774834437	-26.0882119205298	-0.788079470198675	-4.25748344370861				0.479788079470199	-0.478834437086093	-0.548238410596027	45.9403973509934	-9.08238410596027	-2.15470198675497			
79	1580	0.711841059602649	0.0187549668874172	-0.551523178807947	30.5533774834437	116.895364238411	-2.58490066225166				0.512953642384106	-0.160211920529801	0.845139072847682	17.2339072847682	-11.4521854304636	6.69403973509934				0.677827814569536	-0.177271523178808	-0.51994701986755	0.847417218543046	119.706490066225	-11.6802649006622				0.880529801324503	0.127470198675497	-0.325721854304636	28.2429139072848	41.6235761589404	-7.05562913907285				0.788026490066225	0.0994966887417219	0.549933774834437	-17.6882119205298	10.6919205298013	0.782516556291392				0.415788079470199	-0.542834437086093	-0.500238410596026	23.8203973509934	9.11761589403974	5.68529801324503			
80	1600	0.679841059602649	0.0507549668874172	-0.503523178807947	19.3533774834437	117.735364238411	-4.54490066225166				0.400953642384106	-0.128211920529801	0.749139072847682	0.993907284768212	-11.7321854304636	-0.30596026490066				0.677827814569536	-0.193271523178808	-0.50394701986755	7.56741721854305	120.266490066225	-9.44026490066225				0.976529801324503	-0.0165298013245033	-0.485721854304636	54.0029139072848	28.1835761589404	2.46437086092715				0.660026490066225	0.0994966887417219	0.565933774834437	-6.2082119205298	15.1719205298013	11.7025165562914				0.463788079470199	-0.494834437086093	-0.548238410596027	22.4203973509934	18.6376158940397	2.04529801324503			
81	1620	0.743841059602649	0.0507549668874172	-0.407523178807947	12.6333774834437	122.495364238411	-9.02490066225166				0.400953642384106	0.0637880794701987	0.749139072847682	-4.88609271523179	2.54781456953642	0.25403973509934				0.741827814569536	-0.193271523178808	-0.47194701986755	13.167417218543	129.506490066225	-11.1202649006623				0.880529801324503	-0.0965298013245033	-0.485721854304636	19.2829139072848	26.7835761589404	-0.335629139072848				0.628026490066225	0.0674966887417219	0.533933774834437	-8.4482119205298	12.3719205298013	10.0225165562914				0.447788079470199	-0.414834437086093	-0.516238410596026	34.1803973509934	9.95761589403974	-0.754701986754968			
82	1640	0.823841059602649	0.0667549668874172	-0.407523178807947	19.3533774834437	124.175364238411	-11.5449006622517				0.432953642384106	-0.0802119205298013	0.797139072847682	13.0339072847682	1.14781456953642	11.1740397350993				0.789827814569536	-0.241271523178808	-0.37594701986755	12.887417218543	135.946490066225	-17.0002649006623				0.688529801324503	-0.000529801324503289	-0.341721854304636	-7.03708609271523	23.7035761589404	-2.29562913907285				0.500026490066225	0.0674966887417219	0.517933774834437	-9.8482119205298	-0.788079470198675	7.22251655629139				0.351788079470199	-0.510834437086093	-0.468238410596026	36.9803973509934	14.7176158940397	-2.43470198675497			
83	1660	0.887841059602649	0.0347549668874172	-0.471523178807947	19.9133774834437	120.815364238411	-10.7049006622517				0.384953642384106	-0.0962119205298013	0.685139072847682	33.1939072847682	-21.5321854304636	11.1740397350993				0.789827814569536	-0.241271523178808	-0.27994701986755	15.127417218543	131.466490066225	-24.5602649006623				0.688529801324503	0.143470198675497	-0.261721854304636	-9.83708609271523	27.9035761589404	-3.97562913907285				0.660026490066225	0.0194966887417219	0.533933774834437	-7.3282119205298	-7.22807947019868	0.782516556291392				0.431788079470199	-0.510834437086093	-0.420238410596026	24.9403973509934	8.55761589403974	-6.35470198675497			
84	1680	0.823841059602649	0.00275496688741723	-0.407523178807947	30.2733774834437	118.855364238411	-12.3849006622517				0.304953642384106	-0.144211920529801	0.669139072847682	30.3939072847682	-24.8921854304636	13.4140397350993				0.693827814569536	-0.145271523178808	-0.27994701986755	-5.87258278145695	118.306490066225	-26.8002649006623				0.752529801324503	0.127470198675497	-0.197721854304636	8.36291390728477	26.5035761589404	-2.85562913907285				0.580026490066225	0.0354966887417219	0.549933774834437	-4.8082119205298	-1.06807947019868	0.782516556291392				0.447788079470199	-0.478834437086093	-0.420238410596026	14.3003973509934	4.63761589403974	-2.99470198675497			
85	1700	0.743841059602649	-0.0132450331125828	-0.375523178807947	25.5133774834437	111.575364238411	-12.6649006622517				0.288953642384106	-0.112211920529801	0.749139072847682	18.0739072847682	-12.2921854304636	9.21403973509934				0.677827814569536	-0.0972715231788079	-0.19994701986755	-7.83258278145695	104.866490066225	-19.5202649006623				0.736529801324503	0.127470198675497	-0.181721854304636	26.8429139072848	29.5835761589404	-8.17562913907285				0.660026490066225	0.0194966887417219	0.549933774834437	-5.9282119205298	-0.228079470198675	-1.17748344370861				0.447788079470199	-0.446834437086093	-0.452238410596026	15.9803973509934	2.95761589403974	-1.87470198675497			
86	1720	0.695841059602649	-0.0612450331125828	-0.359523178807947	17.6733774834437	108.495364238411	-13.2249006622517				0.384953642384106	-0.112211920529801	0.749139072847682	13.8739072847682	-19.5721854304636	8.65403973509934				0.757827814569536	-0.0492715231788079	-0.19994701986755	0.00741721854304636	102.626490066225	-17.0002649006623				0.752529801324503	0.0954701986754967	-0.181721854304636	38.6029139072848	20.3435761589404	-8.73562913907285				0.596026490066225	0.0194966887417219	0.565933774834437	-2.0082119205298	-3.58807947019868	-0.897483443708608				0.447788079470199	-0.526834437086093	-0.436238410596026	15.4203973509934	-0.682384105960265	-2.15470198675497			
87	1740	0.695841059602649	-0.0452450331125828	-0.327523178807947	13.1933774834437	106.815364238411	-9.30490066225166				0.384953642384106	-0.144211920529801	0.621139072847682	9.67390728476821	-31.0521854304636	9.77403973509934				0.821827814569536	-0.0972715231788079	-0.23194701986755	12.047417218543	99.8264900662252	-20.9202649006623				0.816529801324503	0.0794701986754967	-0.245721854304636	41.9629139072848	11.9435761589404	-0.895629139072848				0.596026490066225	0.0514966887417219	0.565933774834437	0.511788079470198	-9.18807947019868	-0.617483443708608				0.447788079470199	-0.590834437086093	-0.452238410596026	14.3003973509934	0.717615894039735	0.365298013245032			
88	1760	0.647841059602649	-0.0772450331125828	-0.295523178807947	1.71337748344371	111.295364238411	-1.46490066225166				0.368953642384106	-0.112211920529801	0.605139072847682	9.39390728476821	-22.3721854304636	8.37403973509934				0.789827814569536	-0.161271523178808	-0.27994701986755	17.087417218543	91.4264900662252	-24.0002649006623				0.816529801324503	0.0314701986754967	-0.309721854304636	42.5229139072848	12.5035761589404	-3.97562913907285				0.612026490066225	-0.0125033112582781	0.549933774834437	-5.3682119205298	-13.1080794701987	-1.45748344370861				0.463788079470199	-0.510834437086093	-0.436238410596026	11.7803973509934	-12.7223841059603	0.365298013245032			
89	1780	0.711841059602649	-0.109245033112583	-0.215523178807947	2.83337748344371	114.655364238411	-0.624900662251656				0.416953642384106	-0.0482119205298013	0.701139072847682	8.83390728476821	-13.4121854304636	4.73403973509934				0.773827814569536	-0.177271523178808	-0.24794701986755	15.687417218543	88.0664900662252	-24.8402649006623				0.688529801324503	-0.0805298013245033	-0.277721854304636	25.1629139072848	7.7435761589404	-11.5356291390728				0.596026490066225	0.0194966887417219	0.517933774834437	-3.1282119205298	-9.74807947019868	1.06251655629139				0.463788079470199	-0.398834437086093	-0.356238410596026	15.7003973509934	-25.6023841059603	0.645298013245032			
90	1800	0.823841059602649	-0.0612450331125828	-0.215523178807947	4.51337748344371	115.495364238411	1.89509933774834				0.432953642384106	-0.144211920529801	0.781139072847682	17.5139072847682	-15.9321854304636	3.61403973509934				0.773827814569536	-0.193271523178808	-0.23194701986755	10.087417218543	80.2264900662252	-24.2802649006623				0.640529801324503	-0.000529801324503289	-0.277721854304636	17.8829139072848	5.5035761589404	-7.89562913907285				0.500026490066225	0.0834966887417219	0.533933774834437	-8.4482119205298	-8.90807947019868	0.782516556291392				0.335788079470199	-0.478834437086093	-0.340238410596026	10.9403973509934	-21.1223841059603	-1.31470198675497			
91	1820	0.951841059602649	-0.0612450331125828	-0.391523178807947	-7.24662251655629	108.215364238411	7.77509933774834				0.368953642384106	-0.128211920529801	0.797139072847682	16.3939072847682	-21.2521854304636	5.85403973509934				0.789827814569536	-0.177271523178808	-0.21594701986755	-11.752582781457	76.8664900662252	-23.7202649006623				0.768529801324503	0.159470198675497	-0.229721854304636	27.1229139072848	5.5035761589404	-2.01562913907285				0.596026490066225	0.0674966887417219	0.597933774834437	-10.6882119205298	-10.5880794701987	1.90251655629139				0.495788079470199	-0.574834437086093	-0.404238410596026	-7.25960264900662	-16.0823841059603	-4.67470198675497			
92	1840	0.919841059602649	-0.0772450331125828	-0.295523178807947	-23.4866225165563	104.015364238411	18.9750993377483				0.352953642384106	-0.0162119205298013	0.733139072847682	11.0739072847682	-23.4921854304636	3.33403973509934				0.837827814569536	-0.161271523178808	-0.18394701986755	-21.832582781457	79.9464900662252	-26.8002649006623				0.848529801324503	0.111470198675497	-0.197721854304636	42.8029139072848	0.1835761589404	-0.615629139072848				0.628026490066225	0.147496688741722	0.549933774834437	-11.5282119205298	-2.74807947019868	3.86251655629139				0.511788079470199	-0.494834437086093	-0.356238410596026	12.6203973509934	-21.9623841059603	-5.51470198675497			
93	1860	0.919841059602649	0.0347549668874172	-0.199523178807947	-16.2066225165563	104.855364238411	16.4550993377483				0.464953642384106	-0.000211920529801304	0.813139072847682	7.99390728476821	-9.77218543046358	1.93403973509934				0.853827814569536	-0.177271523178808	-0.15194701986755	-22.392582781457	78.8264900662252	-27.0802649006623				0.816529801324503	-0.000529801324503289	-0.341721854304636	60.7229139072848	-2.6164238410596	-1.45562913907285				0.660026490066225	0.179496688741722	0.517933774834437	-7.0482119205298	2.01192052980133	4.98251655629139				0.495788079470199	-0.382834437086093	-0.372238410596026	12.3403973509934	-7.68238410596027	-12.794701986755			
94	1880	0.887841059602649	0.162754966887417	-0.135523178807947	-7.24662251655629	100.095364238411	9.45509933774835				0.528953642384106	-0.0802119205298013	0.893139072847682	8.83390728476821	-13.1321854304636	7.53403973509934				0.981827814569536	-0.225271523178808	-0.13594701986755	-12.592582781457	73.2264900662252	-22.3202649006623				0.752529801324503	0.0474701986754967	-0.469721854304636	38.3229139072848	-3.7364238410596	-6.49562913907285				0.580026490066225	0.179496688741722	0.533933774834437	-3.1282119205298	-3.02807947019868	6.10251655629139				0.527788079470199	-0.446834437086093	-0.276238410596026	24.1003973509934	6.31761589403974	-23.714701986755			
95	1900	0.823841059602649	0.242754966887417	-0.00752317880794696	0.593377483443709	94.2153642384106	8.61509933774835				0.416953642384106	-0.0322119205298013	0.781139072847682	2.39390728476821	-30.4921854304636	9.77403973509934				0.981827814569536	-0.273271523178808	-0.0399470198675496	1.40741721854305	71.5464900662252	-16.4402649006623				0.832529801324503	-0.000529801324503289	-0.373721854304636	12.2829139072848	1.0235761589404	-9.29562913907285				0.516026490066225	0.0834966887417219	0.549933774834437	-1.1682119205298	-2.74807947019868	3.86251655629139				0.463788079470199	-0.526834437086093	-0.388238410596026	17.3803973509934	14.1576158940397	-23.714701986755			
96	1920	0.791841059602649	0.242754966887417	0.056476821192053	11.7933774834437	86.0953642384106	2.45509933774835				0.448953642384106	0.0637880794701987	0.829139072847682	-8.52609271523179	-27.9721854304636	18.4540397350993				0.949827814569536	-0.273271523178808	-0.0399470198675496	0.287417218543046	65.9464900662252	-10.2802649006622				0.768529801324503	-0.112529801324503	-0.309721854304636	0.802913907284768	-6.8164238410596	-2.57562913907285				0.644026490066225	0.0354966887417219	0.421933774834437	10.0317880794702	-3.30807947019868	6.10251655629139				0.479788079470199	-0.542834437086093	-0.388238410596026	10.9403973509934	20.8776158940397	-9.71470198675497			
97	1940	0.951841059602649	0.130754966887417	0.024476821192053	11.7933774834437	88.0553642384106	-1.74490066225166				0.544953642384106	0.0477880794701987	0.861139072847682	-6.28609271523179	-24.8921854304636	16.4940397350993				0.965827814569536	-0.257271523178808	-0.0399470198675496	-5.03258278145695	57.8264900662252	-1.04026490066225				0.480529801324503	-0.0485298013245033	-0.293721854304636	0.242913907284768	1.3035761589404	3.58437086092715				0.804026490066225	-0.0285033112582781	0.405933774834437	11.1517880794702	-4.70807947019868	13.6625165562914				0.543788079470199	-0.478834437086093	-0.372238410596026	7.86039735099338	5.47761589403974	-7.47470198675497			
98	1960	0.999841059602649	0.114754966887417	-0.039523178807947	15.4333774834437	72.9353642384106	-3.70490066225166				0.400953642384106	-0.0802119205298013	0.701139072847682	9.39390728476821	-30.2121854304636	7.53403973509934				0	0	0	0	0	0				0.416529801324503	0.0634701986754967	-0.373721854304636	5.56291390728477	18.3835761589404	1.34437086092715				0.676026490066225	-0.0285033112582781	0.517933774834437	-1.7282119205298	-5.82807947019868	15.3425165562914				0.431788079470199	-0.494834437086093	-0.532238410596027	5.90039735099338	4.35761589403974	-8.87470198675497			
99	1980	0	0	0	0	0	0				0	0	0	0	0	0				0.917827814569536	-0.145271523178808	-0.00794701986754963	-17.912582781457	49.9864900662252	7.91973509933775				0.624529801324503	-0.0165298013245033	-0.277721854304636	6.68291390728477	25.6635761589404	4.14437086092715				0.676026490066225	0.00349668874172187	0.549933774834437	-10.1282119205298	-2.18807947019868	8.62251655629139				0.335788079470199	-0.686834437086093	-0.644238410596026	1.42039735099338	6.87761589403974	15.205298013245			
100	2000	0.983841059602649	0.0667549668874172	-0.151523178807947	-0.806622516556291	53.0553642384106	0.215099337748344				0.512953642384106	-0.112211920529801	0.893139072847682	-5.44609271523179	13.7478145695364	4.45403973509934				0.933827814569536	-0.0652715231788079	-0.0239470198675496	-21.552582781457	33.1864900662252	7.07973509933775				0.816529801324503	-0.128529801324503	-0.277721854304636	12.5629139072848	18.9435761589404	22.3443708609272				0.740026490066225	-0.0285033112582781	0.581933774834437	-9.5682119205298	0.0519205298013249	8.90251655629139				0.479788079470199	-0.526834437086093	-0.628238410596026	-17.3396026490066	-0.682384105960265	28.925298013245			
101	2020	1.01584105960265	0.00275496688741723	-0.103523178807947	-3.88662251655629	47.7353642384106	0.215099337748344				0.560953642384106	-0.112211920529801	0.877139072847682	-5.44609271523179	-4.17218543046358	1.65403973509934				1.02982781456954	-0.0332715231788079	-0.0559470198675496	-16.792582781457	23.1064900662252	5.67973509933775				0.992529801324503	-0.0325298013245033	-0.325721854304636	24.8829139072848	18.3835761589404	27.9443708609272				0.804026490066225	0.00349668874172187	0.549933774834437	-12.3682119205298	-1.90807947019868	8.34251655629139				0.495788079470199	-0.446834437086093	-0.612238410596026	-11.1796026490066	-10.4823841059603	22.485298013245			
102	2040	1.06384105960265	-0.0452450331125828	-0.103523178807947	0.313377483443709	37.6553642384106	-2.86490066225166				0.512953642384106	-0.144211920529801	0.685139072847682	-2.64609271523179	-8.09218543046358	0.25403973509934				1.01382781456954	-0.0332715231788079	0.00805298013245037	-2.79258278145695	10.5064900662252	2.87973509933775				1.0085298013245	0.0634701986754967	-0.405721854304636	16.7629139072848	8.8635761589404	23.4643708609272				0.724026490066225	0.0994966887417219	0.597933774834437	-15.7282119205298	-3.58807947019868	11.9825165562914				0.447788079470199	-0.526834437086093	-0.532238410596027	16.2603973509934	-19.1623841059603	9.88529801324503			
103	2060	1.01584105960265	-0.0772450331125828	-0.055523178807947	-14.2466225165563	23.3753642384106	-4.26490066225166				0.592953642384106	-0.176211920529801	0.701139072847682	-2.92609271523179	23.5478145695364	1.09403973509934				0.965827814569536	-0.0972715231788079	-0.0559470198675496	13.447417218543	0.426490066225167	1.75973509933775				0.976529801324503	-0.0325298013245033	-0.325721854304636	4.72291390728477	-0.0964238410596001	17.0243708609272				0.724026490066225	0.0674966887417219	0.629933774834437	-11.8082119205298	-4.42807947019868	11.4225165562914				0.431788079470199	-0.686834437086093	-0.580238410596026	-3.89960264900662	-17.4823841059603	8.76529801324503			
104	2080	0.967841059602649	-0.125245033112583	-0.039523178807947	-32.7266225165563	17.4953642384106	0.495099337748344				0.608953642384106	-0.0962119205298013	0.957139072847682	-2.36609271523179	31.1078145695364	4.45403973509934				0.933827814569536	-0.177271523178808	-0.10394701986755	14.007417218543	0.146490066225167	1.75973509933775				0.944529801324503	-0.0165298013245033	-0.261721854304636	-7.03708609271523	1.3035761589404	4.70437086092715				0.788026490066225	0.0194966887417219	0.613933774834437	-6.2082119205298	0.331920529801325	10.5825165562914				0.527788079470199	-0.606834437086093	-0.580238410596026	-2.49960264900662	-18.3223841059603	4.84529801324503			
105	2100	0.983841059602649	0.00275496688741723	-0.055523178807947	-26.2866225165563	12.7353642384106	1.61509933774834				0.672953642384106	-0.0482119205298013	0.957139072847682	-2.08609271523179	7.86781456953642	5.85403973509934				0.933827814569536	-0.177271523178808	-0.11994701986755	-2.79258278145695	2.66649006622517	1.47973509933775				0.912529801324503	0.0954701986754967	-0.229721854304636	15.3629139072848	19.5035761589404	0.224370860927152				0.804026490066225	0.0194966887417219	0.565933774834437	-1.4482119205298	2.01192052980133	11.4225165562914				0.543788079470199	-0.558834437086093	-0.580238410596026	22.1403973509934	-24.2023841059603	-0.194701986754968			
106	2120	0.967841059602649	0.0827549668874172	-0.00752317880794696	-12.0066225165563	6.5753642384106	-1.74490066225166				0.656953642384106	-0.112211920529801	0.781139072847682	3.51390728476821	-17.3321854304636	3.33403973509934				0.949827814569536	-0.129271523178808	-0.0879470198675496	-15.112582781457	4.06649006622517	-1.88026490066225				0.848529801324503	0.0154701986754967	-0.293721854304636	41.1229139072848	18.6635761589404	1.62437086092715				0.772026490066225	0.0354966887417219	0.581933774834437	1.0717880794702	-1.06807947019868	12.2625165562914				0.575788079470199	-0.686834437086093	-0.548238410596027	43.7003973509934	-14.1223841059603	-4.67470198675497			
107	2140	0.935841059602649	0.0507549668874172	0.024476821192053	-0.246622516556291	1.2553642384106	-3.42490066225166				0.624953642384106	-0.144211920529801	0.717139072847682	-1.80609271523179	-0.252185430463576	0.25403973509934				0.933827814569536	-0.161271523178808	-0.10394701986755	-11.192582781457	4.06649006622517	-5.52026490066225				0.864529801324503	-0.112529801324503	-0.453721854304636	48.4029139072848	7.7435761589404	9.18437086092715				0.804026490066225	0.0194966887417219	0.613933774834437	-4.8082119205298	-4.14807947019868	12.8225165562914				0.511788079470199	-0.654834437086093	-0.548238410596027	27.7403973509934	-10.7623841059603	-0.194701986754968			
108	2160	0.951841059602649	-0.0132450331125828	0.040476821192053	-0.526622516556291	2.3753642384106	-2.30490066225166				0.672953642384106	-0.128211920529801	0.781139072847682	-10.7660927152318	17.1078145695364	0.25403973509934				0.949827814569536	-0.193271523178808	-0.0879470198675496	-8.95258278145695	1.54649006622517	-3.84026490066225				0.944529801324503	-0.224529801324503	-0.485721854304636	31.0429139072848	-0.3764238410596	11.4243708609272				0.788026490066225	0.0194966887417219	0.597933774834437	-8.1682119205298	-4.14807947019868	12.2625165562914				0.495788079470199	-0.638834437086093	-0.564238410596026	18.2203973509934	-7.96238410596027	2.60529801324503			
109	2180	0.935841059602649	0.00275496688741723	0.024476821192053	-3.32662251655629	4.8953642384106	0.215099337748344				0.672953642384106	-0.0322119205298013	0.829139072847682	-6.28609271523179	21.3078145695364	3.05403973509934				0.949827814569536	-0.161271523178808	-0.11994701986755	-8.11258278145695	-2.09350993377483	-3.00026490066225				0.992529801324503	-0.176529801324503	-0.469721854304636	8.36291390728477	-1.7764238410596	9.74437086092715				0.788026490066225	0.0194966887417219	0.549933774834437	-7.3282119205298	-4.42807947019868	11.7025165562914				0.479788079470199	-0.638834437086093	-0.500238410596026	20.4603973509934	-6.84238410596027	3.72529801324503			
110	2200	0.983841059602649	0.00275496688741723	0.024476821192053	1.99337748344371	2.3753642384106	-0.0649006622516557				0.656953642384106	0.0157880794701987	0.877139072847682	-0.966092715231788	9.82781456953643	5.85403973509934				0.901827814569536	-0.0972715231788079	-0.11994701986755	-6.99258278145695	-3.49350993377483	-1.60026490066225				0.960529801324503	-0.0965298013245033	-0.389721854304636	-1.99708609271523	3.8235761589404	6.94437086092715				0.836026490066225	0.0674966887417219	0.549933774834437	-2.8482119205298	-6.10807947019868	10.3025165562914				0.479788079470199	-0.638834437086093	-0.516238410596026	13.7403973509934	-5.16238410596027	5.96529801324503			
111	2220	1.01584105960265	0.0187549668874172	0.024476821192053	4.23337748344371	-0.984635761589404	-2.30490066225166				0.608953642384106	-0.000211920529801304	0.829139072847682	4.07390728476821	-3.33218543046358	8.09403973509934				0.917827814569536	-0.0812715231788079	-0.15194701986755	-0.832582781456954	-2.37350993377483	-0.76026490066225				0.944529801324503	-0.0645298013245033	-0.389721854304636	5.56291390728477	6.0635761589404	3.58437086092715				0.836026490066225	0.0354966887417219	0.565933774834437	-2.0082119205298	-6.38807947019868	7.50251655629139				0.463788079470199	-0.638834437086093	-0.548238410596027	9.82039735099338	-2.64238410596027	5.68529801324503			
112	2240	1.01584105960265	0.0347549668874172	0.040476821192053	3.67337748344371	-4.6246357615894	-2.30490066225166				0.624953642384106	-0.0962119205298013	0.781139072847682	6.59390728476821	6.18781456953642	8.93403973509934				0.981827814569536	-0.0972715231788079	-0.10394701986755	7.56741721854305	-0.973509933774833	-0.76026490066225				0.944529801324503	-0.0965298013245033	-0.389721854304636	4.44291390728477	3.5435761589404	3.30437086092715				0.820026490066225	0.0194966887417219	0.581933774834437	0.231788079470198	-5.26807947019868	5.82251655629139				0.447788079470199	-0.622834437086093	-0.612238410596026	-7.25960264900662	-4.04238410596027	7.92529801324503			
113	2260	0.967841059602649	0.0507549668874172	0.056476821192053	9.27337748344371	-3.2246357615894	1.33509933774834				0.640953642384106	-0.0962119205298013	0.813139072847682	1.83390728476821	11.5078145695364	6.13403973509934				0.997827814569536	-0.113271523178808	-0.0879470198675496	12.327417218543	-0.693509933774834	-0.48026490066225				0.960529801324503	-0.112529801324503	-0.373721854304636	-0.317086092715232	2.1435761589404	2.18437086092715				0.820026490066225	0.00349668874172187	0.533933774834437	3.5917880794702	-3.30807947019868	5.26251655629139				0.431788079470199	-0.622834437086093	-0.612238410596026	-3.33960264900662	-4.88238410596027	5.12529801324503			
114	2280	0.935841059602649	0.0507549668874172	-0.023523178807947	11.5133774834437	-2.1046357615894	-0.344900662251656				0.656953642384106	-0.0642119205298013	0.877139072847682	4.07390728476821	4.22781456953642	5.85403973509934				1.01382781456954	-0.161271523178808	-0.0879470198675496	12.047417218543	-2.09350993377483	-0.76026490066225				0.896529801324503	-0.128529801324503	-0.357721854304636	-2.55708609271523	1.5835761589404	1.90437086092715				0.820026490066225	0.00349668874172187	0.501933774834437	6.6717880794702	-1.90807947019868	5.54251655629139				0.431788079470199	-0.606834437086093	-0.596238410596026	7.86039735099338	-5.16238410596027	2.32529801324503			
115	2300	0.967841059602649	0.0347549668874172	-0.071523178807947	5.91337748344371	-4.3446357615894	-3.14490066225166				0.656953642384106	-0.0962119205298013	0.829139072847682	8.55390728476821	-8.93218543046358	7.25403973509934				0.981827814569536	-0.161271523178808	-0.0559470198675496	11.487417218543	-4.05350993377483	-0.76026490066225				0.816529801324503	-0.128529801324503	-0.405721854304636	5.56291390728477	2.9835761589404	-0.0556291390728476				0.852026490066225	-0.0125033112582781	0.517933774834437	10.0317880794702	-2.18807947019868	5.26251655629139				0.399788079470199	-0.638834437086093	-0.564238410596026	11.7803973509934	-1.80238410596026	1.48529801324503			
116	2320	1.01584105960265	0.0187549668874172	-0.023523178807947	9.55337748344371	-6.0246357615894	-4.54490066225166				0.624953642384106	-0.128211920529801	0.765139072847682	6.59390728476821	-12.0121854304636	7.53403973509934				0.965827814569536	-0.145271523178808	-0.0719470198675496	7.56741721854305	-4.61350993377483	-1.88026490066225				0.800529801324503	-0.112529801324503	-0.421721854304636	9.48291390728477	8.8635761589404	-2.57562913907285				0.868026490066225	-0.0125033112582781	0.533933774834437	4.9917880794702	-4.42807947019868	3.02251655629139				0.399788079470199	-0.654834437086093	-0.628238410596026	2.82039735099338	0.717615894039735	-0.194701986754968			
117	2340	0.999841059602649	0.0347549668874172	0.072476821192053	6.19337748344371	-2.1046357615894	-3.42490066225166				0.672953642384106	-0.128211920529801	0.781139072847682	-1.24609271523179	4.22781456953642	3.89403973509934				0.981827814569536	-0.161271523178808	-0.0559470198675496	0.287417218543046	-4.61350993377483	-1.04026490066225				0.928529801324503	-0.128529801324503	-0.405721854304636	10.0429139072848	5.7835761589404	-2.57562913907285				0.852026490066225	-0.0125033112582781	0.517933774834437	1.3517880794702	-3.58807947019868	5.26251655629139				0.383788079470199	-0.622834437086093	-0.644238410596026	2.26039735099338	-1.24238410596026	0.365298013245032			
118	2360	0.967841059602649	0.0507549668874172	0.120476821192053	3.11337748344371	4.0553642384106	-2.58490066225166				0.688953642384106	-0.112211920529801	0.861139072847682	-0.686092715231788	6.18781456953642	2.21403973509934				0.997827814569536	-0.145271523178808	-0.0399470198675496	-1.67258278145695	-5.17350993377483	-2.16026490066225				0.960529801324503	-0.224529801324503	-0.405721854304636	10.0429139072848	-3.7364238410596	-0.335629139072848				0.820026490066225	-0.0125033112582781	0.485933774834437	7.2317880794702	0.0519205298013249	6.94251655629139				0.415788079470199	-0.622834437086093	-0.612238410596026	7.30039735099338	1.55761589403974	-1.59470198675497			
119	2380	0.983841059602649	0.0187549668874172	0.024476821192053	6.75337748344371	5.4553642384106	-3.14490066225166				0.656953642384106	-0.0802119205298013	0.829139072847682	5.75390728476821	-5.85218543046358	3.33403973509934				0.965827814569536	-0.129271523178808	-0.0719470198675496	-1.67258278145695	-5.73350993377484	-1.60026490066225				0.864529801324503	-0.144529801324503	-0.405721854304636	3.60291390728477	-4.5764238410596	0.784370860927152				0.852026490066225	0.00349668874172187	0.485933774834437	10.0317880794702	-1.06807947019868	7.22251655629139				0.367788079470199	-0.606834437086093	-0.596238410596026	6.18039735099338	2.39761589403974	-1.87470198675497			
120	2400	0.999841059602649	0.0187549668874172	-0.055523178807947	1.15337748344371	-2.1046357615894	-4.26490066225166				0.592953642384106	-0.0482119205298013	0.765139072847682	9.67390728476821	-5.29218543046358	4.45403973509934				0.933827814569536	-0.129271523178808	-0.0879470198675496	-2.23258278145695	-3.49350993377483	-1.04026490066225				0.800529801324503	-0.112529801324503	-0.389721854304636	2.20291390728477	-4.5764238410596	0.784370860927152				0.836026490066225	-0.0285033112582781	0.485933774834437	9.7517880794702	-3.58807947019868	4.98251655629139				0.367788079470199	-0.606834437086093	-0.596238410596026	1.98039735099338	0.997615894039735	0.0852980132450323			
121	2420	0.967841059602649	0.0347549668874172	-0.103523178807947	1.15337748344371	-8.82463576158941	-4.26490066225166				0.592953642384106	-0.0642119205298013	0.749139072847682	8.27390728476821	3.38781456953642	4.73403973509934				0.933827814569536	-0.0972715231788079	-0.0719470198675496	3.08741721854305	-1.25350993377483	-1.04026490066225				0.800529801324503	-0.144529801324503	-0.389721854304636	5.84291390728477	-2.3364238410596	-0.895629139072848				0.836026490066225	-0.0125033112582781	0.501933774834437	7.2317880794702	-1.06807947019868	2.74251655629139				0.383788079470199	-0.622834437086093	-0.612238410596026	-6.97960264900662	-4.60238410596027	2.60529801324503			
122	2440	0.935841059602649	0.0187549668874172	0.00847682119205304	-1.64662251655629	-5.7446357615894	0.775099337748344				0.640953642384106	-0.0802119205298013	0.797139072847682	6.59390728476821	11.2278145695364	3.61403973509934				0.917827814569536	-0.113271523178808	-0.0719470198675496	7.28741721854305	-1.25350993377483	-1.04026490066225				0.832529801324503	-0.192529801324503	-0.389721854304636	6.12291390728477	2.4235761589404	-0.0556291390728476				0.868026490066225	-0.0125033112582781	0.485933774834437	4.4317880794702	-1.62807947019868	2.18251655629139				0.415788079470199	-0.638834437086093	-0.660238410596027	-11.1796026490066	-11.0423841059603	1.20529801324503			
123	2460	0.951841059602649	0.0507549668874172	0.088476821192053	3.11337748344371	1.2553642384106	-0.624900662251656				0.688953642384106	-0.112211920529801	0.829139072847682	1.83390728476821	9.26781456953642	2.21403973509934				0.949827814569536	-0.145271523178808	-0.0719470198675496	8.40741721854305	-1.81350993377483	-1.60026490066225				0.848529801324503	-0.160529801324503	-0.421721854304636	9.48291390728477	5.2235761589404	3.86437086092715				0.852026490066225	-0.0125033112582781	0.485933774834437	3.3117880794702	-1.62807947019868	3.30251655629139				0.383788079470199	-0.638834437086093	-0.676238410596026	-4.17960264900662	-11.0423841059603	0.0852980132450323			
124	2480	0.999841059602649	0.0347549668874172	0.088476821192053	3.95337748344371	8.2553642384106	-2.30490066225166				0.688953642384106	-0.144211920529801	0.829139072847682	3.23390728476821	2.54781456953642	3.05403973509934				0.997827814569536	-0.177271523178808	-0.0719470198675496	6.44741721854305	1.82649006622517	-0.76026490066225				0.864529801324503	-0.0965298013245033	-0.421721854304636	13.6829139072848	5.7835761589404	6.10437086092715				0.836026490066225	-0.0125033112582781	0.517933774834437	1.6317880794702	-2.46807947019868	3.02251655629139				0.399788079470199	-0.654834437086093	-0.644238410596026	4.22039735099338	-3.48238410596027	-0.194701986754968			
125	2500	0.999841059602649	0.0187549668874172	-0.00752317880794696	1.99337748344371	3.7753642384106	-3.98490066225166				0.656953642384106	-0.128211920529801	0.813139072847682	3.23390728476821	2.82781456953642	2.49403973509934				0.997827814569536	-0.177271523178808	-0.0879470198675496	2.24741721854305	4.62649006622517	-0.20026490066225				0.912529801324503	-0.160529801324503	-0.437721854304636	12.5629139072848	-1.4964238410596	3.02437086092715				0.852026490066225	0.00349668874172187	0.517933774834437	0.511788079470198	-2.46807947019868	2.46251655629139				0.399788079470199	-0.638834437086093	-0.612238410596026	7.30039735099338	0.437615894039735	-1.03470198675497			
126	2520	0.967841059602649	0.0347549668874172	-0.055523178807947	-2.76662251655629	-2.1046357615894	-5.38490066225166				0.656953642384106	-0.0802119205298013	0.829139072847682	1.27390728476821	5.90781456953642	1.09403973509934				0.997827814569536	-0.177271523178808	-0.0879470198675496	-0.272582781456954	4.34649006622517	-0.48026490066225				0.896529801324503	-0.160529801324503	-0.437721854304636	0.802913907284768	-5.4164238410596	-1.73562913907285				0.868026490066225	0.00349668874172187	0.533933774834437	-1.1682119205298	-2.18807947019868	1.34251655629139				0.431788079470199	-0.638834437086093	-0.612238410596026	2.82039735099338	1.83761589403974	-2.99470198675497			
127	2540	0.951841059602649	0.00275496688741723	-0.055523178807947	-4.44662251655629	-6.0246357615894	-4.26490066225166				0.640953642384106	-0.0802119205298013	0.877139072847682	-0.966092715231788	2.54781456953642	2.21403973509934				0.965827814569536	-0.177271523178808	-0.10394701986755	-0.552582781456954	2.10649006622517	-1.04026490066225				0.912529801324503	-0.128529801324503	-0.405721854304636	-2.55708609271523	-3.7364238410596	-2.85562913907285				0.836026490066225	0.00349668874172187	0.533933774834437	-2.0082119205298	-1.06807947019868	1.62251655629139				0.447788079470199	-0.622834437086093	-0.596238410596026	0.580397350993377	1.55761589403974	-2.99470198675497			
128	2560	0.999841059602649	0.00275496688741723	0.024476821192053	-1.36662251655629	-2.1046357615894	-0.624900662251656				0.640953642384106	-0.112211920529801	0.845139072847682	-1.24609271523179	-1.65218543046358	3.33403973509934				0.965827814569536	-0.145271523178808	-0.11994701986755	-4.47258278145695	0.986490066225167	0.35973509933775				0.896529801324503	-0.0965298013245033	-0.373721854304636	7.52291390728477	1.8635761589404	-3.97562913907285				0.820026490066225	0.00349668874172187	0.533933774834437	-2.2882119205298	-0.228079470198675	0.782516556291392				0.447788079470199	-0.638834437086093	-0.612238410596026	0.580397350993377	4.07761589403974	-2.71470198675497			
129	2580	0.983841059602649	0.0187549668874172	0.00847682119205304	1.15337748344371	4.0553642384106	0.215099337748344				0.624953642384106	-0.0802119205298013	0.845139072847682	-3.20609271523179	2.26781456953642	3.61403973509934				0.997827814569536	-0.129271523178808	-0.10394701986755	-5.87258278145695	1.82649006622517	0.91973509933775				0.880529801324503	-0.0965298013245033	-0.405721854304636	10.0429139072848	2.4235761589404	-3.13562913907285				0.836026490066225	0.00349668874172187	0.533933774834437	-1.4482119205298	-1.06807947019868	0.222516556291392				0.431788079470199	-0.622834437086093	-0.628238410596026	0.580397350993377	2.67761589403974	-1.03470198675497			
130	2600	0.967841059602649	0.0347549668874172	0.024476821192053	-1.36662251655629	4.0553642384106	0.495099337748344				0.640953642384106	-0.0802119205298013	0.845139072847682	-4.04609271523179	3.94781456953642	2.77403973509934				0.981827814569536	-0.113271523178808	-0.10394701986755	-3.91258278145695	0.426490066225167	1.47973509933775				0.864529801324503	-0.144529801324503	-0.405721854304636	5.28291390728477	-1.4964238410596	-1.45562913907285				0.852026490066225	0.00349668874172187	0.533933774834437	-0.0482119205298018	0.0519205298013249	1.90251655629139				0.463788079470199	-0.606834437086093	-0.612238410596026	0.580397350993377	2.11761589403974	-0.474701986754968			
131	2620	0.967841059602649	0.0667549668874172	0.024476821192053	0.313377483443709	-0.144635761589404	-0.904900662251656				0.624953642384106	-0.0802119205298013	0.829139072847682	-1.24609271523179	1.98781456953642	2.49403973509934				0.949827814569536	-0.113271523178808	-0.10394701986755	0.00741721854304636	-0.413509933774833	0.63973509933775				0.864529801324503	-0.128529801324503	-0.389721854304636	2.20291390728477	-0.9364238410596	-0.895629139072848				0.804026490066225	0.00349668874172187	0.501933774834437	1.6317880794702	0.611920529801325	3.02251655629139				0.431788079470199	-0.654834437086093	-0.612238410596026	1.98039735099338	-0.122384105960265	-0.754701986754968			
132	2640	0.967841059602649	0.0667549668874172	0.00847682119205304	0.593377483443709	-0.704635761589404	-1.74490066225166				0.624953642384106	-0.0482119205298013	0.845139072847682	-0.686092715231788	2.26781456953642	3.61403973509934				0.965827814569536	-0.113271523178808	-0.0879470198675496	1.40741721854305	-0.133509933774833	0.91973509933775				0.848529801324503	-0.144529801324503	-0.389721854304636	1.36291390728477	1.0235761589404	-0.0556291390728476				0.804026490066225	0.00349668874172187	0.517933774834437	1.9117880794702	1.17192052980133	2.74251655629139				0.447788079470199	-0.622834437086093	-0.596238410596026	1.42039735099338	-0.682384105960265	-0.474701986754968			
133	2660	0.951841059602649	0.0667549668874172	0.056476821192053	-0.806622516556291	0.135364238410596	-1.74490066225166				0.608953642384106	-0.0642119205298013	0.813139072847682	-0.126092715231788	1.14781456953642	4.45403973509934				0.949827814569536	-0.113271523178808	-0.0719470198675496	1.68741721854305	-1.81350993377483	-0.20026490066225				0.816529801324503	-0.144529801324503	-0.405721854304636	3.60291390728477	3.2635761589404	0.224370860927152				0.820026490066225	-0.0125033112582781	0.501933774834437	1.3517880794702	1.45192052980132	4.42251655629139				0.431788079470199	-0.606834437086093	-0.580238410596026	6.18039735099338	-2.36238410596027	-0.194701986754968			
134	2680	0.967841059602649	0.0507549668874172	0.088476821192053	3.39337748344371	3.4953642384106	-1.18490066225166				0.624953642384106	-0.0802119205298013	0.813139072847682	0.993907284768212	6.46781456953642	3.33403973509934				0.949827814569536	-0.113271523178808	-0.0559470198675496	3.08741721854305	-0.413509933774833	0.0797350993377501				0.816529801324503	-0.0805298013245033	-0.357721854304636	-0.877086092715232	6.0635761589404	-0.615629139072848				0.836026490066225	0.00349668874172187	0.517933774834437	1.6317880794702	0.611920529801325	4.42251655629139				0.415788079470199	-0.622834437086093	-0.596238410596026	3.66039735099338	-2.92238410596027	-0.194701986754968			
135	2700	0.983841059602649	0.0347549668874172	0.072476821192053	5.35337748344371	4.6153642384106	-0.0649006622516557				0.624953642384106	-0.0962119205298013	0.829139072847682	2.95390728476821	6.74781456953642	2.21403973509934				0.949827814569536	-0.113271523178808	-0.0559470198675496	3.92741721854305	0.426490066225167	0.35973509933775				0.864529801324503	-0.0965298013245033	-0.357721854304636	1.08291390728477	5.2235761589404	3.30437086092715				0.836026490066225	0.00349668874172187	0.517933774834437	-0.608211920529802	-0.228079470198675	4.70251655629139				0.399788079470199	-0.638834437086093	-0.628238410596026	-0.259602649006623	0.717615894039735	1.48529801324503			
136	2720	0.967841059602649	0.0347549668874172	0.00847682119205304	3.11337748344371	0.975364238410596	-0.0649006622516557				0.592953642384106	-0.112211920529801	0.845139072847682	2.11390728476821	7.86781456953642	1.09403973509934				0.965827814569536	-0.129271523178808	-0.0559470198675496	3.92741721854305	0.426490066225167	-0.20026490066225				0.912529801324503	-0.176529801324503	-0.389721854304636	9.48291390728477	2.4235761589404	4.70437086092715				0.820026490066225	-0.0125033112582781	0.517933774834437	-0.608211920529802	0.891920529801325	4.70251655629139				0.415788079470199	-0.622834437086093	-0.596238410596026	4.22039735099338	-0.122384105960265	2.32529801324503			
137	2740	0.951841059602649	0.0347549668874172	-0.039523178807947	-1.92662251655629	-3.2246357615894	-0.624900662251656				0.608953642384106	-0.112211920529801	0.829139072847682	0.993907284768212	9.54781456953642	1.37403973509934				0.981827814569536	-0.145271523178808	-0.0399470198675496	3.36741721854305	-0.413509933774833	-0.20026490066225				0.912529801324503	-0.144529801324503	-0.405721854304636	4.44291390728477	1.8635761589404	2.46437086092715				0.836026490066225	-0.0125033112582781	0.533933774834437	0.511788079470198	0.331920529801325	4.98251655629139				0.431788079470199	-0.654834437086093	-0.580238410596026	5.90039735099338	1.55761589403974	0.645298013245032			
138	2760	0.967841059602649	0.0187549668874172	-0.023523178807947	-0.526622516556291	-2.3846357615894	-1.46490066225166				0.608953642384106	-0.0962119205298013	0.845139072847682	0.713907284768212	10.1078145695364	2.21403973509934				0.965827814569536	-0.161271523178808	-0.0399470198675496	5.04741721854305	0.986490066225167	-0.20026490066225				0.896529801324503	-0.0965298013245033	-0.341721854304636	-4.79708609271523	0.7435761589404	1.06437086092715				0.836026490066225	0.00349668874172187	0.533933774834437	-0.0482119205298018	-0.788079470198675	3.30251655629139				0.415788079470199	-0.638834437086093	-0.596238410596026	4.78039735099338	-1.52238410596026	0.365298013245032			
139	2780	0.983841059602649	0.0187549668874172	0.024476821192053	-0.806622516556291	1.5353642384106	-1.18490066225166				0.624953642384106	-0.112211920529801	0.845139072847682	-0.406092715231788	10.3878145695364	4.17403973509934				0.965827814569536	-0.161271523178808	-0.0559470198675496	2.24741721854305	0.986490066225167	0.0797350993377501				0.896529801324503	-0.112529801324503	-0.341721854304636	2.20291390728477	1.0235761589404	1.06437086092715				0.836026490066225	-0.0285033112582781	0.517933774834437	0.231788079470198	-0.788079470198675	3.02251655629139				0.431788079470199	-0.654834437086093	-0.580238410596026	5.62039735099338	-1.52238410596026	-0.474701986754968			
140	2800	0.983841059602649	0.0347549668874172	0.056476821192053	-5.00662251655629	4.6153642384106	1.33509933774834				0.624953642384106	-0.112211920529801	0.861139072847682	-0.126092715231788	11.5078145695364	3.33403973509934				0.965827814569536	-0.161271523178808	-0.0719470198675496	-2.23258278145695	0.986490066225167	0.35973509933775				0.896529801324503	-0.128529801324503	-0.405721854304636	10.8829139072848	4.6635761589404	-0.895629139072848				0.836026490066225	-0.0125033112582781	0.533933774834437	1.3517880794702	-0.508079470198675	3.86251655629139				0.415788079470199	-0.670834437086093	-0.564238410596026	1.70039735099338	0.997615894039735	-0.474701986754968			
141	2820	0.983841059602649	0.0347549668874172	0.072476821192053	-3.32662251655629	4.3353642384106	0.495099337748344				0.608953642384106	-0.0962119205298013	0.909139072847682	0.993907284768212	10.3878145695364	3.33403973509934				0.949827814569536	-0.145271523178808	-0.0719470198675496	-1.67258278145695	0.986490066225167	0.35973509933775				0.896529801324503	-0.160529801324503	-0.421721854304636	3.04291390728477	4.9435761589404	-3.69562913907285				0.820026490066225	-0.0125033112582781	0.533933774834437	2.4717880794702	0.891920529801325	2.46251655629139				0.415788079470199	-0.622834437086093	-0.596238410596026	4.78039735099338	2.95761589403974	0.0852980132450323			
142	2840	0.967841059602649	0.0667549668874172	0.024476821192053	5.35337748344371	0.695364238410596	-0.624900662251656				0.592953642384106	-0.0962119205298013	0.877139072847682	2.39390728476821	1.70781456953642	4.73403973509934				0.981827814569536	-0.129271523178808	-0.10394701986755	0.567417218543046	2.94649006622517	0.91973509933775				0.880529801324503	-0.160529801324503	-0.357721854304636	-3.39708609271523	1.0235761589404	-2.01562913907285				0.836026490066225	-0.0125033112582781	0.533933774834437	3.5917880794702	1.17192052980133	2.74251655629139				0.415788079470199	-0.638834437086093	-0.580238410596026	7.86039735099338	2.95761589403974	0.0852980132450323			
143	2860	0.967841059602649	0.0667549668874172	-0.023523178807947	5.35337748344371	-0.984635761589404	-1.46490066225166				0.592953642384106	-0.0802119205298013	0.813139072847682	2.39390728476821	-0.812185430463576	3.89403973509934				0.965827814569536	-0.145271523178808	-0.0719470198675496	2.24741721854305	4.06649006622517	1.19973509933775				0.864529801324503	-0.112529801324503	-0.357721854304636	-1.15708609271523	1.3035761589404	-0.615629139072848				0.836026490066225	-0.0285033112582781	0.533933774834437	3.0317880794702	1.17192052980133	3.02251655629139				0.447788079470199	-0.654834437086093	-0.564238410596026	1.98039735099338	0.997615894039735	-0.754701986754968			
144	2880	0.967841059602649	0.0347549668874172	0.00847682119205304	0.873377483443709	-2.9446357615894	-1.18490066225166				0.592953642384106	-0.112211920529801	0.813139072847682	0.153907284768212	7.58781456953643	3.05403973509934				0.965827814569536	-0.145271523178808	-0.0879470198675496	2.52741721854305	0.426490066225167	0.0797350993377501				0.896529801324503	-0.112529801324503	-0.373721854304636	5.00291390728477	3.8235761589404	-0.895629139072848				0.836026490066225	-0.0285033112582781	0.533933774834437	1.3517880794702	0.891920529801325	2.18251655629139				0.431788079470199	-0.670834437086093	-0.612238410596026	-4.17960264900662	1.55761589403974	-0.194701986754968			
145	2900	0.967841059602649	0.0187549668874172	0.056476821192053	0.0333774834437086	0.695364238410596	-0.344900662251656				0.608953642384106	-0.112211920529801	0.861139072847682	-0.686092715231788	11.7878145695364	3.33403973509934				0.965827814569536	-0.145271523178808	-0.0719470198675496	4.48741721854305	0.146490066225167	1.19973509933775				0.896529801324503	-0.128529801324503	-0.373721854304636	6.12291390728477	3.8235761589404	-0.615629139072848				0.836026490066225	-0.0285033112582781	0.533933774834437	0.231788079470198	-0.228079470198675	2.46251655629139				0.431788079470199	-0.654834437086093	-0.628238410596026	1.42039735099338	0.437615894039735	1.48529801324503			
