No	Time	12-AccX	12-AccY	12-AccZ	12-GyroX	12-GyroY	12-GyroZ	13-AccX	13-AccY	13-AccZ	13-GyroX	13-GyroY	13-GyroZ	14-AccX	14-AccY	14-AccZ	14-GyroX	14-GyroY	14-GyroZ	15-AccX	15-AccY	15-AccZ	15-GyroX	15-GyroY	15-GyroZ	16-AccX	16-AccY	16-AccZ	16-GyroX	16-GyroY	16-GyroZ	17-AccX	17-AccY	17-AccZ	17-GyroX	17-GyroY	17-GyroZ
0	20	-0.184158940397351	0.0987549668874172	-0.967523178807947	-2.20662251655629	0.695364238410596	-0.624900662251656				0.960953642384106	0.0477880794701987	0.141139072847682	-2.92609271523179	1.42781456953642	-1.14596026490066				-0.202172185430464	-0.177271523178808	-0.87194701986755	-7.83258278145695	0.426490066225167	0.91973509933775				0	0	0	0	0	0				0.948026490066225	0.0514966887417219	0.165933774834437	-0.608211920529802	0.611920529801325	-1.73748344370861				0.559788079470199	-0.0948344370860927	-0.740238410596026	-0.539602649006623	1.83761589403974	0.645298013245032			
1	40	-0.168158940397351	0.0987549668874172	-0.951523178807947	-2.48662251655629	0.415364238410596	-0.904900662251656				0.976953642384106	0.0477880794701987	0.173139072847682	-2.92609271523179	2.54781456953642	-0.86596026490066				-0.202172185430464	-0.161271523178808	-0.88794701986755	-10.352582781457	0.706490066225167	0.63973509933775				0.720529801324503	-0.192529801324503	-0.613721854304636	-1.43708609271523	-3.7364238410596	-0.0556291390728476				0.964026490066225	0.0354966887417219	0.149933774834437	0.791788079470198	-0.228079470198675	-2.01748344370861				0.559788079470199	-0.0788344370860927	-0.756238410596026	-2.49960264900662	2.39761589403974	0.365298013245032			
2	60	-0.168158940397351	0.0987549668874172	-0.967523178807947	-2.20662251655629	-0.144635761589404	-0.344900662251656				0.976953642384106	0.0637880794701987	0.157139072847682	-2.92609271523179	2.26781456953642	-1.42596026490066				-0.202172185430464	-0.177271523178808	-0.88794701986755	-11.192582781457	0.706490066225167	0.91973509933775				0.704529801324503	-0.208529801324503	-0.613721854304636	-1.99708609271523	-4.5764238410596	-0.335629139072848				0.964026490066225	0.0354966887417219	0.165933774834437	1.3517880794702	0.331920529801325	-0.617483443708608				0.575788079470199	-0.110834437086093	-0.756238410596026	-1.65960264900662	2.95761589403974	-0.194701986754968			
3	80	-0.184158940397351	0.0987549668874172	-0.951523178807947	-1.64662251655629	0.135364238410596	0.215099337748344				0.976953642384106	0.0637880794701987	0.173139072847682	-2.92609271523179	2.26781456953642	-1.98596026490066				-0.202172185430464	-0.145271523178808	-0.87194701986755	-12.312582781457	2.66649006622517	-0.20026490066225				0.736529801324503	-0.208529801324503	-0.629721854304636	-1.99708609271523	-5.1364238410596	0.224370860927152				0.964026490066225	0.0354966887417219	0.165933774834437	-0.0482119205298018	-0.228079470198675	-0.617483443708608				0.575788079470199	-0.110834437086093	-0.772238410596026	-3.33960264900662	3.79761589403974	-0.474701986754968			
4	100	-0.168158940397351	0.114754966887417	-0.951523178807947	-1.92662251655629	0.415364238410596	-0.904900662251656				0.976953642384106	0.0637880794701987	0.157139072847682	-2.08609271523179	0.307814569536424	-2.26596026490066				-0.202172185430464	-0.145271523178808	-0.88794701986755	-10.072582781457	0.986490066225167	0.35973509933775				0.736529801324503	-0.192529801324503	-0.629721854304636	-3.67708609271523	-6.5364238410596	0.224370860927152				0.964026490066225	0.0514966887417219	0.165933774834437	-0.328211920529802	-1.06807947019868	-1.45748344370861				0.575788079470199	-0.0948344370860927	-0.772238410596026	-3.33960264900662	4.63761589403974	-1.03470198675497			
5	120	-0.184158940397351	0.114754966887417	-0.967523178807947	-1.64662251655629	0.695364238410596	-0.0649006622516557				0.976953642384106	0.0637880794701987	0.141139072847682	-0.126092715231788	0.587814569536424	-2.82596026490066				-0.218172185430464	-0.145271523178808	-0.88794701986755	-1.95258278145695	0.706490066225167	-0.20026490066225				0.736529801324503	-0.176529801324503	-0.597721854304636	-3.95708609271523	-8.2164238410596	1.06437086092715				0.964026490066225	0.0514966887417219	0.165933774834437	-0.0482119205298018	-2.46807947019868	-0.897483443708608				0.591788079470199	-0.0788344370860927	-0.772238410596026	-3.89960264900662	2.67761589403974	-0.194701986754968			
6	140	-0.168158940397351	0.114754966887417	-0.967523178807947	-1.64662251655629	0.695364238410596	-0.0649006622516557				0.976953642384106	0.0797880794701987	0.173139072847682	-0.126092715231788	2.26781456953642	-2.26596026490066				-0.218172185430464	-0.145271523178808	-0.90394701986755	3.08741721854305	-0.973509933774833	-0.76026490066225				0.736529801324503	-0.192529801324503	-0.645721854304636	-4.51708609271523	-10.1764238410596	0.224370860927152				0.964026490066225	0.0674966887417219	0.165933774834437	1.0717880794702	-3.86807947019868	-1.45748344370861				0.575788079470199	-0.0788344370860927	-0.772238410596026	-1.65960264900662	-0.402384105960265	0.925298013245032			
7	160	-0.168158940397351	0.0987549668874172	-0.951523178807947	-0.246622516556291	0.695364238410596	-0.904900662251656				0.976953642384106	0.0637880794701987	0.173139072847682	1.55390728476821	2.54781456953642	-2.54596026490066				-0.202172185430464	-0.145271523178808	-0.88794701986755	3.92741721854305	-1.53350993377483	-1.04026490066225				0.736529801324503	-0.176529801324503	-0.645721854304636	-3.95708609271523	-13.5364238410596	-1.45562913907285				0.964026490066225	0.0514966887417219	0.149933774834437	2.1917880794702	-3.86807947019868	-0.897483443708608				0.591788079470199	-0.0948344370860927	-0.772238410596026	-1.37960264900662	-2.08238410596027	1.20529801324503			
8	180	-0.184158940397351	0.114754966887417	-0.951523178807947	-1.08662251655629	0.695364238410596	-1.18490066225166				0.960953642384106	0.0797880794701987	0.173139072847682	2.11390728476821	0.867814569536424	-1.98596026490066				-0.202172185430464	-0.145271523178808	-0.88794701986755	4.48741721854305	-2.09350993377483	-1.60026490066225				0.720529801324503	-0.160529801324503	-0.661721854304636	-3.67708609271523	-19.6964238410596	-2.57562913907285				0.964026490066225	0.0674966887417219	0.149933774834437	1.3517880794702	-3.86807947019868	-0.337483443708608				0.591788079470199	-0.0788344370860927	-0.788238410596027	-0.539602649006623	-2.36238410596027	0.645298013245032			
9	200	-0.168158940397351	0.114754966887417	-0.951523178807947	-0.526622516556291	1.2553642384106	-1.18490066225166				0.960953642384106	0.0957880794701987	0.157139072847682	2.95390728476821	-0.252185430463576	-2.82596026490066				-0.218172185430464	-0.161271523178808	-0.90394701986755	6.72741721854305	-0.693509933774834	-0.76026490066225				0.736529801324503	-0.176529801324503	-0.677721854304636	-7.31708609271523	-21.6564238410596	-3.13562913907285				0.964026490066225	0.0674966887417219	0.149933774834437	1.9117880794702	-4.14807947019868	-1.17748344370861				0.575788079470199	-0.0788344370860927	-0.772238410596026	0.0203973509933773	-2.36238410596027	0.0852980132450323			
10	220	-0.184158940397351	0.114754966887417	-0.951523178807947	0.0333774834437086	0.975364238410596	-0.344900662251656				0.976953642384106	0.0637880794701987	0.141139072847682	4.35390728476821	1.42781456953642	-1.98596026490066				-0.218172185430464	-0.161271523178808	-0.90394701986755	10.087417218543	-2.65350993377483	0.91973509933775				0.704529801324503	-0.176529801324503	-0.661721854304636	-10.1170860927152	-22.7764238410596	-4.25562913907285				0.948026490066225	0.0674966887417219	0.133933774834437	3.8717880794702	-2.74807947019868	-1.45748344370861				0.575788079470199	-0.0628344370860927	-0.772238410596026	2.26039735099338	-5.72238410596027	1.76529801324503			
11	240	-0.168158940397351	0.114754966887417	-0.935523178807947	-0.526622516556291	0.975364238410596	-1.18490066225166				0.976953642384106	0.0957880794701987	0.157139072847682	4.07390728476821	3.10781456953642	-1.14596026490066				-0.218172185430464	-0.161271523178808	-0.88794701986755	13.167417218543	-3.77350993377483	0.91973509933775				0.688529801324503	-0.176529801324503	-0.677721854304636	-10.1170860927152	-20.8164238410596	-4.53562913907285				0.964026490066225	0.0674966887417219	0.181933774834437	4.1517880794702	-2.18807947019868	-0.897483443708608				0.591788079470199	-0.0788344370860927	-0.772238410596026	5.34039735099338	-10.4823841059603	3.16529801324503			
12	260	-0.184158940397351	0.114754966887417	-0.935523178807947	0.593377483443709	0.415364238410596	-0.904900662251656				0.976953642384106	0.0797880794701987	0.189139072847682	3.23390728476821	2.54781456953642	0.25403973509934				-0.218172185430464	-0.161271523178808	-0.87194701986755	14.007417218543	-5.45350993377483	1.75973509933775				0.672529801324503	-0.176529801324503	-0.677721854304636	-11.5170860927152	-18.2964238410596	-2.29562913907285				0.964026490066225	0.0674966887417219	0.149933774834437	3.3117880794702	-3.02807947019868	-2.01748344370861				0.607788079470199	-0.0788344370860927	-0.788238410596027	6.18039735099338	-12.7223841059603	3.44529801324503			
13	280	-0.184158940397351	0.114754966887417	-0.951523178807947	1.15337748344371	-0.144635761589404	-0.904900662251656				0.976953642384106	0.0797880794701987	0.189139072847682	1.83390728476821	1.14781456953642	-0.585960264900661				-0.218172185430464	-0.177271523178808	-0.88794701986755	17.927417218543	-6.57350993377483	2.59973509933775				0.656529801324503	-0.176529801324503	-0.677721854304636	-9.55708609271523	-17.7364238410596	-0.0556291390728476				0.932026490066225	0.0834966887417219	0.165933774834437	4.1517880794702	1.17192052980133	-1.45748344370861				0.591788079470199	-0.0788344370860927	-0.788238410596027	4.50039735099338	-11.3223841059603	3.44529801324503			
14	300	-0.168158940397351	0.114754966887417	-0.951523178807947	0.313377483443709	-0.144635761589404	-0.904900662251656				0.976953642384106	0.0637880794701987	0.189139072847682	-2.08609271523179	1.98781456953642	-0.585960264900661				-0.218172185430464	-0.193271523178808	-0.90394701986755	20.1674172185431	-7.97350993377484	4.83973509933775				0.656529801324503	-0.176529801324503	-0.693721854304636	-8.71708609271523	-17.4564238410596	1.90437086092715				0.948026490066225	0.0674966887417219	0.117933774834437	2.4717880794702	-3.02807947019868	-0.897483443708608				0.559788079470199	-0.0788344370860927	-0.740238410596026	2.82039735099338	-7.68238410596027	4.56529801324503			
15	320	-0.168158940397351	0.114754966887417	-0.935523178807947	0.0333774834437086	-0.424635761589404	0.495099337748344				0.960953642384106	0.0797880794701987	0.157139072847682	-4.88609271523179	7.30781456953642	-1.98596026490066				-0.234172185430464	-0.177271523178808	-0.88794701986755	21.287417218543	-8.53350993377483	5.39973509933775				0.640529801324503	-0.176529801324503	-0.693721854304636	-8.71708609271523	-14.0964238410596	3.30437086092715				0.932026490066225	0.0674966887417219	0.149933774834437	-1.7282119205298	0.331920529801325	-1.73748344370861				0.559788079470199	-0.0948344370860927	-0.740238410596026	-0.259602649006623	-6.28238410596027	5.96529801324503			
16	340	-0.168158940397351	0.130754966887417	-0.951523178807947	-0.806622516556291	-2.6646357615894	1.33509933774834				0.992953642384106	0.0637880794701987	0.205139072847682	-2.64609271523179	7.02781456953642	0.81403973509934				-0.202172185430464	-0.177271523178808	-0.87194701986755	21.567417218543	-10.4935099337748	6.23973509933775				0.624529801324503	-0.192529801324503	-0.709721854304636	-8.71708609271523	-10.1764238410596	5.82437086092715				0.932026490066225	0.0514966887417219	0.149933774834437	-3.9682119205298	2.01192052980133	-2.01748344370861				0.559788079470199	-0.0948344370860927	-0.740238410596026	-1.65960264900662	-6.00238410596027	6.24529801324503			
17	360	-0.168158940397351	0.130754966887417	-0.951523178807947	-5.28662251655629	-4.9046357615894	2.73509933774834				0.976953642384106	0.0637880794701987	0.205139072847682	-0.406092715231788	4.50781456953642	-0.0259602649006601				-0.218172185430464	-0.193271523178808	-0.87194701986755	19.0474172185431	-9.65350993377483	6.23973509933775				0.624529801324503	-0.176529801324503	-0.693721854304636	-8.99708609271523	-6.2564238410596	7.78437086092715				0.964026490066225	0.0514966887417219	0.133933774834437	-4.5282119205298	3.13192052980133	-2.01748344370861				0.559788079470199	-0.110834437086093	-0.740238410596026	-2.49960264900662	-3.48238410596027	7.36529801324503			
18	380	-0.184158940397351	0.114754966887417	-0.983523178807947	-10.3266225165563	-4.6246357615894	3.85509933774834				0.976953642384106	0.0637880794701987	0.173139072847682	-0.686092715231788	-2.49218543046358	0.25403973509934				-0.218172185430464	-0.193271523178808	-0.85594701986755	11.767417218543	-9.65350993377483	5.95973509933775				0.640529801324503	-0.192529801324503	-0.693721854304636	-7.87708609271523	-6.5364238410596	8.34437086092715				0.964026490066225	0.0514966887417219	0.149933774834437	-2.8482119205298	2.85192052980133	-2.01748344370861				0.575788079470199	-0.110834437086093	-0.772238410596026	-5.29960264900662	1.27761589403974	9.04529801324503			
19	400	-0.184158940397351	0.0987549668874172	-0.983523178807947	-11.1666225165563	-2.1046357615894	3.57509933774835				0.960953642384106	0.0477880794701987	0.173139072847682	-3.76609271523179	3.10781456953642	-0.86596026490066				-0.250172185430464	-0.161271523178808	-0.87194701986755	4.48741721854305	-6.01350993377483	5.95973509933775				0.672529801324503	-0.176529801324503	-0.709721854304636	-12.9170860927152	-10.1764238410596	9.74437086092715				0.948026490066225	0.0354966887417219	0.133933774834437	-6.2082119205298	2.57192052980133	-1.17748344370861				0.591788079470199	-0.142834437086093	-0.772238410596026	-5.01960264900662	2.95761589403974	11.845298013245			
20	420	-0.184158940397351	0.0987549668874172	-0.951523178807947	-10.8866225165563	-1.8246357615894	2.45509933774835				0.976953642384106	0.0477880794701987	0.205139072847682	-4.32609271523179	6.46781456953642	-0.86596026490066				-0.282172185430464	-0.129271523178808	-0.88794701986755	9.24741721854305	-1.81350993377483	-2.16026490066225				0.672529801324503	-0.160529801324503	-0.725721854304636	-15.7170860927152	-15.4964238410596	9.74437086092715				0.948026490066225	0.0354966887417219	0.149933774834437	-8.1682119205298	4.25192052980133	-0.897483443708608				0.575788079470199	-0.142834437086093	-0.788238410596027	-5.29960264900662	0.437615894039735	15.205298013245			
21	440	-0.168158940397351	0.0987549668874172	-0.967523178807947	-8.36662251655629	-0.984635761589404	1.05509933774834				0.960953642384106	0.0477880794701987	0.205139072847682	-6.00609271523179	5.34781456953642	-2.26596026490066				-0.218172185430464	-0.241271523178808	-0.85594701986755	11.767417218543	-2.65350993377483	-3.84026490066225				0.672529801324503	-0.160529801324503	-0.725721854304636	-19.3570860927152	-17.4564238410596	8.62437086092715				0.948026490066225	0.0354966887417219	0.165933774834437	-8.1682119205298	2.57192052980133	-1.17748344370861				0.559788079470199	-0.142834437086093	-0.788238410596027	-6.13960264900662	-2.36238410596027	19.125298013245			
22	460	-0.168158940397351	0.0507549668874172	-0.983523178807947	-7.52662251655629	-0.704635761589404	1.33509933774834				0.976953642384106	0.0477880794701987	0.205139072847682	-7.12609271523179	1.42781456953642	-1.70596026490066				-0.218172185430464	-0.241271523178808	-0.83994701986755	4.76741721854305	-1.25350993377483	-3.00026490066225				0.672529801324503	-0.176529801324503	-0.773721854304636	-18.5170860927152	-27.5364238410596	8.06437086092715				0.948026490066225	0.0514966887417219	0.149933774834437	-7.8882119205298	2.29192052980133	-0.617483443708608				0.543788079470199	-0.142834437086093	-0.804238410596027	-8.09960264900662	-1.52238410596026	23.325298013245			
23	480	-0.168158940397351	0.0987549668874172	-0.967523178807947	-7.80662251655629	-1.2646357615894	1.05509933774834				0.992953642384106	0.0157880794701987	0.221139072847682	-11.3260927152318	-3.33218543046358	-2.26596026490066				-0.202172185430464	-0.225271523178808	-0.82394701986755	2.80741721854305	-2.65350993377483	-2.44026490066225				0.704529801324503	-0.224529801324503	-0.821721854304636	-21.0370860927152	-42.3764238410596	5.54437086092715				0.948026490066225	0.0834966887417219	0.133933774834437	-5.6482119205298	3.41192052980132	1.34251655629139				0.559788079470199	-0.142834437086093	-0.788238410596027	-15.6596026490066	3.51761589403974	28.925298013245			
24	500	-0.184158940397351	0.0827549668874172	-0.919523178807947	-3.04662251655629	0.135364238410596	0.495099337748344				0.960953642384106	0.0317880794701987	0.189139072847682	-2.64609271523179	-20.1321854304636	-1.70596026490066				-0.234172185430464	-0.241271523178808	-0.83994701986755	0.287417218543046	-3.49350993377483	-1.88026490066225				0.720529801324503	-0.144529801324503	-0.821721854304636	-42.0370860927152	-54.9764238410596	2.74437086092715				0.948026490066225	0.0674966887417219	0.133933774834437	-4.8082119205298	6.21192052980133	1.90251655629139				0.527788079470199	-0.126834437086093	-0.756238410596026	-13.1396026490066	-0.122384105960265	31.725298013245			
25	520	-0.184158940397351	0.0827549668874172	-0.935523178807947	-1.92662251655629	-0.704635761589404	0.215099337748344				0.960953642384106	0.0637880794701987	0.125139072847682	4.63390728476821	-12.2921854304636	0.53403973509934				-0.250172185430464	-0.241271523178808	-0.90394701986755	-0.272582781456954	-5.17350993377483	-1.60026490066225				0.640529801324503	-0.0965298013245033	-0.773721854304636	-45.9570860927152	-59.4564238410596	-5.65562913907285				0.932026490066225	0.0354966887417219	0.133933774834437	-5.9282119205298	7.33192052980133	1.62251655629139				0.495788079470199	-0.0948344370860927	-0.772238410596026	-17.0596026490066	1.55761589403974	36.485298013245			
26	540	-0.200158940397351	0.114754966887417	-0.951523178807947	-3.60662251655629	-0.704635761589404	0.215099337748344				0.976953642384106	0.0797880794701987	0.189139072847682	-0.406092715231788	-1.09218543046358	2.21403973509934				-0.218172185430464	-0.257271523178808	-0.85594701986755	2.80741721854305	-3.21350993377483	-2.16026490066225				0.592529801324503	-0.128529801324503	-0.741721854304636	-45.3970860927152	-57.4964238410596	-9.85562913907285				0.932026490066225	0.0674966887417219	0.149933774834437	-4.8082119205298	7.05192052980133	0.502516556291392				0.495788079470199	-0.0948344370860927	-0.756238410596026	-13.1396026490066	-1.24238410596026	38.725298013245			
27	560	-0.200158940397351	0.130754966887417	-0.967523178807947	-4.44662251655629	-0.424635761589404	1.33509933774834				0.976953642384106	0.0797880794701987	0.141139072847682	-5.44609271523179	-1.09218543046358	3.33403973509934				-0.234172185430464	-0.209271523178808	-0.83994701986755	-2.51258278145695	-2.93350993377483	0.0797350993377501				0.560529801324503	-0.144529801324503	-0.709721854304636	-45.3970860927152	-50.4964238410596	-7.61562913907285				0.932026490066225	0.0674966887417219	0.149933774834437	-5.0882119205298	10.6919205298013	-1.73748344370861				0.495788079470199	-0.0948344370860927	-0.756238410596026	-12.0196026490066	-0.962384105960265	35.085298013245			
28	580	-0.200158940397351	0.146754966887417	-0.967523178807947	-3.04662251655629	1.2553642384106	2.73509933774834				0.992953642384106	0.0957880794701987	0.173139072847682	-6.00609271523179	5.62781456953642	1.93403973509934				-0.266172185430464	-0.209271523178808	-0.87194701986755	-3.07258278145695	-1.53350993377483	1.75973509933775				0.512529801324503	-0.0965298013245033	-0.693721854304636	-49.0370860927152	-40.4164238410596	-8.73562913907285				0.964026490066225	0.0674966887417219	0.117933774834437	-5.0882119205298	12.3719205298013	-2.01748344370861				0.495788079470199	-0.110834437086093	-0.772238410596026	-13.1396026490066	1.83761589403974	33.125298013245			
29	600	-0.184158940397351	0.146754966887417	-0.951523178807947	-3.04662251655629	2.0953642384106	2.73509933774834				1.00895364238411	0.0797880794701987	0.157139072847682	-7.40609271523179	5.34781456953642	0.81403973509934				-0.266172185430464	-0.225271523178808	-0.87194701986755	-2.23258278145695	-2.09350993377483	3.15973509933775				0.464529801324503	-0.0805298013245033	-0.677721854304636	-43.7170860927152	-31.4564238410596	-6.77562913907285				0.964026490066225	0.0354966887417219	0.133933774834437	-2.5682119205298	14.8919205298013	-1.73748344370861				0.495788079470199	-0.110834437086093	-0.772238410596026	-14.5396026490066	7.43761589403974	32.845298013245			
30	620	-0.184158940397351	0.146754966887417	-0.919523178807947	-2.48662251655629	2.6553642384106	2.17509933774834				0.992953642384106	0.0797880794701987	0.125139072847682	-8.80609271523179	7.86781456953642	0.25403973509934				-0.266172185430464	-0.225271523178808	-0.87194701986755	0.287417218543046	0.146490066225167	2.59973509933775				0.416529801324503	-0.0645298013245033	-0.661721854304636	-33.0770860927152	-16.0564238410596	-2.29562913907285				0.964026490066225	0.0514966887417219	0.181933774834437	-3.1282119205298	13.7719205298013	-1.45748344370861				0.527788079470199	-0.110834437086093	-0.772238410596026	-13.6996026490066	12.1976158940397	29.765298013245			
31	640	-0.184158940397351	0.146754966887417	-0.935523178807947	-1.64662251655629	2.3753642384106	2.17509933774834				0.992953642384106	0.0797880794701987	0.125139072847682	-4.04609271523179	9.54781456953642	1.37403973509934				-0.250172185430464	-0.193271523178808	-0.85594701986755	-0.832582781456954	2.10649006622517	2.59973509933775				0.464529801324503	-0.0325298013245033	-0.677721854304636	-12.0770860927152	10.2635761589404	4.98437086092715				0.980026490066225	0.0354966887417219	0.165933774834437	-3.9682119205298	7.89192052980133	-0.897483443708608				0.575788079470199	-0.142834437086093	-0.772238410596026	-7.25960264900662	11.6376158940397	26.685298013245			
32	660	-0.184158940397351	0.162754966887417	-0.935523178807947	-2.20662251655629	2.3753642384106	1.05509933774834				0.976953642384106	0.0957880794701987	0.125139072847682	-1.24609271523179	9.26781456953642	0.53403973509934				-0.266172185430464	-0.193271523178808	-0.87194701986755	-2.79258278145695	2.38649006622517	2.31973509933775				0.480529801324503	-0.0325298013245033	-0.693721854304636	6.96291390728477	27.3435761589404	12.2643708609272				0.980026490066225	0.0354966887417219	0.197933774834437	-5.6482119205298	2.29192052980133	-0.617483443708608				0.607788079470199	-0.126834437086093	-0.772238410596026	-5.57960264900662	8.83761589403974	21.645298013245			
33	680	-0.200158940397351	0.162754966887417	-0.935523178807947	-3.60662251655629	2.6553642384106	0.215099337748344				0.960953642384106	0.0957880794701987	0.173139072847682	-3.48609271523179	11.5078145695364	1.37403973509934				-0.250172185430464	-0.193271523178808	-0.87194701986755	-1.95258278145695	1.26649006622517	1.19973509933775				0.496529801324503	-0.0805298013245033	-0.709721854304636	15.3629139072848	33.2235761589404	15.0643708609272				0.964026490066225	0.0514966887417219	0.181933774834437	-6.4882119205298	-1.90807947019868	0.222516556291392				0.607788079470199	-0.126834437086093	-0.804238410596027	-4.73960264900662	9.11761589403974	20.525298013245			
34	700	-0.184158940397351	0.146754966887417	-0.935523178807947	-4.44662251655629	4.3353642384106	0.775099337748344				0.976953642384106	0.0637880794701987	0.205139072847682	-5.44609271523179	14.8678145695364	-0.86596026490066				-0.250172185430464	-0.177271523178808	-0.87194701986755	1.12741721854305	2.10649006622517	0.91973509933775				0.560529801324503	-0.0645298013245033	-0.773721854304636	18.7229139072848	31.8235761589404	17.3043708609272				0.948026490066225	0.0514966887417219	0.181933774834437	-9.5682119205298	-2.46807947019868	1.06251655629139				0.607788079470199	-0.158834437086093	-0.788238410596027	-4.17960264900662	7.99761589403974	20.245298013245			
35	720	-0.168158940397351	0.146754966887417	-0.935523178807947	-3.60662251655629	3.7753642384106	0.495099337748344				0.976953642384106	0.0477880794701987	0.221139072847682	-4.04609271523179	13.4678145695364	-2.26596026490066				-0.234172185430464	-0.193271523178808	-0.85594701986755	4.20741721854305	2.94649006622517	-0.76026490066225				0.656529801324503	-0.0485298013245033	-0.805721854304636	15.6429139072848	26.5035761589404	14.7843708609272				0.932026490066225	0.0674966887417219	0.213933774834437	-11.2482119205298	-0.508079470198675	1.06251655629139				0.591788079470199	-0.158834437086093	-0.756238410596026	-2.49960264900662	4.91761589403974	20.805298013245			
36	740	-0.152158940397351	0.130754966887417	-0.951523178807947	-4.16662251655629	2.9353642384106	0.495099337748344				0.944953642384106	0.0317880794701987	0.221139072847682	-3.48609271523179	8.14781456953643	-3.94596026490066				-0.202172185430464	-0.225271523178808	-0.82394701986755	5.60741721854305	-0.973509933774833	-1.04026490066225				0.704529801324503	-0.0645298013245033	-0.821721854304636	9.76291390728477	20.0635761589404	9.74437086092715				0.964026490066225	0.0514966887417219	0.229933774834437	-10.6882119205298	1.17192052980133	1.34251655629139				0.575788079470199	-0.190834437086093	-0.756238410596026	-3.61960264900662	2.11761589403974	25.005298013245			
37	760	-0.152158940397351	0.130754966887417	-0.951523178807947	-4.72662251655629	0.975364238410596	0.215099337748344				0.944953642384106	0.0477880794701987	0.221139072847682	-5.16609271523179	7.02781456953642	-3.38596026490066				-0.218172185430464	-0.225271523178808	-0.83994701986755	0.567417218543046	-2.37350993377483	-2.16026490066225				0.704529801324503	-0.0805298013245033	-0.837721854304636	1.08291390728477	8.5835761589404	6.10437086092715				0.948026490066225	0.0514966887417219	0.229933774834437	-7.8882119205298	0.891920529801325	1.34251655629139				0.575788079470199	-0.206834437086093	-0.740238410596026	-9.21960264900662	3.23761589403974	29.205298013245			
38	780	-0.152158940397351	0.114754966887417	-0.951523178807947	-3.88662251655629	0.975364238410596	0.495099337748344				0.976953642384106	0.0637880794701987	0.221139072847682	-7.12609271523179	9.54781456953642	-1.98596026490066				-0.234172185430464	-0.241271523178808	-0.87194701986755	0.287417218543046	-0.413509933774833	-2.72026490066225				0.672529801324503	-0.0805298013245033	-0.789721854304636	-8.43708609271523	-0.9364238410596	3.30437086092715				0.932026490066225	0.0514966887417219	0.213933774834437	-7.0482119205298	0.611920529801325	1.06251655629139				0.575788079470199	-0.190834437086093	-0.724238410596026	-12.2996026490066	4.63761589403974	32.845298013245			
39	800	-0.152158940397351	0.130754966887417	-0.967523178807947	-3.88662251655629	0.135364238410596	-0.904900662251656				0.976953642384106	0.0797880794701987	0.221139072847682	-6.00609271523179	10.3878145695364	-1.70596026490066				-0.218172185430464	-0.257271523178808	-0.87194701986755	2.52741721854305	-0.693509933774834	-3.28026490066225				0.656529801324503	-0.0645298013245033	-0.773721854304636	-15.9970860927152	-10.4564238410596	-1.17562913907285				0.932026490066225	0.0514966887417219	0.213933774834437	-7.0482119205298	-0.508079470198675	-0.0574834437086077				0.559788079470199	-0.174834437086093	-0.740238410596026	-11.4596026490066	3.79761589403974	35.365298013245			
40	820	-0.152158940397351	0.130754966887417	-0.967523178807947	-3.60662251655629	0.415364238410596	-1.46490066225166				0.960953642384106	0.0797880794701987	0.237139072847682	-4.04609271523179	11.2278145695364	-0.86596026490066				-0.218172185430464	-0.225271523178808	-0.85594701986755	-0.832582781456954	-0.133509933774833	-1.60026490066225				0.624529801324503	-0.0645298013245033	-0.741721854304636	-15.9970860927152	-14.3764238410596	-4.53562913907285				0.948026490066225	0.0354966887417219	0.229933774834437	-5.0882119205298	-0.228079470198675	-0.0574834437086077				0.559788079470199	-0.174834437086093	-0.724238410596026	-10.8996026490066	2.11761589403974	33.685298013245			
41	840	-0.168158940397351	0.146754966887417	-0.951523178807947	-1.36662251655629	0.415364238410596	-0.0649006622516557				0.944953642384106	0.0637880794701987	0.237139072847682	-1.52609271523179	13.1878145695364	-0.86596026490066				-0.234172185430464	-0.225271523178808	-0.85594701986755	-1.67258278145695	-0.133509933774833	-0.76026490066225				0.624529801324503	-0.0645298013245033	-0.725721854304636	-13.7570860927152	-13.2564238410596	-3.41562913907285				0.948026490066225	0.0674966887417219	0.245933774834437	-7.0482119205298	5.37192052980133	-1.73748344370861				0.575788079470199	-0.174834437086093	-0.740238410596026	-12.5796026490066	0.997615894039735	30.045298013245			
42	860	-0.168158940397351	0.146754966887417	-0.951523178807947	-1.36662251655629	0.975364238410596	0.215099337748344				0.944953642384106	0.0797880794701987	0.301139072847682	0.713907284768212	15.1478145695364	-1.42596026490066				-0.218172185430464	-0.273271523178808	-0.88794701986755	-5.31258278145695	0.986490066225167	0.63973509933775				0.656529801324503	-0.112529801324503	-0.757721854304636	-7.31708609271523	-10.1764238410596	4.70437086092715				0.948026490066225	0.0354966887417219	0.213933774834437	-4.8082119205298	-0.788079470198675	-2.85748344370861				0.591788079470199	-0.142834437086093	-0.756238410596026	-9.49960264900662	0.717615894039735	24.725298013245			
43	880	-0.152158940397351	0.146754966887417	-0.935523178807947	-1.36662251655629	0.415364238410596	1.33509933774834				0.976953642384106	0.0477880794701987	0.285139072847682	4.35390728476821	2.54781456953642	0.25403973509934				-0.202172185430464	-0.353271523178808	-0.88794701986755	-36.392582781457	5.46649006622517	3.15973509933775				0.672529801324503	-0.128529801324503	-0.789721854304636	-2.83708609271523	-16.0564238410596	10.8643708609272				0.948026490066225	0.0514966887417219	0.229933774834437	-7.3282119205298	-0.508079470198675	-2.57748344370861				0.575788079470199	-0.126834437086093	-0.788238410596027	-6.69960264900662	2.11761589403974	19.965298013245			
44	900	-0.152158940397351	0.130754966887417	-0.951523178807947	-1.36662251655629	-0.704635761589404	0.775099337748344				0.960953642384106	0.0637880794701987	0.205139072847682	3.51390728476821	-8.65218543046358	-0.86596026490066				-0.170172185430464	-0.401271523178808	-0.80794701986755	-33.312582781457	3.22649006622517	2.59973509933775				0.704529801324503	-0.0805298013245033	-0.821721854304636	-7.31708609271523	-24.7364238410596	13.1043708609272				0.916026490066225	0.0514966887417219	0.213933774834437	-5.3682119205298	-1.62807947019868	-2.57748344370861				0.559788079470199	-0.158834437086093	-0.788238410596027	-1.37960264900662	-4.32238410596027	14.085298013245			
45	920	0	0	0	0	0	0				0	0	0	0	0	0				0	0	0	0	0	0				0.736529801324503	-0.0645298013245033	-0.853721854304636	-18.7970860927152	-36.7764238410596	13.9443708609272				0.964026490066225	0.0514966887417219	0.245933774834437	0.511788079470198	-0.508079470198675	-1.73748344370861				0.543788079470199	-0.190834437086093	-0.788238410596027	-5.85960264900662	-10.7623841059603	11.565298013245			
46	940	0	0	0	0	0	0				0	0	0	0	0	0				0	0	0	0	0	0				0.704529801324503	-0.128529801324503	-0.869721854304636	-19.9170860927152	-48.2564238410596	11.7043708609272				0.964026490066225	0.0514966887417219	0.245933774834437	2.4717880794702	-1.62807947019868	-1.73748344370861				0.591788079470199	-0.158834437086093	-0.820238410596026	-18.1796026490066	-17.2023841059603	14.085298013245			
47	960	0	0	0	0	0	0				0.960953642384106	0.0637880794701987	0.253139072847682	-0.686092715231788	-19.5721854304636	3.05403973509934				-0.234172185430464	-0.0332715231788079	-0.88794701986755	-9.23258278145695	-3.49350993377483	20.5197350993378				0.624529801324503	-0.128529801324503	-0.853721854304636	-26.0770860927152	-55.8164238410596	4.98437086092715				0.964026490066225	0.0354966887417219	0.197933774834437	2.7517880794702	-1.34807947019868	-3.13748344370861				0.543788079470199	-0.158834437086093	-0.820238410596026	-15.3796026490066	-22.8023841059603	13.245298013245			
48	980	-0.200158940397351	0.130754966887417	-0.951523178807947	-2.76662251655629	-2.3846357615894	1.33509933774834				0.992953642384106	0.0797880794701987	0.237139072847682	-2.64609271523179	-18.4521854304636	2.77403973509934				-0.282172185430464	-0.0492715231788079	-0.93594701986755	3.92741721854305	-0.693509933774834	18.5597350993378				0.576529801324503	-0.0325298013245033	-0.853721854304636	-39.5170860927152	-63.3764238410596	1.90437086092715				0.964026490066225	0.0354966887417219	0.181933774834437	2.4717880794702	-1.34807947019868	-5.09748344370861				0.511788079470199	-0.158834437086093	-0.852238410596026	-18.7396026490066	-24.2023841059603	9.04529801324503			
49	1000	-0.200158940397351	0.162754966887417	-0.967523178807947	-3.04662251655629	0.135364238410596	1.89509933774834				1.15295364238411	0.0797880794701987	0.317139072847682	-5.16609271523179	-46.1721854304636	-1.98596026490066				-0.282172185430464	-0.0492715231788079	-0.90394701986755	2.80741721854305	0.146490066225167	14.6397350993378				0.544529801324503	-0.0485298013245033	-0.853721854304636	-38.9570860927152	-67.8564238410596	-2.01562913907285				0.948026490066225	0.0354966887417219	0.149933774834437	3.0317880794702	-2.74807947019868	-3.69748344370861				0.495788079470199	-0.126834437086093	-0.884238410596026	-12.5796026490066	-26.4423841059603	5.96529801324503			
50	1020	-0.184158940397351	0.162754966887417	-0.951523178807947	-5.28662251655629	1.8153642384106	4.13509933774834				0.976953642384106	0.111788079470199	0.109139072847682	2.67390728476821	-96.5721854304636	-5.90596026490066				-0.282172185430464	-0.0652715231788079	-0.88794701986755	0.847417218543046	-3.77350993377483	5.67973509933775				0.480529801324503	-0.0325298013245033	-0.901721854304636	-40.0770860927152	-77.0964238410596	-9.57562913907285				0.932026490066225	0.0514966887417219	0.149933774834437	6.6717880794702	-2.46807947019868	-3.97748344370861				0.479788079470199	-0.110834437086093	-0.932238410596026	-1.37960264900662	-28.1223841059603	5.40529801324503			
51	1040	-0.152158940397351	0.178754966887417	-0.967523178807947	-6.12662251655629	4.3353642384106	6.09509933774834				0.864953642384106	0.0797880794701987	-0.0188609271523178	2.39390728476821	-64.9321854304636	-3.66596026490066				-0.250172185430464	-0.0172715231788079	-0.87194701986755	2.24741721854305	-2.65350993377483	-1.32026490066225				0.464529801324503	0.0314701986754967	-0.997721854304636	-36.4370860927152	-95.2964238410596	-19.6556291390729				0.932026490066225	0.0674966887417219	0.133933774834437	8.6317880794702	1.45192052980132	-4.53748344370861				0.479788079470199	-0.0788344370860927	-0.980238410596026	11.2203973509934	-37.6423841059603	8.76529801324503			
52	1060	-0.152158940397351	0.178754966887417	-0.903523178807947	-14.5266225165563	-0.704635761589404	7.77509933774834				0.896953642384106	0.143788079470199	0.0291390728476822	-2.08609271523179	-28.8121854304636	-3.66596026490066				-0.266172185430464	-0.0332715231788079	-0.88794701986755	0.567417218543046	-4.61350993377483	-5.52026490066225				0.480529801324503	0.0154701986754967	-1.09372185430464	-17.1170860927152	-105.65642384106	-32.2556291390729				0.948026490066225	0.0834966887417219	0.0859337748344371	8.6317880794702	2.85192052980133	-3.97748344370861				0.447788079470199	-0.110834437086093	-0.996238410596026	20.7403973509934	-48.2823841059603	9.04529801324503			
53	1080	-0.168158940397351	0.194754966887417	-0.935523178807947	-8.36662251655629	-2.1046357615894	6.93509933774835				0.928953642384106	0.127788079470199	0.0451390728476822	-2.36609271523179	-4.73218543046358	-1.70596026490066				-0.282172185430464	-0.129271523178808	-0.88794701986755	-5.03258278145695	-3.21350993377483	-6.64026490066225				0.464529801324503	-0.144529801324503	-1.10972185430464	-32.2370860927152	-114.33642384106	-50.7356291390729				1.01202649006623	0.0994966887417219	0.0699337748344371	9.1917880794702	9.57192052980133	-6.49748344370861				0.415788079470199	-0.238834437086093	-0.996238410596026	36.7003973509934	-61.7223841059603	17.165298013245			
54	1100	-0.184158940397351	0.194754966887417	-0.983523178807947	-3.60662251655629	-0.144635761589404	5.53509933774834				0.992953642384106	0.159788079470199	0.0931390728476822	-0.966092715231788	6.46781456953642	-0.30596026490066				-0.282172185430464	-0.193271523178808	-0.90394701986755	-8.11258278145695	-1.25350993377483	-4.68026490066225				0.336529801324503	-0.0805298013245033	-1.10972185430464	-80.1170860927152	-126.93642384106	-56.6156291390729				1.01202649006623	0.0834966887417219	0.0379337748344371	7.5117880794702	7.89192052980133	-9.85748344370861				0.431788079470199	-0.270834437086093	-1.04423841059603	22.1403973509934	-77.1223841059603	36.205298013245			
55	1120	-0.168158940397351	0.178754966887417	-0.951523178807947	-6.68662251655629	1.8153642384106	4.13509933774834				0.960953642384106	0.175788079470199	0.0291390728476822	9.11390728476821	7.02781456953642	5.01403973509934				-0.234172185430464	-0.241271523178808	-0.83994701986755	3.64741721854305	-3.49350993377483	-1.60026490066225				0.192529801324503	-0.0325298013245033	-1.15772185430464	-102.797086092715	-130.01642384106	-61.9356291390729				0.980026490066225	0.0674966887417219	0.00593377483443711	-0.0482119205298018	10.6919205298013	-13.4974834437086				0.479788079470199	-0.158834437086093	-1.14023841059603	13.7403973509934	-78.8023841059603	51.045298013245			
56	1140	-0.184158940397351	0.178754966887417	-0.951523178807947	-7.24662251655629	0.975364238410596	3.85509933774834				0.976953642384106	0.159788079470199	0.0131390728476822	12.1939072847682	15.7078145695364	10.6140397350993				-0.250172185430464	-0.225271523178808	-0.83994701986755	5.88741721854305	-2.37350993377483	5.67973509933775				0.0805298013245033	-0.000529801324503289	-1.04572185430464	-115.397086092715	-142.61642384106	-70.8956291390729				1.01202649006623	0.0994966887417219	-0.0420662251655629	1.3517880794702	15.7319205298013	-13.7774834437086				0.399788079470199	-0.110834437086093	-1.15623841059603	30.5403973509934	-100.92238410596	67.845298013245			
57	1160	-0.200158940397351	0.210754966887417	-0.999523178807947	-20.6866225165563	4.6153642384106	6.93509933774835				1.04095364238411	-0.000211920529801304	0.0131390728476822	8.83390728476821	21.5878145695364	13.1340397350993				-0.282172185430464	-0.177271523178808	-0.83994701986755	5.88741721854305	-1.53350993377483	8.19973509933775				-0.0634701986754967	0.111470198675497	-1.09372185430464	-122.957086092715	-156.05642384106	-72.5756291390729				1.17202649006623	0.131496688741722	-0.0900662251655629	-0.608211920529802	21.0519205298013	-10.9774834437086				0.319788079470199	-0.0788344370860927	-1.12423841059603	23.5403973509934	-107.64238410596	71.205298013245			
58	1180	-0.264158940397351	0.194754966887417	-1.01552317880795	-24.6066225165563	-8.26463576158941	7.77509933774834				1.04095364238411	-0.0322119205298013	-0.0668609271523178	9.39390728476821	44.5478145695364	10.6140397350993				-0.330172185430464	-0.209271523178808	-0.90394701986755	10.647417218543	2.66649006622517	7.07973509933775				-0.143470198675497	0.143470198675497	-1.15772185430464	-112.317086092715	-143.73642384106	-77.8956291390729				1.18802649006623	0.163496688741722	-0.0740662251655629	-9.0082119205298	22.1719205298013	-7.05748344370861				0.175788079470199	-0.110834437086093	-1.15623841059603	39.5003973509934	-106.52238410596	85.485298013245			
59	1200	-0.344158940397351	0.226754966887417	-1.14352317880795	-33.5666225165563	6.5753642384106	8.89509933774834				1.13695364238411	0.0797880794701987	-0.0668609271523178	4.35390728476821	48.1878145695364	8.65403973509934				-0.394172185430464	-0.289271523178808	-1.01594701986755	8.40741721854305	11.9064900662252	5.95973509933775				-0.0954701986754967	0.159470198675497	-1.02972185430464	-108.397086092715	-118.25642384106	-81.8156291390729				1.20402649006623	0.131496688741722	-0.0740662251655629	1.9117880794702	18.8119205298013	-0.0574834437086077				0.0797880794701987	-0.190834437086093	-1.07623841059603	43.9803973509934	-97.8423841059603	92.205298013245			
60	1220	-0.360158940397351	0.178754966887417	-0.999523178807947	-44.2066225165563	34.8553642384106	11.9750993377483				1.12095364238411	0.143788079470199	-0.146860927152318	-21.6860927152318	59.6678145695364	12.8540397350993				-0.522172185430464	-0.241271523178808	-1.31994701986755	6.16741721854305	27.0264900662252	5.95973509933775				-0.0954701986754967	0.271470198675497	-1.04572185430464	-104.477086092715	-104.53642384106	-78.7356291390729				1.23602649006623	0.115496688741722	-0.0420662251655629	10.8717880794702	13.4919205298013	4.42251655629139				0.0477880794701987	-0.206834437086093	-1.15623841059603	34.4603973509934	-75.1623841059603	92.485298013245			
61	1240	-0.408158940397351	0.306754966887417	-1.03152317880795	-25.7266225165563	35.6953642384106	16.1750993377483				1.36095364238411	0.175788079470199	0.0291390728476822	-21.9660927152318	108.947814569536	18.4540397350993				-0.538172185430464	-0.0332715231788079	-0.93594701986755	-12.592582781457	39.3464900662252	-0.48026490066225				-0.143470198675497	0.351470198675497	-0.917721854304636	-73.1170860927152	-89.4164238410596	-77.6156291390729				1.42802649006623	0.131496688741722	0.197933774834437	20.3917880794702	26.9319205298013	1.90251655629139				0.0797880794701987	-0.270834437086093	-1.12423841059603	43.7003973509934	-70.6823841059603	100.605298013245			
62	1260	-0.632158940397351	0.178754966887417	-1.19152317880795	-39.1666225165563	43.8153642384106	26.2550993377483				1.76095364238411	0.239788079470199	0.237139072847682	0.993907284768212	120.987814569536	18.7340397350993				-0.666172185430464	0.0467284768211921	-1.03194701986755	-19.312582781457	47.4664900662252	-3.00026490066225				-0.191470198675497	0.623470198675497	-0.981721854304636	-40.6370860927152	-86.0564238410596	-58.8556291390729				1.49202649006623	0.227496688741722	0.469933774834437	22.9117880794702	19.3719205298013	2.74251655629139				0.0637880794701987	-0.526834437086093	-1.04423841059603	22.7003973509934	-44.9223841059603	102.005298013245			
63	1280	-0.536158940397351	0.274754966887417	-1.15952317880795	-1.36662251655629	65.6553642384106	31.2950993377483				1.76095364238411	0.191788079470199	0.605139072847682	4.91390728476821	107.547814569536	17.3340397350993				-0.682172185430464	-0.0972715231788079	-1.15994701986755	6.16741721854305	59.2264900662252	-5.24026490066225				-0.0634701986754967	0.735470198675497	-1.06172185430464	-0.0370860927152318	-36.7764238410596	-24.6956291390729				1.54002649006623	0.339496688741722	0.677933774834437	22.3517880794702	8.73192052980133	10.3025165562914				0.207788079470199	-0.702834437086093	-0.980238410596026	-31.8996026490066	5.19761589403974	99.485298013245			
64	1300	-0.280158940397351	0.290754966887417	-1.12752317880795	10.6733774834437	87.4953642384106	38.0150993377484				1.87295364238411	-0.0322119205298013	1.00513907284768	-1.24609271523179	82.3478145695364	19.8540397350993				-0.330172185430464	-0.225271523178808	-1.17594701986755	6.16741721854305	84.1464900662252	-17.5602649006623				-0.111470198675497	0.751470198675497	-1.20572185430464	47.2829139072848	27.6235761589404	16.1843708609272				1.57202649006623	0.211496688741722	0.645933774834437	29.9117880794702	-2.46807947019868	13.6625165562914				0.447788079470199	-0.670834437086093	-1.02823841059603	-63.8196026490066	51.3976158940397	94.4452980132451			
65	1320	-0.008158940397351	0.290754966887417	-1.20752317880795	7.03337748344371	104.295364238411	37.7350993377484				1.82495364238411	-0.0962119205298013	0.717139072847682	11.9139072847682	17.6678145695364	11.4540397350993				-0.202172185430464	-0.209271523178808	-1.17594701986755	24.647417218543	99.2664900662252	-22.8802649006623				-0.0154701986754967	0.623470198675497	-1.30172185430464	64.3629139072848	83.6235761589404	50.6243708609272				1.52402649006623	0.0514966887417219	0.709933774834437	53.1517880794702	-8.62807947019868	15.9025165562914				0.543788079470199	-0.638834437086093	-1.09223841059603	-52.6196026490066	77.7176158940397	78.485298013245			
66	1340	0.215841059602649	0.690754966887417	-1.11152317880795	21.0333774834437	120.815364238411	32.6950993377484				1.28095364238411	-0.144211920529801	0.653139072847682	-21.4060927152318	9.26781456953642	6.97403973509934				-0.122172185430464	-0.321271523178808	-1.09594701986755	36.967417218543	119.146490066225	-25.4002649006623				0.128529801324503	0.655470198675497	-1.20572185430464	81.4429139072848	85.5835761589404	58.7443708609272				1.33202649006623	0.0194966887417219	0.725933774834437	12.5517880794702	-4.98807947019868	15.0625165562914				0.511788079470199	-0.638834437086093	-1.07623841059603	-37.7796026490066	89.4776158940397	60.005298013245			
67	1360	0.295841059602649	0.370754966887417	-1.11152317880795	89.6333774834437	122.495364238411	13.6550993377483				1.29695364238411	-0.0322119205298013	0.605139072847682	-22.2460927152318	16.5478145695364	7.25403973509934				-0.0581721854304636	-0.577271523178808	-1.14394701986755	35.8474172185431	129.786490066225	-29.8802649006623				0.208529801324503	0.527470198675497	-1.41372185430464	86.2029139072848	52.8235761589404	65.1843708609272				1.33202649006623	0.0674966887417219	0.549933774834437	-0.608211920529802	-12.2680794701987	12.5425165562914				0.575788079470199	-0.654834437086093	-0.996238410596026	-17.6196026490066	96.1976158940397	54.685298013245			
68	1380	0.183841059602649	-0.0132450331125828	-1.19152317880795	65.5533774834437	129.215364238411	-2.02490066225166				1.47295364238411	0.0957880794701987	0.685139072847682	-8.24609271523179	9.82781456953643	12.8540397350993				0.149827814569536	-0.305271523178808	-1.09594701986755	8.68741721854305	138.466490066225	-30.7202649006623				0.336529801324503	0.175470198675497	-1.49372185430464	46.7229139072848	64.3035761589404	81.4243708609272				1.39602649006623	0.211496688741722	0.597933774834437	8.6317880794702	-9.18807947019868	7.22251655629139				0.559788079470199	-0.686834437086093	-1.04423841059603	-6.97960264900662	113.55761589404	50.485298013245			
69	1400	0.327841059602649	0.194754966887417	-1.17552317880795	32.5133774834437	142.935364238411	-7.06490066225166				1.40895364238411	0.127788079470199	0.733139072847682	-8.24609271523179	-17.8921854304636	20.6940397350993				0.181827814569536	-0.385271523178808	-0.99994701986755	15.687417218543	152.466490066225	-26.8002649006623				0.272529801324503	0.239470198675497	-1.20572185430464	12.2829139072848	93.7035761589404	76.9443708609272				1.30002649006623	0.275496688741722	0.581933774834437	-9.0082119205298	-11.1480794701987	6.94251655629139				0.511788079470199	-0.574834437086093	-1.12423841059603	9.54039735099338	120.55761589404	43.205298013245			
70	1420	0.391841059602649	0.226754966887417	-1.07952317880795	19.3533774834437	167.855364238411	-8.74490066225166				1.29695364238411	-0.128211920529801	0.429139072847682	-13.8460927152318	-34.9721854304636	26.2940397350993				0.309827814569536	-0.417271523178808	-0.90394701986755	19.0474172185431	163.106490066225	-26.5202649006623				0.144529801324503	0.607470198675497	-0.853721854304636	52.0429139072848	115.82357615894	80.3043708609272				1.22002649006623	0.147496688741722	0.389933774834437	-16.0082119205298	-3.02807947019868	10.5825165562914				0.447788079470199	-0.510834437086093	-0.996238410596026	28.0203973509934	131.75761589404	42.925298013245			
71	1440	0.423841059602649	0.0187549668874172	-0.999523178807947	22.7133774834437	185.215364238411	-3.70490066225166				1.23295364238411	-0.160211920529801	0.381139072847682	-0.966092715231788	-25.4521854304636	25.1740397350993				0.357827814569536	-0.305271523178808	-0.90394701986755	21.8474172185431	171.506490066225	-16.4402649006623				0.256529801324503	0.511470198675497	-0.917721854304636	94.0429139072848	132.06357615894	92.0643708609272				1.23602649006623	0.0354966887417219	0.325933774834437	-3.1282119205298	2.57192052980133	13.3825165562914				0.479788079470199	-0.478834437086093	-0.836238410596026	28.5803973509934	152.75761589404	44.045298013245			
72	1460	0.263841059602649	-0.0612450331125828	-0.887523178807947	19.3533774834437	190.535364238411	0.495099337748344				1.20095364238411	-0.112211920529801	0.557139072847682	-3.48609271523179	-17.6121854304636	22.6540397350993				0.405827814569536	-0.273271523178808	-0.80794701986755	13.167417218543	178.506490066225	-5.24026490066225				0.368529801324503	0.0474701986754967	-1.04572185430464	87.8829139072848	149.70357615894	93.1843708609272				1.15602649006623	-0.0285033112582781	0.437933774834437	6.9517880794702	-5.26807947019868	18.4225165562914				0.495788079470199	-0.478834437086093	-0.868238410596026	30.8203973509934	158.63761589404	30.885298013245			
73	1480	0.519841059602649	0.00275496688741723	-0.839523178807947	17.3933774834437	192.495364238411	8.33509933774834				1.12095364238411	-0.0482119205298013	0.365139072847682	-8.24609271523179	-50.9321854304636	11.7340397350993				0.485827814569536	-0.257271523178808	-0.72794701986755	10.087417218543	179.906490066225	-5.52026490066225				0.448529801324503	-0.0325298013245033	-0.853721854304636	88.7229139072848	178.82357615894	78.9043708609272				1.04402649006623	-0.0925033112582781	0.373933774834437	0.511788079470198	-15.9080794701987	19.2625165562914				0.479788079470199	-0.382834437086093	-0.788238410596027	40.6203973509934	156.95761589404	7.64529801324503			
74	1500	0.503841059602649	-0.0612450331125828	-0.759523178807947	12.6333774834437	184.935364238411	8.61509933774835				0.960953642384106	-0.0962119205298013	0.173139072847682	-0.126092715231788	-80.0521854304636	14.2540397350993				0.581827814569536	-0.225271523178808	-0.66394701986755	10.927417218543	174.586490066225	-7.48026490066225				0.432529801324503	0.159470198675497	-0.821721854304636	113.642913907285	168.74357615894	58.4643708609272				0.964026490066225	-0.0765033112582781	0.149933774834437	-13.4882119205298	-22.6280794701987	11.9825165562914				0.463788079470199	-0.318834437086093	-0.612238410596026	52.6603973509934	153.03761589404	-10.274701986755			
75	1520	0.551841059602649	-0.109245033112583	-0.647523178807947	10.1133774834437	177.655364238411	7.49509933774834				0.752953642384106	-0.128211920529801	0.141139072847682	-14.6860927152318	-69.9721854304636	19.0140397350993				0.613827814569536	-0.161271523178808	-0.61594701986755	-4.47258278145695	170.106490066225	-12.2402649006623				0.400529801324503	0.127470198675497	-0.789721854304636	101.882913907285	138.22357615894	41.3843708609272				0.820026490066225	0.00349668874172187	0.133933774834437	-9.0082119205298	-19.5480794701987	8.62251655629139				0.431788079470199	-0.350834437086093	-0.580238410596026	35.5803973509934	156.11761589404	-19.234701986755			
76	1540	0.567841059602649	-0.0452450331125828	-0.535523178807947	14.0333774834437	167.855364238411	7.49509933774834				0.608953642384106	-0.000211920529801304	0.141139072847682	-18.8860927152318	-57.9321854304636	15.0940397350993				0.501827814569536	-0.113271523178808	-0.55194701986755	-34.432582781457	169.546490066225	-17.0002649006623				0.384529801324503	-0.0485298013245033	-0.677721854304636	89.5629139072848	130.10357615894	30.4643708609272				0.724026490066225	-0.0125033112582781	0.197933774834437	-7.0482119205298	-35.2280794701987	12.2625165562914				0.495788079470199	-0.334834437086093	-0.580238410596026	29.7003973509934	144.07761589404	-32.954701986755			
77	1560	0.631841059602649	-0.0132450331125828	-0.423523178807947	15.7133774834437	155.815364238411	-0.0649006622516557				0.512953642384106	0.0637880794701987	-0.0668609271523178	-24.7660927152318	-60.1721854304636	12.2940397350993				0.469827814569536	-0.0652715231788079	-0.53594701986755	-50.392582781457	174.866490066225	-18.6802649006623				0.384529801324503	-0.208529801324503	-0.549721854304636	85.6429139072848	118.62357615894	18.9843708609272				0.612026490066225	-0.0285033112582781	0.0379337748344371	-16.0082119205298	-50.3480794701987	12.2625165562914				0.527788079470199	-0.334834437086093	-0.468238410596026	2.54039735099338	130.35761589404	-29.034701986755			
78	1580	0.567841059602649	0.00275496688741723	-0.439523178807947	-1.08662251655629	144.895364238411	8.33509933774834				0.560953642384106	0.0477880794701987	-0.00286092715231785	-22.2460927152318	-43.6521854304636	13.4140397350993				0.517827814569536	0.0147284768211921	-0.55194701986755	-65.792582781457	185.226490066225	-21.2002649006623				0.336529801324503	-0.192529801324503	-0.549721854304636	71.6429139072848	100.70357615894	10.0243708609272				0.500026490066225	-0.0285033112582781	-0.0100662251655629	-12.9282119205298	-43.3480794701987	9.74251655629139				0.495788079470199	-0.334834437086093	-0.484238410596026	-17.0596026490066	107.67761589404	-34.074701986755			
79	1600	0.471841059602649	0.0667549668874172	-0.407523178807947	-15.6466225165563	146.575364238411	12.2550993377483				0.560953642384106	-0.0322119205298013	0.157139072847682	-3.76609271523179	-47.8521854304636	9.21403973509934				0.469827814569536	0.0627284768211921	-0.42394701986755	-50.672582781457	184.666490066225	-27.6402649006623				0.352529801324503	-0.0325298013245033	-0.549721854304636	49.8029139072848	79.1435761589404	-2.85562913907285				0.484026490066225	-0.0605033112582781	0.133933774834437	-17.6882119205298	-34.9480794701987	7.50251655629139				0.399788079470199	-0.350834437086093	-0.516238410596026	0.860397350993377	92.2776158940397	-32.674701986755			
80	1620	0.487841059602649	0.162754966887417	-0.455523178807947	-10.3266225165563	150.775364238411	14.2150993377483				0.304953642384106	-0.0322119205298013	0.141139072847682	-2.08609271523179	-59.6121854304636	2.21403973509934				0.437827814569536	0.0947284768211921	-0.39194701986755	-50.392582781457	180.186490066225	-32.9602649006623				0.400529801324503	0.0154701986754967	-0.501721854304636	42.2429139072848	58.4235761589404	-8.45562913907285				0.468026490066225	-0.0125033112582781	0.117933774834437	-14.0482119205298	-39.9880794701987	8.34251655629139				0.367788079470199	-0.206834437086093	-0.484238410596026	-12.5796026490066	73.2376158940397	-22.874701986755			
81	1640	0.519841059602649	0.162754966887417	-0.455523178807947	-3.32662251655629	163.375364238411	20.0950993377483				0.416953642384106	-0.0962119205298013	0.0451390728476822	-17.4860927152318	-41.4121854304636	4.73403973509934				0.533827814569536	0.142728476821192	-0.31194701986755	-27.432582781457	180.466490066225	-30.4402649006623				0.432529801324503	-0.176529801324503	-0.405721854304636	40.5629139072848	38.5435761589404	-9.85562913907285				0.404026490066225	0.0514966887417219	0.0379337748344371	-11.8082119205298	-46.9880794701987	9.18251655629139				0.335788079470199	-0.126834437086093	-0.436238410596026	-41.4196026490066	58.1176158940397	-9.43470198675497			
82	1660	0.615841059602649	0.130754966887417	-0.375523178807947	4.79337748344371	167.575364238411	23.1750993377483				0.496953642384106	0.0637880794701987	0.0931390728476822	-25.0460927152318	-40.2921854304636	-1.42596026490066				0.613827814569536	0.0947284768211921	-0.26394701986755	-35.832582781457	175.426490066225	-26.8002649006623				0.400529801324503	-0.208529801324503	-0.437721854304636	30.4829139072848	27.6235761589404	-12.6556291390728				0.388026490066225	-0.0125033112582781	0.0699337748344371	-3.4082119205298	-35.5080794701987	10.8625165562914				0.287788079470199	-0.0948344370860927	-0.388238410596026	-34.1396026490066	39.3576158940397	-9.15470198675497			
83	1680	0.599841059602649	0.130754966887417	-0.359523178807947	10.3933774834437	161.415364238411	25.9750993377483				0.384953642384106	0.0157880794701987	0.0451390728476822	-7.68609271523179	-43.0921854304636	-1.98596026490066				0.629827814569536	0.0147284768211921	-0.26394701986755	-35.832582781457	172.626490066225	-24.5602649006623				0.352529801324503	-0.128529801324503	-0.405721854304636	-1.99708609271523	18.6635761589404	-24.4156291390728				0.388026490066225	-0.0285033112582781	0.00593377483443711	-5.0882119205298	-27.9480794701987	5.54251655629139				0.271788079470199	-0.0948344370860927	-0.292238410596026	-11.7396026490066	27.0376158940397	-11.114701986755			
84	1700	0.583841059602649	0.194754966887417	-0.279523178807947	7.59337748344371	159.175364238411	21.2150993377483				0.416953642384106	-0.0642119205298013	0.0771390728476822	-10.7660927152318	-35.8121854304636	-0.585960264900661				0.517827814569536	-0.0652715231788079	-0.26394701986755	-14.272582781457	165.346490066225	-19.8002649006623				0.304529801324503	0.0154701986754967	-0.373721854304636	-10.6770860927152	8.3035761589404	-28.8956291390729				0.452026490066225	0.00349668874172187	0.101933774834437	-6.7682119205298	-30.1880794701987	1.06251655629139				0.287788079470199	-0.0628344370860927	-0.388238410596026	-4.45960264900662	16.1176158940397	-17.554701986755			
85	1720	0.647841059602649	0.210754966887417	-0.279523178807947	0.0333774834437086	152.175364238411	14.4950993377483				0.384953642384106	0.0477880794701987	0.0771390728476822	-23.3660927152318	-36.3721854304636	-5.62596026490066				0.565827814569536	-0.257271523178808	-0.32794701986755	-39.752582781457	154.146490066225	-17.0002649006623				0.304529801324503	0.0474701986754967	-0.357721854304636	15.6429139072848	2.4235761589404	-26.0956291390729				0.452026490066225	0.00349668874172187	0.00593377483443711	-4.2482119205298	-41.1080794701987	0.782516556291392				0.351788079470199	-0.0628344370860927	-0.372238410596026	-9.49960264900662	9.11761589403974	-22.314701986755			
86	1740	0.743841059602649	0.226754966887417	-0.295523178807947	-0.526622516556291	132.855364238411	9.17509933774834				0.368953642384106	-0.0162119205298013	0.0131390728476822	-6.84609271523179	-29.6521854304636	-4.78596026490066				0.565827814569536	-0.241271523178808	-0.19994701986755	-56.272582781457	145.186490066225	-12.2402649006623				0.320529801324503	-0.000529801324503289	-0.389721854304636	19.5629139072848	-6.8164238410596	-28.3356291390729				0.468026490066225	0.0514966887417219	-0.0260662251655629	0.511788079470198	-37.7480794701987	0.222516556291392				0.335788079470199	-0.0788344370860927	-0.340238410596026	-3.33960264900662	4.07761589403974	-22.034701986755			
87	1760	0.743841059602649	0.322754966887417	-0.327523178807947	-11.7266225165563	109.055364238411	11.9750993377483				0.512953642384106	-0.000211920529801304	0.125139072847682	2.67390728476821	-15.6521854304636	1.93403973509934				0.677827814569536	-0.0172715231788079	-0.15194701986755	-54.032582781457	118.866490066225	-8.04026490066225				0.320529801324503	-0.0805298013245033	-0.485721854304636	15.6429139072848	-6.8164238410596	-29.7356291390729				0.436026490066225	0.0994966887417219	0.0219337748344371	5.5517880794702	-33.2680794701987	-1.73748344370861				0.367788079470199	-0.0788344370860927	-0.340238410596026	-10.3396026490066	2.95761589403974	-15.314701986755			
88	1780	0.823841059602649	0.354754966887417	-0.343523178807947	-17.8866225165563	98.6953642384106	10.2950993377483				0.496953642384106	0.0797880794701987	0.109139072847682	-14.1260927152318	-8.93218543046358	-5.62596026490066				0.725827814569536	0.0467284768211921	-0.19994701986755	-33.592582781457	81.3464900662252	-2.16026490066225				0.384529801324503	-0.0645298013245033	-0.517721854304636	20.9629139072848	-10.7364238410596	-27.7756291390729				0.484026490066225	0.0354966887417219	0.0219337748344371	11.9917880794702	-24.5880794701987	-3.41748344370861				0.415788079470199	-0.110834437086093	-0.388238410596026	-0.539602649006623	-4.32238410596027	-19.514701986755			
89	1800	0.935841059602649	0.242754966887417	-0.279523178807947	-12.8466225165563	61.1753642384106	6.65509933774834				0.640953642384106	0.0477880794701987	0.221139072847682	-6.00609271523179	3.10781456953642	-3.10596026490066				0.949827814569536	-0.0172715231788079	-0.35994701986755	-20.432582781457	54.1864900662252	10.4397350993378				0.432529801324503	-0.0485298013245033	-0.517721854304636	31.0429139072848	-14.3764238410596	-28.3356291390729				0.612026490066225	0.0354966887417219	0.0539337748344371	7.5117880794702	-20.9480794701987	-7.05748344370861				0.495788079470199	-0.206834437086093	-0.372238410596026	-1.09960264900662	-4.04238410596027	-17.554701986755			
90	1820	0.967841059602649	0.0987549668874172	-0.279523178807947	3.67337748344371	56.9753642384106	-2.30490066225166				0.896953642384106	-0.0642119205298013	0.189139072847682	-0.686092715231788	2.26781456953642	-2.82596026490066				1.14182781456954	0.0147284768211921	-0.42394701986755	-7.83258278145695	28.4264900662252	9.31973509933775				0.464529801324503	-0.0805298013245033	-0.629721854304636	24.0429139072848	-12.4164238410596	-29.7356291390729				0.740026490066225	0.0514966887417219	0.0699337748344371	4.7117880794702	-12.2680794701987	-9.85748344370861				0.591788079470199	-0.254834437086093	-0.420238410596026	1.42039735099338	-6.00238410596027	-17.274701986755			
91	1840	0.951841059602649	-0.0452450331125828	-0.167523178807947	-3.04662251655629	42.9753642384106	1.05509933774834				0.944953642384106	-0.0642119205298013	0.205139072847682	-11.6060927152318	-4.73218543046358	-8.14596026490066				1.14182781456954	0.0627284768211921	-0.42394701986755	4.20741721854305	1.26649006622517	4.55973509933775				0.512529801324503	-0.112529801324503	-0.757721854304636	12.2829139072848	8.0235761589404	-29.7356291390729				0.836026490066225	0.0514966887417219	0.117933774834437	4.9917880794702	-4.14807947019868	-9.85748344370861				0.751788079470199	-0.254834437086093	-0.404238410596026	-0.539602649006623	1.27761589403974	-22.314701986755			
92	1860	0.871841059602649	-0.125245033112583	-0.055523178807947	-8.36662251655629	41.5753642384106	8.05509933774835				0.960953642384106	0.0157880794701987	0.269139072847682	-7.12609271523179	5.90781456953642	-11.7859602649007				1.01382781456954	0.0627284768211921	-0.39194701986755	4.76741721854305	-9.09350993377483	-3.84026490066225				0.576529801324503	-0.0645298013245033	-0.741721854304636	12.5629139072848	20.0635761589404	-31.1356291390729				0.900026490066225	0.0354966887417219	0.0859337748344371	1.3517880794702	1.45192052980132	-10.4174834437086				0.783788079470199	-0.254834437086093	-0.452238410596026	4.50039735099338	-2.36238410596027	-23.434701986755			
93	1880	0.983841059602649	-0.173245033112583	-0.055523178807947	-13.9666225165563	49.1353642384106	11.9750993377483				0.976953642384106	0.0317880794701987	0.221139072847682	-6.28609271523179	-9.49218543046358	-15.9859602649007				0.901827814569536	0.0627284768211921	-0.26394701986755	1.12741721854305	-12.4535099337748	-4.40026490066225				0.640529801324503	0.0314701986754967	-0.773721854304636	15.6429139072848	12.2235761589404	-32.5356291390729				0.964026490066225	0.0354966887417219	0.133933774834437	-0.328211920529802	6.77192052980133	-10.6974834437086				0.751788079470199	-0.318834437086093	-0.420238410596026	16.8203973509934	-3.48238410596027	-25.114701986755			
94	1900	1.03184105960265	0.0187549668874172	-0.135523178807947	-42.2466225165563	43.8153642384106	12.2550993377483				1.02495364238411	-0.0482119205298013	0.0451390728476822	-3.48609271523179	-21.2521854304636	-17.1059602649007				0.933827814569536	0.0147284768211921	-0.23194701986755	-8.11258278145695	-15.5335099337748	0.35973509933775				0.688529801324503	-0.0165298013245033	-0.773721854304636	7.24291390728477	5.2235761589404	-30.2956291390729				1.04402649006623	0.0674966887417219	0.0859337748344371	-5.0882119205298	-3.30807947019868	-10.6974834437086				0.815788079470199	-0.414834437086093	-0.452238410596026	18.7803973509934	-0.402384105960265	-31.554701986755			
95	1920	0.983841059602649	0.306754966887417	-0.151523178807947	-33.2866225165563	32.6153642384106	5.53509933774834				1.08895364238411	-0.0482119205298013	0.0451390728476822	-15.5260927152318	-21.8121854304636	-13.7459602649007				0.965827814569536	-0.0492715231788079	-0.19994701986755	3.36741721854305	-7.97350993377484	-0.48026490066225				0.704529801324503	-0.0805298013245033	-0.741721854304636	-3.95708609271523	2.1435761589404	-25.8156291390729				1.04402649006623	0.0674966887417219	0.0699337748344371	-2.2882119205298	-3.58807947019868	-10.1374834437086				0.847788079470199	-0.334834437086093	-0.500238410596026	1.70039735099338	6.59761589403974	-30.434701986755			
96	1940	0	0	0	0	0	0				0	0	0	0	0	0				0	0	0	0	0	0				0	0	0	0	0	0				0.996026490066225	0.0674966887417219	-0.0260662251655629	-3.6882119205298	-11.1480794701987	-5.37748344370861				0.767788079470199	-0.286834437086093	-0.596238410596026	-4.73960264900662	9.95761589403974	-24.274701986755			
97	1960	0	0	0	0	0	0				0	0	0	0	0	0				0	0	0	0	0	0				0.512529801324503	-0.0165298013245033	-0.741721854304636	-15.7170860927152	-4.5764238410596	-14.6156291390728				0.932026490066225	0.115496688741722	0.0219337748344371	-5.0882119205298	-5.26807947019868	-2.01748344370861				0.767788079470199	-0.222834437086093	-0.612238410596026	6.74039735099338	13.5976158940397	-22.314701986755			
98	1980	0.919841059602649	-0.0292450331125828	-0.151523178807947	32.5133774834437	18.0553642384106	2.73509933774834				0.896953642384106	0.0957880794701987	-0.130860927152318	38.2339072847682	-21.2521854304636	-11.5059602649007				0.949827814569536	-0.0492715231788079	-0.18394701986755	9.52741721854305	13.8664900662252	8.19973509933775				0.544529801324503	-0.0165298013245033	-0.741721854304636	-12.3570860927152	-1.2164238410596	-11.8156291390728				0.900026490066225	0.0834966887417219	0.00593377483443711	-1.7282119205298	-2.46807947019868	-1.17748344370861				0.767788079470199	-0.222834437086093	-0.612238410596026	3.66039735099338	8.27761589403974	-16.714701986755			
99	2000	0.935841059602649	-0.205245033112583	-0.151523178807947	26.0733774834437	17.2153642384106	5.81509933774834				0.976953642384106	0.0317880794701987	0.0451390728476822	20.5939072847682	3.38781456953642	-7.86596026490066				0.933827814569536	-0.0972715231788079	-0.23194701986755	-1.11258278145695	7.14649006622517	12.1197350993378				0.608529801324503	-0.0325298013245033	-0.741721854304636	0.242913907284768	6.9035761589404	-7.33562913907285				0.964026490066225	0.0834966887417219	-0.0100662251655629	4.7117880794702	0.331920529801325	-1.45748344370861				0.751788079470199	-0.190834437086093	-0.612238410596026	1.70039735099338	0.437615894039735	-15.314701986755			
100	2020	0.951841059602649	-0.189245033112583	-0.151523178807947	8.15337748344371	15.5353642384106	8.05509933774835				0.944953642384106	-0.000211920529801304	0.0291390728476822	3.51390728476821	1.98781456953642	-4.50596026490066				0.933827814569536	-0.0492715231788079	-0.24794701986755	-5.03258278145695	7.42649006622517	9.31973509933775				0.672529801324503	-0.000529801324503289	-0.757721854304636	10.8829139072848	4.9435761589404	-6.21562913907285				0.980026490066225	0.115496688741722	-0.0260662251655629	8.0717880794702	-0.228079470198675	-1.17748344370861				0.767788079470199	-0.190834437086093	-0.628238410596026	1.98039735099338	0.437615894039735	-14.194701986755			
101	2040	0.999841059602649	0.00275496688741723	-0.151523178807947	-5.84662251655629	13.8553642384106	6.65509933774834				1.02495364238411	-0.0802119205298013	0.109139072847682	1.83390728476821	-11.1721854304636	3.61403973509934				0.949827814569536	-0.0172715231788079	-0.21594701986755	2.24741721854305	13.0264900662252	3.71973509933775				0.640529801324503	0.0314701986754967	-0.741721854304636	5.00291390728477	-5.6964238410596	-6.21562913907285				0.964026490066225	0.131496688741722	-0.0420662251655629	9.1917880794702	-3.58807947019868	-0.617483443708608				0.783788079470199	-0.222834437086093	-0.564238410596026	9.82039735099338	-2.36238410596027	-9.15470198675497			
102	2060	0.967841059602649	0.0827549668874172	-0.119523178807947	-0.806622516556291	14.6953642384106	1.33509933774834				1.00895364238411	-0.0962119205298013	-0.0508609271523178	-1.24609271523179	-18.4521854304636	8.65403973509934				0.981827814569536	-0.0972715231788079	-0.16794701986755	10.647417218543	9.38649006622517	0.35973509933775				0.592529801324503	-0.000529801324503289	-0.757721854304636	5.56291390728477	-4.8564238410596	-2.57562913907285				0.996026490066225	0.0514966887417219	0.0219337748344371	12.8317880794702	-3.86807947019868	0.782516556291392				0.799788079470199	-0.238834437086093	-0.548238410596027	-1.93960264900662	0.437615894039735	-6.35470198675497			
103	2080	0.983841059602649	0.00275496688741723	-0.087523178807947	10.9533774834437	11.8953642384106	-0.0649006622516557				0.960953642384106	-0.0642119205298013	-0.0188609271523178	-2.36609271523179	-15.0921854304636	10.0540397350993				0.949827814569536	-0.129271523178808	-0.19994701986755	11.207417218543	5.46649006622517	1.47973509933775				0.592529801324503	-0.0965298013245033	-0.789721854304636	14.2429139072848	-1.2164238410596	0.784370860927152				0.996026490066225	0.00349668874172187	0.00593377483443711	14.7917880794702	-4.98807947019868	3.02251655629139				0.815788079470199	-0.270834437086093	-0.564238410596026	0.580397350993377	-2.64238410596027	-4.67470198675497			
104	2100	0.967841059602649	-0.0292450331125828	-0.055523178807947	7.31337748344371	6.0153642384106	1.89509933774834				0.976953642384106	-0.0322119205298013	-0.0348609271523178	1.27390728476821	-6.97218543046358	7.53403973509934				0.949827814569536	-0.113271523178808	-0.21594701986755	5.88741721854305	3.50649006622517	-1.04026490066225				0.560529801324503	-0.112529801324503	-0.789721854304636	11.1629139072848	-3.4564238410596	2.46437086092715				0.980026490066225	-0.0125033112582781	-0.0100662251655629	13.1117880794702	-4.70807947019868	4.42251655629139				0.831788079470199	-0.302834437086093	-0.580238410596026	-0.259602649006623	-6.56238410596027	-4.95470198675497			
105	2120	0.951841059602649	-0.0132450331125828	-0.055523178807947	1.15337748344371	6.8553642384106	3.57509933774835				0.960953642384106	-0.0322119205298013	-0.0188609271523178	-1.80609271523179	2.26781456953642	5.29403973509934				0.949827814569536	-0.0812715231788079	-0.16794701986755	-3.35258278145695	2.66649006622517	-0.20026490066225				0.560529801324503	-0.128529801324503	-0.805721854304636	14.2429139072848	-11.0164238410596	3.86437086092715				0.980026490066225	-0.0125033112582781	0.00593377483443711	8.6317880794702	-2.18807947019868	6.94251655629139				0.815788079470199	-0.302834437086093	-0.580238410596026	3.94039735099338	-10.4823841059603	-3.83470198675497			
106	2140	0.967841059602649	0.00275496688741723	-0.023523178807947	-1.92662251655629	9.0953642384106	3.01509933774834				0.976953642384106	-0.0482119205298013	0.0131390728476822	-4.32609271523179	5.62781456953642	3.05403973509934				0.949827814569536	-0.0972715231788079	-0.13594701986755	-1.67258278145695	6.02649006622517	2.31973509933775				0.592529801324503	-0.128529801324503	-0.821721854304636	8.08291390728477	-18.5764238410596	5.82437086092715				0.964026490066225	-0.0125033112582781	0.0379337748344371	6.1117880794702	-0.228079470198675	8.06251655629139				0.783788079470199	-0.318834437086093	-0.580238410596026	3.38039735099338	-13.0023841059603	-2.99470198675497			
107	2160	0.999841059602649	0.0347549668874172	-0.087523178807947	-3.60662251655629	2.6553642384106	1.61509933774834				0.976953642384106	-0.0322119205298013	0.0291390728476822	-4.04609271523179	-1.09218543046358	1.93403973509934				0.933827814569536	-0.113271523178808	-0.11994701986755	10.367417218543	6.86649006622517	4.55973509933775				0.640529801324503	-0.128529801324503	-0.837721854304636	3.04291390728477	-21.3764238410596	10.0243708609272				0.964026490066225	0.00349668874172187	0.0379337748344371	3.8717880794702	-1.90807947019868	7.78251655629139				0.767788079470199	-0.334834437086093	-0.564238410596026	-0.539602649006623	-13.8423841059603	0.925298013245032			
108	2180	0.967841059602649	0.0507549668874172	-0.087523178807947	0.593377483443709	0.415364238410596	0.775099337748344				0.960953642384106	-0.0322119205298013	0.0131390728476822	2.95390728476821	3.66781456953642	4.17403973509934				0.949827814569536	-0.0812715231788079	-0.11994701986755	7.84741721854305	11.0664900662252	5.95973509933775				0.624529801324503	-0.128529801324503	-0.821721854304636	-5.35708609271523	-20.2564238410596	10.8643708609272				0.996026490066225	0.0194966887417219	-0.0260662251655629	1.0717880794702	-2.18807947019868	8.06251655629139				0.751788079470199	-0.286834437086093	-0.564238410596026	1.14039735099338	-15.8023841059603	4.56529801324503			
109	2200	0.951841059602649	-0.0292450331125828	-0.023523178807947	1.99337748344371	1.2553642384106	1.33509933774834				0.976953642384106	-0.0482119205298013	0.0131390728476822	5.47390728476821	3.94781456953642	6.41403973509934				0.981827814569536	-0.113271523178808	-0.13594701986755	-2.23258278145695	5.46649006622517	5.11973509933775				0.560529801324503	-0.0965298013245033	-0.821721854304636	-10.3970860927152	-23.8964238410596	8.90437086092715				0.964026490066225	0.0194966887417219	0.00593377483443711	3.0317880794702	5.93192052980133	7.22251655629139				0.751788079470199	-0.270834437086093	-0.596238410596026	0.300397350993377	-16.0823841059603	9.32529801324503			
110	2220	0.951841059602649	-0.0772450331125828	-0.00752317880794696	2.83337748344371	2.0953642384106	1.61509933774834				0.960953642384106	-0.0802119205298013	0.0131390728476822	3.79390728476821	13.1878145695364	4.45403973509934				0.965827814569536	-0.0812715231788079	-0.19994701986755	0.00741721854304636	4.06649006622517	2.31973509933775				0.528529801324503	-0.0485298013245033	-0.789721854304636	-11.7970860927152	-28.0964238410596	8.90437086092715				0.948026490066225	-0.0125033112582781	0.00593377483443711	-1.4482119205298	4.53192052980133	6.94251655629139				0.719788079470199	-0.254834437086093	-0.580238410596026	6.18039735099338	-19.4423841059603	11.005298013245			
111	2240	0.967841059602649	-0.0452450331125828	-0.023523178807947	-5.28662251655629	0.135364238410596	1.61509933774834				0.992953642384106	-0.0482119205298013	0.125139072847682	-1.52609271523179	9.54781456953642	3.89403973509934				0.933827814569536	-0.0332715231788079	-0.18394701986755	-1.95258278145695	8.26649006622517	-0.76026490066225				0.528529801324503	-0.0645298013245033	-0.773721854304636	-12.0770860927152	-35.0964238410596	11.9843708609272				0.932026490066225	0.00349668874172187	0.00593377483443711	-0.888211920529802	5.09192052980133	8.06251655629139				0.703788079470199	-0.222834437086093	-0.548238410596027	0.300397350993377	-15.8023841059603	15.485298013245			
112	2260	0.967841059602649	0.0347549668874172	-0.055523178807947	-12.8466225165563	-0.144635761589404	1.33509933774834				0.960953642384106	-0.0162119205298013	0.0451390728476822	-0.966092715231788	-4.17218543046358	3.33403973509934				0.933827814569536	-0.0172715231788079	-0.18394701986755	-3.07258278145695	5.46649006622517	-0.20026490066225				0.512529801324503	-0.0965298013245033	-0.821721854304636	-10.9570860927152	-30.6164238410596	15.6243708609272				0.948026490066225	0.0194966887417219	0.00593377483443711	-0.0482119205298018	5.37192052980133	8.06251655629139				0.719788079470199	-0.238834437086093	-0.548238410596027	3.38039735099338	-9.08238410596027	16.885298013245			
113	2280	0.967841059602649	0.0667549668874172	-0.039523178807947	-7.52662251655629	0.415364238410596	0.775099337748344				0.944953642384106	-0.000211920529801304	-0.00286092715231785	4.07390728476821	-2.21218543046358	3.05403973509934				0.949827814569536	-0.0812715231788079	-0.19994701986755	6.72741721854305	1.54649006622517	1.19973509933775				0.464529801324503	-0.144529801324503	-0.789721854304636	-17.6770860927152	-15.7764238410596	9.74437086092715				0.948026490066225	0.00349668874172187	-0.0100662251655629	-1.7282119205298	7.61192052980133	6.66251655629139				0.735788079470199	-0.270834437086093	-0.532238410596027	5.34039735099338	-9.08238410596027	13.805298013245			
114	2300	0.999841059602649	0.0667549668874172	-0.071523178807947	0.873377483443709	0.415364238410596	0.495099337748344				0.976953642384106	-0.0482119205298013	0.0291390728476822	4.07390728476821	6.18781456953642	5.85403973509934				0.949827814569536	-0.0972715231788079	-0.24794701986755	8.12741721854305	0.426490066225167	0.91973509933775				0.432529801324503	-0.0485298013245033	-0.741721854304636	-25.7970860927152	-12.9764238410596	3.02437086092715				0.900026490066225	-0.0125033112582781	0.00593377483443711	-7.3282119205298	12.6519205298013	6.94251655629139				0.703788079470199	-0.286834437086093	-0.516238410596026	3.66039735099338	-8.52238410596027	12.125298013245			
115	2320	0.967841059602649	0.0507549668874172	-0.071523178807947	0.873377483443709	-2.1046357615894	1.33509933774834				0.976953642384106	-0.0482119205298013	0.0131390728476822	2.11390728476821	4.50781456953642	4.45403973509934				0.949827814569536	-0.0492715231788079	-0.21594701986755	-2.79258278145695	-1.25350993377483	1.47973509933775				0.432529801324503	0.0474701986754967	-0.725721854304636	-24.9570860927152	-14.3764238410596	10.0243708609272				0.900026490066225	0.00349668874172187	0.0539337748344371	-9.5682119205298	14.8919205298013	8.62251655629139				0.719788079470199	-0.286834437086093	-0.548238410596027	-1.37960264900662	-6.28238410596027	13.805298013245			
116	2340	0.935841059602649	-0.0132450331125828	-0.087523178807947	4.79337748344371	-1.2646357615894	1.05509933774834				0.960953642384106	-0.0322119205298013	0.0131390728476822	-2.36609271523179	0.307814569536424	1.09403973509934				0.917827814569536	-0.0492715231788079	-0.21594701986755	-2.23258278145695	-0.413509933774833	0.35973509933775				0.464529801324503	-0.000529801324503289	-0.773721854304636	-0.317086092715232	-16.0564238410596	19.8243708609272				0.932026490066225	0.0194966887417219	0.0379337748344371	-10.1282119205298	11.5319205298013	11.1425165562914				0.751788079470199	-0.302834437086093	-0.580238410596026	3.66039735099338	-2.92238410596027	17.445298013245			
117	2360	0.967841059602649	-0.0292450331125828	-0.103523178807947	2.27337748344371	-0.424635761589404	-0.344900662251656				0.976953642384106	-0.0322119205298013	-0.00286092715231785	0.433907284768212	3.94781456953642	1.37403973509934				0.917827814569536	-0.0652715231788079	-0.23194701986755	-1.11258278145695	-2.37350993377483	-0.20026490066225				0.544529801324503	-0.160529801324503	-0.821721854304636	10.3229139072848	-11.2964238410596	18.9843708609272				0.948026490066225	0.00349668874172187	0.0539337748344371	-8.7282119205298	16.5719205298013	13.9425165562914				0.751788079470199	-0.350834437086093	-0.596238410596026	3.66039735099338	-5.44238410596027	22.205298013245			
118	2380	0.967841059602649	-0.0132450331125828	-0.119523178807947	-1.08662251655629	0.975364238410596	-0.0649006622516557				1.00895364238411	-0.0802119205298013	0.0451390728476822	6.03390728476821	1.14781456953642	3.05403973509934				0.933827814569536	-0.0332715231788079	-0.24794701986755	-2.23258278145695	-0.133509933774833	0.0797350993377501				0.576529801324503	-0.128529801324503	-0.805721854304636	-12.3570860927152	-7.9364238410596	19.2643708609272				0.980026490066225	-0.0285033112582781	0.0699337748344371	-7.8882119205298	23.2919205298013	11.9825165562914				0.751788079470199	-0.382834437086093	-0.596238410596026	-0.539602649006623	-9.36238410596027	26.125298013245			
119	2400	0.967841059602649	-0.0132450331125828	-0.135523178807947	-1.64662251655629	1.8153642384106	-0.344900662251656				1.02495364238411	-0.0962119205298013	0.0131390728476822	5.19390728476821	-2.21218543046358	3.05403973509934				0.949827814569536	-0.0332715231788079	-0.21594701986755	4.20741721854305	0.706490066225167	-1.32026490066225				0.544529801324503	-0.0485298013245033	-0.789721854304636	-22.1570860927152	-12.1364238410596	22.9043708609272				0.980026490066225	-0.0445033112582781	0.0859337748344371	-12.3682119205298	22.7319205298013	12.8225165562914				0.703788079470199	-0.366834437086093	-0.596238410596026	-5.01960264900662	-10.7623841059603	27.525298013245			
120	2420	0.967841059602649	0.00275496688741723	-0.119523178807947	1.15337748344371	0.975364238410596	-0.624900662251656				0.992953642384106	-0.0802119205298013	-0.00286092715231785	-1.80609271523179	3.10781456953642	2.49403973509934				0.981827814569536	-0.0652715231788079	-0.21594701986755	10.367417218543	0.986490066225167	-2.16026490066225				0.528529801324503	-0.0325298013245033	-0.773721854304636	-11.5170860927152	-23.6164238410596	28.7843708609272				0.964026490066225	-0.0765033112582781	0.0699337748344371	-14.0482119205298	15.7319205298013	14.2225165562914				0.687788079470199	-0.334834437086093	-0.596238410596026	-1.93960264900662	-12.1623841059603	28.365298013245			
121	2440	0.967841059602649	-0.0292450331125828	-0.135523178807947	1.15337748344371	-2.1046357615894	-1.74490066225166				0.944953642384106	-0.0802119205298013	0.0131390728476822	-10.7660927152318	8.70781456953642	1.65403973509934				0.949827814569536	-0.0972715231788079	-0.21594701986755	6.16741721854305	1.54649006622517	-3.28026490066225				0.560529801324503	-0.0645298013245033	-0.853721854304636	-0.0370860927152318	-27.2564238410596	26.8243708609272				0.980026490066225	-0.0445033112582781	0.0699337748344371	-13.4882119205298	13.7719205298013	13.9425165562914				0.703788079470199	-0.302834437086093	-0.596238410596026	-0.819602649006623	-12.4423841059603	26.965298013245			
122	2460	0.951841059602649	-0.0292450331125828	-0.103523178807947	-2.76662251655629	-3.2246357615894	-1.18490066225166				0.976953642384106	-0.0322119205298013	0.0611390728476822	-7.40609271523179	7.30781456953642	2.49403973509934				0.901827814569536	-0.0972715231788079	-0.18394701986755	2.80741721854305	2.66649006622517	-3.84026490066225				0.592529801324503	-0.128529801324503	-0.869721854304636	-6.19708609271523	-22.2164238410596	21.5043708609272				0.964026490066225	-0.0285033112582781	0.0859337748344371	-11.2482119205298	14.8919205298013	13.1025165562914				0.687788079470199	-0.302834437086093	-0.612238410596026	1.98039735099338	-14.9623841059603	24.165298013245			
123	2480	0.951841059602649	-0.0132450331125828	-0.103523178807947	-5.84662251655629	-3.2246357615894	-0.344900662251656				1.00895364238411	-0.0162119205298013	0.0291390728476822	-2.64609271523179	-2.49218543046358	3.89403973509934				0.949827814569536	-0.129271523178808	-0.16794701986755	2.24741721854305	2.10649006622517	-2.72026490066225				0.496529801324503	-0.0645298013245033	-0.821721854304636	-17.9570860927152	-21.3764238410596	18.7043708609272				0.980026490066225	-0.0125033112582781	0.0699337748344371	-11.2482119205298	19.9319205298013	10.0225165562914				0.655788079470199	-0.302834437086093	-0.596238410596026	2.26039735099338	-14.4023841059603	19.405298013245			
124	2500	0.951841059602649	0.00275496688741723	-0.055523178807947	-5.28662251655629	1.2553642384106	-2.02490066225166				0.992953642384106	-0.0482119205298013	-0.00286092715231785	0.433907284768212	-8.65218543046358	5.29403973509934				0.949827814569536	-0.129271523178808	-0.19994701986755	0.287417218543046	-0.973509933774833	-1.32026490066225				0.480529801324503	0.0154701986754967	-0.821721854304636	-17.6770860927152	-26.1364238410596	18.1443708609272				0.948026490066225	-0.0445033112582781	0.0859337748344371	-10.9682119205298	20.2119205298013	9.74251655629139				0.639788079470199	-0.318834437086093	-0.596238410596026	0.860397350993377	-14.6823841059603	15.765298013245			
125	2520	0.951841059602649	0.0347549668874172	-0.119523178807947	6.47337748344371	-2.6646357615894	0.215099337748344				0.960953642384106	-0.0802119205298013	-0.0188609271523178	-2.92609271523179	-4.73218543046358	6.69403973509934				0.949827814569536	-0.0972715231788079	-0.21594701986755	-3.35258278145695	-0.133509933774833	-1.88026490066225				0.528529801324503	-0.0645298013245033	-0.789721854304636	-6.75708609271523	-29.2164238410596	16.4643708609272				0.964026490066225	-0.0445033112582781	0.117933774834437	-9.0082119205298	19.9319205298013	9.74251655629139				0.639788079470199	-0.318834437086093	-0.612238410596026	2.82039735099338	-14.1223841059603	14.925298013245			
126	2540	0.951841059602649	0.00275496688741723	-0.071523178807947	-5.28662251655629	-0.704635761589404	-2.30490066225166				1.00895364238411	-0.0642119205298013	0.0451390728476822	-6.28609271523179	-0.252185430463576	5.29403973509934				0.949827814569536	-0.0492715231788079	-0.18394701986755	-3.35258278145695	2.94649006622517	-3.84026490066225				0.576529801324503	-0.128529801324503	-0.869721854304636	1.36291390728477	-20.8164238410596	18.9843708609272				1.01202649006623	-0.0605033112582781	0.0859337748344371	-10.6882119205298	15.4519205298013	9.18251655629139				0.671788079470199	-0.334834437086093	-0.644238410596026	4.22039735099338	-12.4423841059603	15.765298013245			
127	2560	0.951841059602649	0.00275496688741723	-0.071523178807947	-2.76662251655629	0.695364238410596	-2.86490066225166				1.00895364238411	-0.0162119205298013	0.0451390728476822	-4.60609271523179	-6.69218543046358	8.09403973509934				0.981827814569536	-0.0332715231788079	-0.16794701986755	0.00741721854304636	5.46649006622517	-4.12026490066225				0.480529801324503	-0.112529801324503	-0.837721854304636	-5.35708609271523	-21.6564238410596	17.3043708609272				0.996026490066225	-0.0765033112582781	0.0859337748344371	-5.9282119205298	10.6919205298013	9.18251655629139				0.671788079470199	-0.366834437086093	-0.660238410596027	8.98039735099338	-13.8423841059603	16.325298013245			
128	2580	0.967841059602649	-0.0132450331125828	-0.071523178807947	-2.20662251655629	3.4953642384106	-3.42490066225166				0.976953642384106	-0.0482119205298013	-0.0188609271523178	-2.36609271523179	-5.01218543046358	8.37403973509934				0.965827814569536	-0.0652715231788079	-0.19994701986755	-2.51258278145695	3.50649006622517	-2.16026490066225				0.432529801324503	-0.0645298013245033	-0.837721854304636	-14.3170860927152	-26.9764238410596	13.9443708609272				0.964026490066225	-0.0605033112582781	0.0859337748344371	-6.4882119205298	15.7319205298013	10.5825165562914				0.639788079470199	-0.382834437086093	-0.660238410596027	1.98039735099338	-14.4023841059603	16.045298013245			
129	2600	0.967841059602649	0.0187549668874172	-0.055523178807947	-4.72662251655629	2.3753642384106	-2.86490066225166				0.944953642384106	-0.0642119205298013	-0.0188609271523178	0.713907284768212	-0.252185430463576	6.41403973509934				0.933827814569536	-0.0812715231788079	-0.19994701986755	4.76741721854305	4.34649006622517	-2.72026490066225				0.448529801324503	-0.0485298013245033	-0.869721854304636	2.20291390728477	-23.3364238410596	13.3843708609272				0.964026490066225	-0.0765033112582781	0.101933774834437	-5.9282119205298	18.5319205298013	10.8625165562914				0.639788079470199	-0.398834437086093	-0.644238410596026	1.14039735099338	-14.1223841059603	17.725298013245			
130	2620	0.967841059602649	0.0347549668874172	-0.055523178807947	-5.84662251655629	-1.2646357615894	-1.18490066225166				0.960953642384106	-0.0162119205298013	0.0291390728476822	3.51390728476821	-1.09218543046358	7.53403973509934				0.933827814569536	-0.0332715231788079	-0.16794701986755	5.60741721854305	7.14649006622517	-5.24026490066225				0.448529801324503	-0.0805298013245033	-0.853721854304636	7.24291390728477	-16.3364238410596	10.0243708609272				0.964026490066225	-0.0925033112582781	0.117933774834437	-4.2482119205298	15.4519205298013	8.62251655629139				0.639788079470199	-0.382834437086093	-0.660238410596027	6.74039735099338	-16.3623841059603	18.285298013245			
131	2640	0.967841059602649	0.0347549668874172	-0.023523178807947	-4.44662251655629	-0.424635761589404	-2.30490066225166				0.992953642384106	-0.0322119205298013	0.0291390728476822	-0.406092715231788	-1.37218543046358	8.37403973509934				0.965827814569536	-0.0172715231788079	-0.16794701986755	2.52741721854305	5.18649006622517	-4.12026490066225				0.416529801324503	-0.128529801324503	-0.853721854304636	-3.67708609271523	-20.5364238410596	2.74437086092715				0.932026490066225	-0.108503311258278	0.117933774834437	-7.8882119205298	13.4919205298013	7.22251655629139				0.607788079470199	-0.382834437086093	-0.644238410596026	6.18039735099338	-19.7223841059603	18.285298013245			
132	2660	0.967841059602649	0.0507549668874172	-0.071523178807947	-2.20662251655629	2.9353642384106	-3.70490066225166				0.976953642384106	-0.0642119205298013	-0.00286092715231785	-6.56609271523179	1.98781456953642	6.69403973509934				0.949827814569536	-0.0492715231788079	-0.18394701986755	2.52741721854305	3.50649006622517	-3.28026490066225				0.400529801324503	-0.0485298013245033	-0.853721854304636	-13.1970860927152	-23.3364238410596	2.74437086092715				0.932026490066225	-0.0765033112582781	0.117933774834437	-11.5282119205298	17.1319205298013	8.34251655629139				0.575788079470199	-0.366834437086093	-0.628238410596026	3.10039735099338	-15.5223841059603	19.965298013245			
133	2680	0.951841059602649	0.0507549668874172	-0.071523178807947	-1.92662251655629	2.6553642384106	-2.58490066225166				0.960953642384106	-0.0642119205298013	0.0131390728476822	-1.52609271523179	5.90781456953642	2.77403973509934				0.949827814569536	-0.0492715231788079	-0.18394701986755	3.92741721854305	3.50649006622517	-2.44026490066225				0.432529801324503	-0.0485298013245033	-0.837721854304636	-3.95708609271523	-18.2964238410596	4.42437086092715				0.948026490066225	-0.0765033112582781	0.133933774834437	-9.2882119205298	19.3719205298013	7.78251655629139				0.575788079470199	-0.382834437086093	-0.628238410596026	8.42039735099338	-16.6423841059603	16.605298013245			
134	2700	0.983841059602649	0.0187549668874172	-0.071523178807947	-1.08662251655629	2.3753642384106	-2.30490066225166				0.976953642384106	-0.0162119205298013	0.0451390728476822	2.67390728476821	1.98781456953642	3.61403973509934				0.965827814569536	-0.0332715231788079	-0.16794701986755	0.287417218543046	1.54649006622517	-3.00026490066225				0.416529801324503	-0.0645298013245033	-0.837721854304636	-0.317086092715232	-11.8564238410596	2.46437086092715				0.964026490066225	-0.0925033112582781	0.165933774834437	-8.4482119205298	19.3719205298013	4.70251655629139				0.591788079470199	-0.366834437086093	-0.612238410596026	14.0203973509934	-16.0823841059603	16.325298013245			
135	2720	0.967841059602649	0.0187549668874172	-0.087523178807947	-4.44662251655629	-0.144635761589404	-1.18490066225166				0.992953642384106	-0.0322119205298013	0.0291390728476822	-1.24609271523179	0.587814569536424	4.17403973509934				0.949827814569536	-0.0332715231788079	-0.16794701986755	-3.35258278145695	0.426490066225167	-2.72026490066225				0.432529801324503	-0.0805298013245033	-0.837721854304636	-4.23708609271523	-5.9764238410596	2.74437086092715				0.948026490066225	-0.0605033112582781	0.149933774834437	-8.7282119205298	15.7319205298013	3.86251655629139				0.575788079470199	-0.382834437086093	-0.612238410596026	9.82039735099338	-14.9623841059603	15.485298013245			
136	2740	0.951841059602649	0.0347549668874172	-0.071523178807947	-7.52662251655629	1.5353642384106	-2.02490066225166				0.992953642384106	-0.0322119205298013	0.0131390728476822	-2.08609271523179	1.98781456953642	5.01403973509934				0.965827814569536	-0.0172715231788079	-0.18394701986755	-2.51258278145695	0.146490066225167	-1.88026490066225				0.432529801324503	-0.0645298013245033	-0.821721854304636	-2.27708609271523	1.5835761589404	5.82437086092715				0.964026490066225	-0.0765033112582781	0.149933774834437	-9.2882119205298	13.2119205298013	4.14251655629139				0.575788079470199	-0.398834437086093	-0.596238410596026	4.22039735099338	-12.1623841059603	14.645298013245			
137	2760	0.967841059602649	0.0347549668874172	-0.087523178807947	-8.36662251655629	3.2153642384106	-2.02490066225166				1.00895364238411	-0.000211920529801304	0.0611390728476822	-1.52609271523179	-1.09218543046358	4.73403973509934				0.949827814569536	-0.0172715231788079	-0.15194701986755	-1.67258278145695	-0.133509933774833	-0.76026490066225				0.448529801324503	-0.0485298013245033	-0.837721854304636	4.44291390728477	8.5835761589404	6.10437086092715				0.980026490066225	-0.0765033112582781	0.181933774834437	-11.2482119205298	11.5319205298013	4.14251655629139				0.591788079470199	-0.430834437086093	-0.612238410596026	5.62039735099338	-9.92238410596027	10.445298013245			
138	2780	0.983841059602649	0.0507549668874172	-0.071523178807947	-7.52662251655629	3.7753642384106	-1.18490066225166				0.976953642384106	-0.0642119205298013	0.125139072847682	7.71390728476821	-3.33218543046358	8.09403973509934				0.949827814569536	-0.0332715231788079	-0.16794701986755	-3.07258278145695	0.706490066225167	0.91973509933775				0.464529801324503	-0.0485298013245033	-0.853721854304636	6.68291390728477	13.9035761589404	8.62437086092715				1.01202649006623	-0.0765033112582781	0.149933774834437	-10.4082119205298	0.611920529801325	4.98251655629139				0.575788079470199	-0.414834437086093	-0.628238410596026	9.26039735099338	-8.24238410596027	7.36529801324503			
139	2800	0.967841059602649	0.0347549668874172	-0.071523178807947	-5.28662251655629	2.3753642384106	-0.344900662251656				0.960953642384106	-0.0482119205298013	0.0451390728476822	22.8339072847682	2.54781456953642	6.69403973509934				0.949827814569536	-0.0172715231788079	-0.16794701986755	-3.07258278145695	1.82649006622517	2.31973509933775				0.464529801324503	-0.0805298013245033	-0.869721854304636	12.0029139072848	14.7435761589404	11.7043708609272				0.948026490066225	-0.0765033112582781	0.165933774834437	-7.6082119205298	-2.18807947019868	3.02251655629139				0.575788079470199	-0.398834437086093	-0.628238410596026	7.30039735099338	-7.12238410596027	9.60529801324503			
140	2820	0.951841059602649	0.00275496688741723	-0.055523178807947	-5.00662251655629	1.8153642384106	-0.624900662251656				0.992953642384106	-0.0322119205298013	-0.00286092715231785	8.83390728476821	6.18781456953642	3.05403973509934				0.965827814569536	-0.0172715231788079	-0.16794701986755	-3.35258278145695	2.66649006622517	2.59973509933775				0.480529801324503	-0.0965298013245033	-0.933721854304636	12.2829139072848	14.4635761589404	10.0243708609272				0.916026490066225	-0.0765033112582781	0.181933774834437	-6.4882119205298	0.611920529801325	2.18251655629139				0.575788079470199	-0.414834437086093	-0.660238410596027	4.50039735099338	-4.32238410596027	12.125298013245			
141	2840	0.983841059602649	0.0187549668874172	-0.055523178807947	-7.24662251655629	1.8153642384106	-0.344900662251656				0.976953642384106	-0.0322119205298013	0.0291390728476822	11.6339072847682	4.78781456953642	3.33403973509934				0.949827814569536	-0.0332715231788079	-0.16794701986755	-5.31258278145695	3.50649006622517	0.91973509933775				0.464529801324503	-0.112529801324503	-0.917721854304636	5.28291390728477	9.7035761589404	7.50437086092715				0.932026490066225	-0.0765033112582781	0.181933774834437	-7.6082119205298	0.891920529801325	1.62251655629139				0.575788079470199	-0.414834437086093	-0.628238410596026	5.62039735099338	-3.76238410596027	9.04529801324503			
142	2860	0.967841059602649	0.0667549668874172	-0.071523178807947	-8.36662251655629	1.5353642384106	-1.18490066225166				0.976953642384106	-0.0482119205298013	0.0611390728476822	9.67390728476821	4.50781456953642	2.77403973509934				0.949827814569536	-0.0172715231788079	-0.16794701986755	-5.87258278145695	1.82649006622517	-0.20026490066225				0.480529801324503	-0.0965298013245033	-0.901721854304636	-5.07708609271523	4.6635761589404	6.94437086092715				0.932026490066225	-0.0925033112582781	0.165933774834437	-5.9282119205298	2.57192052980133	-0.897483443708608				0.575788079470199	-0.398834437086093	-0.612238410596026	6.18039735099338	-3.48238410596027	7.92529801324503			
143	2880	0.951841059602649	0.0667549668874172	-0.071523178807947	-5.56662251655629	2.0953642384106	-0.624900662251656				0.976953642384106	-0.0642119205298013	0.0611390728476822	5.47390728476821	3.94781456953642	2.77403973509934				0.965827814569536	-0.0172715231788079	-0.16794701986755	-5.31258278145695	1.82649006622517	0.91973509933775				0.480529801324503	-0.0965298013245033	-0.885721854304636	-8.43708609271523	1.8635761589404	6.94437086092715				0.932026490066225	-0.0765033112582781	0.181933774834437	-4.8082119205298	5.37192052980133	-2.01748344370861				0.575788079470199	-0.414834437086093	-0.612238410596026	7.58039735099338	-7.12238410596027	9.04529801324503			
144	2900	0.967841059602649	0.0507549668874172	-0.071523178807947	-4.72662251655629	0.415364238410596	-0.904900662251656				0.976953642384106	-0.0482119205298013	0.0451390728476822	2.95390728476821	0.867814569536424	2.49403973509934				0.949827814569536	-0.0332715231788079	-0.16794701986755	-6.15258278145695	-0.133509933774833	1.47973509933775				0.464529801324503	-0.0645298013245033	-0.869721854304636	-11.7970860927152	-0.9364238410596	4.98437086092715				0.932026490066225	-0.0765033112582781	0.197933774834437	-6.4882119205298	6.77192052980133	-3.41748344370861				0.575788079470199	-0.430834437086093	-0.596238410596026	6.18039735099338	-7.12238410596027	7.92529801324503			
145	2920	0.967841059602649	0.0347549668874172	-0.055523178807947	-3.04662251655629	-0.984635761589404	-0.0649006622516557				0.976953642384106	-0.0482119205298013	-0.00286092715231785	1.55390728476821	1.70781456953642	1.37403973509934				0.949827814569536	-0.0172715231788079	-0.18394701986755	-7.55258278145695	-2.37350993377483	1.75973509933775				0.448529801324503	-0.0485298013245033	-0.821721854304636	-10.3970860927152	1.8635761589404	4.14437086092715				0.932026490066225	-0.0765033112582781	0.197933774834437	-6.4882119205298	5.09192052980133	-4.53748344370861				0.575788079470199	-0.430834437086093	-0.596238410596026	2.82039735099338	-5.16238410596027	5.68529801324503			
146	2940	0	0	0	0	0	0				0	0	0	0	0	0				0	0	0	0	0	0				0.448529801324503	-0.0485298013245033	-0.805721854304636	-6.47708609271523	4.3835761589404	3.58437086092715				0.932026490066225	-0.0765033112582781	0.197933774834437	-3.6882119205298	7.05192052980133	-3.69748344370861				0.559788079470199	-0.430834437086093	-0.612238410596026	8.42039735099338	-3.48238410596027	3.44529801324503			
147	2960	0	0	0	0	0	0				1.00895364238411	-0.0162119205298013	-0.00286092715231785	6.03390728476821	1.98781456953642	0.81403973509934				0.981827814569536	-0.0172715231788079	-0.18394701986755	-5.87258278145695	-1.81350993377483	2.03973509933775				0	0	0	0	0	0				0	0	0	0	0	0				0	0	0	0	0	0			
148	2980	0.983841059602649	0.0347549668874172	-0.071523178807947	-4.72662251655629	-0.984635761589404	-0.344900662251656				1.04095364238411	-0.0642119205298013	-0.00286092715231785	13.0339072847682	1.14781456953642	3.61403973509934				0.965827814569536	-0.0332715231788079	-0.16794701986755	-3.91258278145695	-2.09350993377483	2.59973509933775				0.464529801324503	-0.0325298013245033	-0.821721854304636	1.36291390728477	14.7435761589404	3.58437086092715				0.980026490066225	-0.0605033112582781	0.181933774834437	-1.7282119205298	7.05192052980133	-3.69748344370861				0.575788079470199	-0.478834437086093	-0.628238410596026	7.86039735099338	-3.76238410596027	2.60529801324503			
149	3000	0.967841059602649	0.0507549668874172	-0.039523178807947	-2.48662251655629	0.415364238410596	-0.0649006622516557				0.976953642384106	-0.0802119205298013	-0.0348609271523178	11.9139072847682	0.867814569536424	3.89403973509934				0.933827814569536	-0.0652715231788079	-0.21594701986755	-2.51258278145695	-2.09350993377483	4.83973509933775				0.464529801324503	-0.000529801324503289	-0.821721854304636	3.04291390728477	19.2235761589404	1.34437086092715				0.996026490066225	-0.0765033112582781	0.181933774834437	0.231788079470198	5.65192052980133	-1.73748344370861				0.591788079470199	-0.478834437086093	-0.612238410596026	6.18039735099338	-1.52238410596026	4.56529801324503			
150	3020	0.967841059602649	0.0347549668874172	-0.055523178807947	-0.806622516556291	-1.5446357615894	-0.0649006622516557				0.944953642384106	-0.0962119205298013	0.0451390728476822	2.11390728476821	9.26781456953642	1.93403973509934				0.933827814569536	-0.0492715231788079	-0.19994701986755	-5.03258278145695	0.426490066225167	5.11973509933775				0.464529801324503	-0.0325298013245033	-0.821721854304636	8.92291390728477	17.8235761589404	0.504370860927152				0.948026490066225	-0.0765033112582781	0.197933774834437	3.0317880794702	7.89192052980133	-0.617483443708608				0.607788079470199	-0.462834437086093	-0.644238410596026	0.580397350993377	1.55761589403974	5.40529801324503			
151	3040	0.967841059602649	0.0187549668874172	-0.071523178807947	3.11337748344371	-1.5446357615894	-0.0649006622516557				0.976953642384106	-0.128211920529801	0.0771390728476822	1.83390728476821	6.46781456953642	-0.86596026490066				0.949827814569536	-0.0332715231788079	-0.18394701986755	-3.35258278145695	1.82649006622517	4.27973509933775				0.480529801324503	-0.0805298013245033	-0.821721854304636	9.76291390728477	15.3035761589404	0.224370860927152				0.932026490066225	-0.0925033112582781	0.181933774834437	2.1917880794702	1.45192052980132	0.222516556291392				0.575788079470199	-0.446834437086093	-0.644238410596026	3.10039735099338	2.11761589403974	4.56529801324503			
152	3060	0.951841059602649	-0.0292450331125828	-0.087523178807947	6.19337748344371	-2.1046357615894	-0.624900662251656				0.960953642384106	-0.0962119205298013	0.0611390728476822	3.51390728476821	6.74781456953642	-0.585960264900661				0.965827814569536	-0.0652715231788079	-0.19994701986755	-0.272582781456954	0.706490066225167	2.87973509933775				0.480529801324503	-0.0805298013245033	-0.853721854304636	6.96291390728477	13.3435761589404	-0.615629139072848				0.932026490066225	-0.0925033112582781	0.197933774834437	-1.7282119205298	4.81192052980133	-0.897483443708608				0.543788079470199	-0.446834437086093	-0.612238410596026	2.82039735099338	1.55761589403974	4.56529801324503			
153	3080	0.951841059602649	-0.0452450331125828	-0.087523178807947	3.39337748344371	-1.5446357615894	-0.624900662251656				0.976953642384106	-0.0802119205298013	0.0771390728476822	-0.966092715231788	7.58781456953643	0.25403973509934				0.949827814569536	-0.0652715231788079	-0.21594701986755	0.287417218543046	-0.413509933774833	2.03973509933775				0.448529801324503	-0.0645298013245033	-0.837721854304636	2.20291390728477	14.7435761589404	-0.895629139072848				0.900026490066225	-0.0765033112582781	0.229933774834437	-0.888211920529802	5.09192052980133	0.502516556291392				0.527788079470199	-0.430834437086093	-0.612238410596026	3.38039735099338	1.55761589403974	3.72529801324503			
154	3100	0.967841059602649	-0.0292450331125828	-0.119523178807947	-0.246622516556291	-1.5446357615894	-1.18490066225166				0.976953642384106	-0.112211920529801	0.0451390728476822	0.713907284768212	-1.65218543046358	0.81403973509934				0.949827814569536	-0.0652715231788079	-0.18394701986755	-0.832582781456954	-2.09350993377483	0.0797350993377501				0.464529801324503	-0.0645298013245033	-0.821721854304636	2.48291390728477	16.9835761589404	-0.0556291390728476				0.916026490066225	-0.0765033112582781	0.181933774834437	1.0717880794702	3.97192052980133	-0.617483443708608				0.543788079470199	-0.414834437086093	-0.612238410596026	5.34039735099338	2.39761589403974	0.365298013245032			
155	3120	0.967841059602649	0.00275496688741723	-0.087523178807947	-1.64662251655629	-1.2646357615894	-0.344900662251656				0.960953642384106	-0.0802119205298013	0.0131390728476822	2.95390728476821	-0.812185430463576	2.21403973509934				0.949827814569536	-0.0652715231788079	-0.18394701986755	-1.67258278145695	-3.49350993377483	-0.76026490066225				0.496529801324503	-0.0805298013245033	-0.805721854304636	6.68291390728477	16.1435761589404	2.18437086092715				0.932026490066225	-0.0605033112582781	0.213933774834437	2.4717880794702	4.81192052980133	-0.337483443708608				0.575788079470199	-0.446834437086093	-0.628238410596026	6.18039735099338	3.23761589403974	-2.43470198675497			
156	3140	0.951841059602649	0.0347549668874172	-0.087523178807947	-2.20662251655629	-2.3846357615894	-0.624900662251656				0.976953642384106	-0.0962119205298013	0.0611390728476822	2.95390728476821	0.867814569536424	3.61403973509934				0.949827814569536	-0.0652715231788079	-0.19994701986755	-1.95258278145695	-3.49350993377483	-0.48026490066225				0.512529801324503	-0.0805298013245033	-0.821721854304636	6.96291390728477	14.1835761589404	1.34437086092715				0.948026490066225	-0.0605033112582781	0.213933774834437	1.9117880794702	2.85192052980133	0.502516556291392				0.575788079470199	-0.478834437086093	-0.612238410596026	5.34039735099338	1.55761589403974	-2.43470198675497			
157	3160	0.983841059602649	0.0187549668874172	-0.103523178807947	-0.806622516556291	-2.3846357615894	-0.904900662251656				0.992953642384106	-0.0962119205298013	0.0451390728476822	1.55390728476821	-0.252185430463576	4.73403973509934				0.933827814569536	-0.0812715231788079	-0.19994701986755	-1.11258278145695	-0.133509933774833	0.0797350993377501				0.512529801324503	-0.0645298013245033	-0.821721854304636	5.56291390728477	11.9435761589404	3.30437086092715				0.964026490066225	-0.0765033112582781	0.213933774834437	2.1917880794702	2.29192052980133	1.62251655629139				0.607788079470199	-0.494834437086093	-0.628238410596026	4.50039735099338	3.51761589403974	-1.59470198675497			
158	3180	0.951841059602649	0.0187549668874172	-0.087523178807947	0.313377483443709	-2.3846357615894	-1.74490066225166				1.00895364238411	-0.0802119205298013	0.0451390728476822	4.63390728476821	1.42781456953642	4.45403973509934				0.965827814569536	-0.0492715231788079	-0.19994701986755	-2.51258278145695	0.426490066225167	-0.48026490066225				0.512529801324503	-0.0805298013245033	-0.837721854304636	8.08291390728477	9.1435761589404	3.02437086092715				0.964026490066225	-0.0925033112582781	0.197933774834437	2.4717880794702	0.611920529801325	3.58251655629139				0.623788079470199	-0.494834437086093	-0.660238410596027	1.42039735099338	2.11761589403974	-0.754701986754968			
159	3200	0.967841059602649	-0.0132450331125828	-0.055523178807947	1.71337748344371	-1.2646357615894	-1.74490066225166				0.992953642384106	-0.0962119205298013	0.0451390728476822	4.91390728476821	1.70781456953642	4.73403973509934				0.965827814569536	-0.0492715231788079	-0.21594701986755	-0.552582781456954	0.146490066225167	-0.20026490066225				0.512529801324503	-0.0965298013245033	-0.837721854304636	5.28291390728477	8.3035761589404	2.74437086092715				0.964026490066225	-0.0925033112582781	0.213933774834437	2.4717880794702	2.57192052980133	3.86251655629139				0.623788079470199	-0.494834437086093	-0.660238410596027	2.82039735099338	-2.36238410596027	-0.194701986754968			
160	3220	0.967841059602649	0.00275496688741723	-0.071523178807947	1.99337748344371	-0.704635761589404	-1.74490066225166				0.960953642384106	-0.112211920529801	0.0611390728476822	3.23390728476821	-2.49218543046358	3.33403973509934				0.933827814569536	-0.0652715231788079	-0.19994701986755	-0.552582781456954	0.146490066225167	0.35973509933775				0.496529801324503	-0.0805298013245033	-0.821721854304636	0.242913907284768	8.5835761589404	3.86437086092715				0.964026490066225	-0.0925033112582781	0.213933774834437	0.511788079470198	1.45192052980132	2.74251655629139				0.607788079470199	-0.494834437086093	-0.644238410596026	1.14039735099338	-6.84238410596027	2.32529801324503			
161	3240	0.967841059602649	0.0187549668874172	-0.055523178807947	1.43337748344371	-1.5446357615894	-2.02490066225166				0.960953642384106	-0.0802119205298013	0.0611390728476822	-0.966092715231788	-4.17218543046358	1.65403973509934				0.933827814569536	-0.0652715231788079	-0.19994701986755	-0.272582781456954	-0.973509933774833	-0.20026490066225				0.464529801324503	-0.0805298013245033	-0.789721854304636	3.88291390728477	5.7835761589404	3.02437086092715				0.932026490066225	-0.0765033112582781	0.197933774834437	-1.7282119205298	-0.508079470198675	4.42251655629139				0.575788079470199	-0.478834437086093	-0.644238410596026	-1.65960264900662	-10.2023841059603	4.84529801324503			
162	3260	0.967841059602649	0.0187549668874172	-0.119523178807947	1.15337748344371	-0.704635761589404	-2.58490066225166				0.992953642384106	-0.0962119205298013	0.0291390728476822	-2.36609271523179	1.14781456953642	3.61403973509934				0.949827814569536	-0.0492715231788079	-0.19994701986755	-0.832582781456954	-1.81350993377483	-0.76026490066225				0.480529801324503	-0.0805298013245033	-0.805721854304636	7.24291390728477	3.8235761589404	3.86437086092715				0.932026490066225	-0.0765033112582781	0.197933774834437	-0.608211920529802	-0.228079470198675	4.70251655629139				0.575788079470199	-0.462834437086093	-0.628238410596026	-2.77960264900662	-9.64238410596027	5.68529801324503			
163	3280	0.967841059602649	0.00275496688741723	-0.087523178807947	0.593377483443709	-0.424635761589404	-2.58490066225166				0.976953642384106	-0.112211920529801	0.0611390728476822	-2.36609271523179	-1.65218543046358	5.01403973509934				0.949827814569536	-0.0492715231788079	-0.19994701986755	0.00741721854304636	-1.53350993377483	-1.60026490066225				0.496529801324503	-0.0965298013245033	-0.821721854304636	9.20291390728477	4.1035761589404	5.54437086092715				0.948026490066225	-0.0925033112582781	0.197933774834437	0.231788079470198	0.611920529801325	5.54251655629139				0.559788079470199	-0.446834437086093	-0.628238410596026	0.580397350993377	-11.0423841059603	4.56529801324503			
164	3300	0.967841059602649	0.00275496688741723	-0.103523178807947	0.593377483443709	-2.3846357615894	-2.02490066225166				0.976953642384106	-0.0802119205298013	0.0131390728476822	-1.80609271523179	-3.61218543046358	3.89403973509934				0.949827814569536	-0.0332715231788079	-0.21594701986755	-1.67258278145695	-1.81350993377483	-2.44026490066225				0.512529801324503	-0.112529801324503	-0.821721854304636	9.20291390728477	4.3835761589404	5.82437086092715				0.948026490066225	-0.108503311258278	0.229933774834437	0.791788079470198	1.17192052980133	6.94251655629139				0.543788079470199	-0.462834437086093	-0.628238410596026	-1.09960264900662	-10.2023841059603	4.00529801324503			
165	3320	0.983841059602649	0.0187549668874172	-0.103523178807947	1.43337748344371	-1.5446357615894	-2.30490066225166				0.992953642384106	-0.0962119205298013	0.0451390728476822	-1.52609271523179	-0.252185430463576	3.33403973509934				0.933827814569536	-0.0332715231788079	-0.18394701986755	-2.23258278145695	-1.81350993377483	-2.44026490066225				0.496529801324503	-0.128529801324503	-0.821721854304636	8.92291390728477	5.7835761589404	5.26437086092715				0.948026490066225	-0.0925033112582781	0.181933774834437	-0.888211920529802	0.331920529801325	5.54251655629139				0.527788079470199	-0.462834437086093	-0.612238410596026	0.580397350993377	-8.24238410596027	0.365298013245032			
166	3340	0.967841059602649	0.0187549668874172	-0.103523178807947	-0.526622516556291	-1.8246357615894	-1.74490066225166				0.976953642384106	-0.112211920529801	0.0451390728476822	-0.966092715231788	-2.21218543046358	3.61403973509934				0.949827814569536	-0.0332715231788079	-0.19994701986755	0.287417218543046	-0.133509933774833	-2.16026490066225				0.512529801324503	-0.112529801324503	-0.837721854304636	8.36291390728477	5.2235761589404	6.10437086092715				0.948026490066225	-0.108503311258278	0.197933774834437	0.791788079470198	0.0519205298013249	5.26251655629139				0.527788079470199	-0.462834437086093	-0.628238410596026	2.26039735099338	-6.56238410596027	0.645298013245032			
167	3360	0.967841059602649	0.0187549668874172	-0.103523178807947	-1.08662251655629	-2.9446357615894	-2.58490066225166				0.976953642384106	-0.0962119205298013	0.0131390728476822	-1.24609271523179	-4.45218543046358	2.21403973509934				0.949827814569536	-0.0492715231788079	-0.18394701986755	1.40741721854305	-0.973509933774833	-2.16026490066225				0.528529801324503	-0.128529801324503	-0.821721854304636	7.80291390728477	2.9835761589404	5.26437086092715				0.948026490066225	-0.108503311258278	0.197933774834437	0.791788079470198	-2.18807947019868	6.38251655629139				0.527788079470199	-0.462834437086093	-0.644238410596026	1.98039735099338	-5.72238410596027	-0.754701986754968			
168	3380	0.983841059602649	0.0187549668874172	-0.103523178807947	-1.36662251655629	-2.6646357615894	-3.14490066225166				0.960953642384106	-0.0802119205298013	-0.00286092715231785	-2.92609271523179	-4.45218543046358	0.53403973509934				0.949827814569536	-0.0652715231788079	-0.16794701986755	0.00741721854304636	-1.25350993377483	-1.88026490066225				0.528529801324503	-0.128529801324503	-0.837721854304636	6.68291390728477	0.7435761589404	4.42437086092715				0.964026490066225	-0.124503311258278	0.181933774834437	1.6317880794702	-3.58807947019868	4.98251655629139				0.511788079470199	-0.478834437086093	-0.628238410596026	1.70039735099338	-3.20238410596026	-1.59470198675497			
169	3400	0.951841059602649	0.0187549668874172	-0.087523178807947	-2.48662251655629	-2.3846357615894	-1.74490066225166				0.976953642384106	-0.0962119205298013	0.0131390728476822	-3.48609271523179	0.867814569536424	-1.14596026490066				0.949827814569536	-0.0492715231788079	-0.18394701986755	-4.19258278145695	-1.81350993377483	-1.88026490066225				0.512529801324503	-0.144529801324503	-0.853721854304636	4.16291390728477	-1.2164238410596	3.58437086092715				0.964026490066225	-0.124503311258278	0.181933774834437	0.791788079470198	-7.50807947019868	4.70251655629139				0.527788079470199	-0.462834437086093	-0.644238410596026	0.300397350993377	-1.24238410596026	-2.15470198675497			
170	3420	0.967841059602649	0.0187549668874172	-0.087523178807947	-1.08662251655629	-2.3846357615894	-2.02490066225166				0.976953642384106	-0.112211920529801	0.0291390728476822	-1.24609271523179	3.38781456953642	-0.0259602649006601				0.933827814569536	-0.0492715231788079	-0.19994701986755	-3.35258278145695	-3.77350993377483	-0.76026490066225				0.512529801324503	-0.144529801324503	-0.837721854304636	2.20291390728477	-2.3364238410596	2.18437086092715				0.932026490066225	-0.124503311258278	0.165933774834437	1.6317880794702	-4.98807947019868	4.42251655629139				0.527788079470199	-0.462834437086093	-0.660238410596027	0.300397350993377	0.717615894039735	-2.99470198675497			
171	3440	0.951841059602649	0.0347549668874172	-0.071523178807947	-2.76662251655629	-2.3846357615894	-2.02490066225166				0.960953642384106	-0.0962119205298013	0.0131390728476822	0.153907284768212	2.54781456953642	-0.30596026490066				0.949827814569536	-0.0332715231788079	-0.18394701986755	-4.75258278145695	-0.973509933774833	-1.60026490066225				0.496529801324503	-0.128529801324503	-0.837721854304636	-0.317086092715232	-2.0564238410596	-0.0556291390728476				0.932026490066225	-0.124503311258278	0.181933774834437	2.7517880794702	-1.90807947019868	3.58251655629139				0.527788079470199	-0.462834437086093	-0.644238410596026	0.300397350993377	0.717615894039735	-2.43470198675497			
172	3460	0.967841059602649	0.0347549668874172	-0.071523178807947	-0.806622516556291	-1.2646357615894	-2.58490066225166				0.960953642384106	-0.0802119205298013	0.0291390728476822	-2.64609271523179	4.50781456953642	-0.0259602649006601				0.933827814569536	-0.0332715231788079	-0.19994701986755	-2.23258278145695	-0.133509933774833	-2.44026490066225				0.496529801324503	-0.144529801324503	-0.821721854304636	1.08291390728477	-1.4964238410596	0.224370860927152				0.932026490066225	-0.124503311258278	0.181933774834437	2.4717880794702	-3.30807947019868	1.90251655629139				0.511788079470199	-0.462834437086093	-0.644238410596026	0.580397350993377	-0.122384105960265	-2.43470198675497			
173	3480	0.967841059602649	0.0347549668874172	-0.071523178807947	-0.526622516556291	-0.424635761589404	-1.74490066225166				0.976953642384106	-0.0802119205298013	0.0451390728476822	-5.72609271523179	6.18781456953642	-0.0259602649006601				0.949827814569536	-0.0332715231788079	-0.18394701986755	-1.67258278145695	-0.693509933774834	-2.44026490066225				0.496529801324503	-0.144529801324503	-0.837721854304636	3.32291390728477	-2.3364238410596	1.62437086092715				0.932026490066225	-0.124503311258278	0.181933774834437	2.1917880794702	-4.42807947019868	0.502516556291392				0.559788079470199	-0.462834437086093	-0.660238410596027	2.82039735099338	-0.682384105960265	-3.27470198675497			
174	3500	0.967841059602649	0.0347549668874172	-0.071523178807947	-0.246622516556291	-0.424635761589404	-2.86490066225166				0.992953642384106	-0.0802119205298013	0.0611390728476822	-6.00609271523179	8.42781456953642	-0.585960264900661				0.949827814569536	-0.0332715231788079	-0.19994701986755	-1.39258278145695	-2.37350993377483	-1.32026490066225				0.496529801324503	-0.160529801324503	-0.837721854304636	-0.317086092715232	-2.6164238410596	1.90437086092715				0.948026490066225	-0.108503311258278	0.181933774834437	0.791788079470198	-2.46807947019868	1.06251655629139				0.575788079470199	-0.478834437086093	-0.660238410596027	0.300397350993377	-3.20238410596026	-2.43470198675497			
175	3520	0.967841059602649	0.0187549668874172	-0.071523178807947	-0.806622516556291	-2.3846357615894	-1.74490066225166				0	0	0	0	0	0				0.949827814569536	-0.0332715231788079	-0.19994701986755	-1.67258278145695	-2.09350993377483	-1.60026490066225				0.480529801324503	-0.128529801324503	-0.789721854304636	-0.877086092715232	-3.1764238410596	3.02437086092715				0.948026490066225	-0.108503311258278	0.165933774834437	-0.888211920529802	-1.62807947019868	1.06251655629139				0.559788079470199	-0.494834437086093	-0.676238410596026	-0.259602649006623	-5.16238410596027	-2.43470198675497			
176	3540	0.967841059602649	0.0507549668874172	-0.087523178807947	-0.526622516556291	-4.6246357615894	-1.18490066225166				0.976953642384106	-0.0802119205298013	0.0131390728476822	0.713907284768212	2.26781456953642	-1.98596026490066				0.965827814569536	-0.0332715231788079	-0.19994701986755	0.00741721854304636	-2.65350993377483	-1.32026490066225				0.480529801324503	-0.0965298013245033	-0.821721854304636	-1.15708609271523	-1.7764238410596	1.34437086092715				0.964026490066225	-0.108503311258278	0.181933774834437	-0.328211920529802	-1.34807947019868	2.46251655629139				0.591788079470199	-0.494834437086093	-0.692238410596026	4.22039735099338	-7.96238410596027	-3.55470198675497			
177	3560	0.967841059602649	0.0507549668874172	-0.087523178807947	1.99337748344371	-3.2246357615894	-1.46490066225166				0.992953642384106	-0.0962119205298013	0.0131390728476822	2.39390728476821	7.86781456953642	-1.14596026490066				0.949827814569536	-0.0492715231788079	-0.16794701986755	1.96741721854305	-2.09350993377483	-1.04026490066225				0.496529801324503	-0.0965298013245033	-0.789721854304636	1.64291390728477	0.4635761589404	1.34437086092715				0.964026490066225	-0.108503311258278	0.181933774834437	-0.888211920529802	-1.34807947019868	1.34251655629139				0.575788079470199	-0.494834437086093	-0.692238410596026	1.70039735099338	-14.4023841059603	1.76529801324503			
