No	Time	12-AccX	12-AccY	12-AccZ	12-GyroX	12-GyroY	12-GyroZ	13-AccX	13-AccY	13-AccZ	13-GyroX	13-GyroY	13-GyroZ	14-AccX	14-AccY	14-AccZ	14-GyroX	14-GyroY	14-GyroZ	15-AccX	15-AccY	15-AccZ	15-GyroX	15-GyroY	15-GyroZ	16-AccX	16-AccY	16-AccZ	16-GyroX	16-GyroY	16-GyroZ	17-AccX	17-AccY	17-AccZ	17-GyroX	17-GyroY	17-GyroZ
0	20	0	0	0	0	0	0				0.992953642384106	0.0317880794701987	0.157139072847682	2.39390728476821	-2.77218543046358	-4.50596026490066				-0.218172185430464	-0.161271523178808	-0.88794701986755	-6.43258278145695	1.54649006622517	3.43973509933775				0.704529801324503	-0.240529801324503	-0.693721854304636	7.80291390728477	-0.6564238410596	0.504370860927152				0.964026490066225	0.0354966887417219	0.101933774834437	4.9917880794702	-3.02807947019868	2.46251655629139				0.527788079470199	-0.0788344370860927	-0.788238410596027	0.0203973509933773	-0.122384105960265	-2.99470198675497			
1	40	-0.216158940397351	0.178754966887417	-0.919523178807947	-2.76662251655629	0.135364238410596	-1.18490066225166				0.976953642384106	0.0477880794701987	0.141139072847682	1.55390728476821	-1.09218543046358	-5.34596026490066				-0.218172185430464	-0.161271523178808	-0.85594701986755	-4.75258278145695	1.26649006622517	2.31973509933775				0.704529801324503	-0.240529801324503	-0.693721854304636	4.16291390728477	-2.8964238410596	0.784370860927152				0.964026490066225	0.0194966887417219	0.117933774834437	5.2717880794702	-2.46807947019868	1.34251655629139				0.543788079470199	-0.0948344370860927	-0.772238410596026	1.14039735099338	-2.08238410596027	-3.55470198675497			
2	60	-0.232158940397351	0.162754966887417	-0.919523178807947	-3.04662251655629	0.975364238410596	-1.18490066225166				0.944953642384106	0.0797880794701987	0.141139072847682	0.993907284768212	0.0278145695364242	-5.06596026490066				-0.234172185430464	-0.161271523178808	-0.87194701986755	-3.63258278145695	-0.413509933774833	1.47973509933775				0.672529801324503	-0.240529801324503	-0.693721854304636	2.20291390728477	-4.5764238410596	1.34437086092715				0.964026490066225	0.0354966887417219	0.0699337748344371	2.4717880794702	-4.14807947019868	0.222516556291392				0.543788079470199	-0.0788344370860927	-0.772238410596026	-1.09960264900662	-1.80238410596026	-1.87470198675497			
3	80	-0.232158940397351	0.162754966887417	-0.919523178807947	-1.64662251655629	0.415364238410596	-0.624900662251656				0.976953642384106	0.0637880794701987	0.157139072847682	-0.686092715231788	3.66781456953642	-3.94596026490066				-0.234172185430464	-0.177271523178808	-0.88794701986755	-1.67258278145695	-0.973509933774833	0.35973509933775				0.656529801324503	-0.208529801324503	-0.677721854304636	0.802913907284768	-4.8564238410596	0.784370860927152				0.964026490066225	0.0194966887417219	0.0859337748344371	2.4717880794702	-5.82807947019868	-0.897483443708608				0.527788079470199	-0.0788344370860927	-0.772238410596026	-3.05960264900662	-2.08238410596027	-1.31470198675497			
4	100	-0.232158940397351	0.162754966887417	-0.919523178807947	-2.20662251655629	0.415364238410596	-1.46490066225166				0.976953642384106	0.0477880794701987	0.141139072847682	-2.36609271523179	6.46781456953642	-4.22596026490066				-0.234172185430464	-0.177271523178808	-0.88794701986755	-1.39258278145695	-0.973509933774833	-1.04026490066225				0.640529801324503	-0.208529801324503	-0.677721854304636	-0.0370860927152318	-6.2564238410596	-0.615629139072848				0.916026490066225	0.0514966887417219	0.101933774834437	2.7517880794702	-1.62807947019868	-2.29748344370861				0.511788079470199	-0.0628344370860927	-0.772238410596026	-1.65960264900662	-2.64238410596027	-2.71470198675497			
5	120	-0.232158940397351	0.178754966887417	-0.935523178807947	-2.20662251655629	-0.144635761589404	-1.74490066225166				0.976953642384106	0.0797880794701987	0.141139072847682	-2.64609271523179	8.70781456953642	-7.02596026490066				-0.234172185430464	-0.177271523178808	-0.87194701986755	-0.552582781456954	0.706490066225167	-1.32026490066225				0.672529801324503	-0.208529801324503	-0.661721854304636	-3.11708609271523	-8.2164238410596	-1.73562913907285				0.932026490066225	0.0354966887417219	0.0699337748344371	0.231788079470198	-4.42807947019868	-1.45748344370861				0.527788079470199	-0.0308344370860927	-0.788238410596027	-1.09960264900662	-2.36238410596027	-3.83470198675497			
6	140	-0.232158940397351	0.162754966887417	-0.935523178807947	-1.36662251655629	0.695364238410596	-0.904900662251656				0.976953642384106	0.0317880794701987	0.205139072847682	-4.88609271523179	7.86781456953642	-5.06596026490066				-0.218172185430464	-0.193271523178808	-0.85594701986755	1.12741721854305	0.146490066225167	-2.16026490066225				0.672529801324503	-0.208529801324503	-0.677721854304636	-3.95708609271523	-8.4964238410596	-2.57562913907285				0.948026490066225	0.0354966887417219	0.0859337748344371	-3.4082119205298	-3.30807947019868	-2.01748344370861				0.511788079470199	-0.0468344370860927	-0.788238410596027	0.0203973509933773	-1.24238410596026	-4.95470198675497			
7	160	-0.232158940397351	0.146754966887417	-0.935523178807947	-1.36662251655629	0.135364238410596	-0.624900662251656				0.976953642384106	0.0477880794701987	0.205139072847682	-6.56609271523179	4.22781456953642	-5.06596026490066				-0.202172185430464	-0.209271523178808	-0.85594701986755	1.12741721854305	-0.973509933774833	-1.88026490066225				0.656529801324503	-0.208529801324503	-0.677721854304636	-0.317086092715232	-5.9764238410596	-2.29562913907285				0.948026490066225	0.0354966887417219	0.0859337748344371	-4.8082119205298	0.331920529801325	-1.45748344370861				0.527788079470199	-0.0628344370860927	-0.788238410596027	1.42039735099338	-0.962384105960265	-5.23470198675497			
8	180	-0.232158940397351	0.146754966887417	-0.919523178807947	-1.08662251655629	-0.424635761589404	-1.18490066225166				0.960953642384106	0.0637880794701987	0.205139072847682	-0.966092715231788	3.66781456953642	-3.66596026490066				-0.218172185430464	-0.225271523178808	-0.87194701986755	0.567417218543046	-0.973509933774833	-1.32026490066225				0.656529801324503	-0.224529801324503	-0.677721854304636	-1.15708609271523	-5.4164238410596	-2.57562913907285				0.964026490066225	0.0354966887417219	0.101933774834437	-1.7282119205298	-0.508079470198675	-2.29748344370861				0.527788079470199	-0.0628344370860927	-0.788238410596027	-1.09960264900662	-1.24238410596026	-4.39470198675497			
9	200	-0.232158940397351	0.162754966887417	-0.935523178807947	-1.08662251655629	-0.144635761589404	-0.904900662251656				0.992953642384106	0.0637880794701987	0.189139072847682	2.95390728476821	5.34781456953642	-3.38596026490066				-0.234172185430464	-0.225271523178808	-0.88794701986755	-0.272582781456954	-0.133509933774833	-0.76026490066225				0.688529801324503	-0.208529801324503	-0.661721854304636	-4.51708609271523	-5.6964238410596	-2.01562913907285				0.964026490066225	0.0674966887417219	0.101933774834437	-0.888211920529802	-0.508079470198675	-1.45748344370861				0.543788079470199	-0.0628344370860927	-0.804238410596027	-1.37960264900662	-1.52238410596026	-6.07470198675497			
10	220	-0.232158940397351	0.162754966887417	-0.919523178807947	0.0333774834437086	0.135364238410596	0.215099337748344				0.992953642384106	0.0797880794701987	0.205139072847682	0.713907284768212	6.74781456953642	-3.38596026490066				-0.218172185430464	-0.225271523178808	-0.87194701986755	0.567417218543046	0.706490066225167	-1.04026490066225				0.688529801324503	-0.192529801324503	-0.661721854304636	-2.83708609271523	-5.1364238410596	-0.615629139072848				0.964026490066225	0.0674966887417219	0.101933774834437	-1.1682119205298	0.331920529801325	-2.01748344370861				0.543788079470199	-0.0468344370860927	-0.804238410596027	-0.539602649006623	-2.08238410596027	-5.51470198675497			
11	240	-0.216158940397351	0.162754966887417	-0.887523178807947	0.873377483443709	0.415364238410596	-0.624900662251656				0.976953642384106	0.0957880794701987	0.205139072847682	2.95390728476821	1.42781456953642	-1.42596026490066				-0.218172185430464	-0.193271523178808	-0.85594701986755	0.287417218543046	-0.973509933774833	0.35973509933775				0.688529801324503	-0.176529801324503	-0.677721854304636	-0.877086092715232	-4.5764238410596	-0.0556291390728476				0.964026490066225	0.0674966887417219	0.101933774834437	-0.328211920529802	0.891920529801325	-2.01748344370861				0.527788079470199	-0.0468344370860927	-0.788238410596027	1.70039735099338	-1.80238410596026	-5.79470198675497			
12	260	-0.232158940397351	0.178754966887417	-0.919523178807947	0.873377483443709	-0.144635761589404	-0.624900662251656				0.960953642384106	0.0797880794701987	0.205139072847682	7.15390728476821	-1.93218543046358	1.37403973509934				-0.234172185430464	-0.193271523178808	-0.85594701986755	-0.552582781456954	-0.133509933774833	1.75973509933775				0.672529801324503	-0.192529801324503	-0.661721854304636	-0.597086092715232	-3.4564238410596	1.06437086092715				0.964026490066225	0.0674966887417219	0.0859337748344371	1.6317880794702	-0.508079470198675	-2.29748344370861				0.511788079470199	-0.0468344370860927	-0.788238410596027	0.860397350993377	-2.36238410596027	-3.83470198675497			
13	280	-0.232158940397351	0.162754966887417	-0.919523178807947	1.99337748344371	-0.144635761589404	-0.0649006622516557				0.960953642384106	0.0477880794701987	0.189139072847682	7.15390728476821	-2.21218543046358	1.93403973509934				-0.250172185430464	-0.209271523178808	-0.87194701986755	1.40741721854305	0.986490066225167	2.03973509933775				0.672529801324503	-0.176529801324503	-0.661721854304636	-0.877086092715232	-3.1764238410596	0.784370860927152				0.948026490066225	0.0674966887417219	0.101933774834437	3.0317880794702	0.0519205298013249	-2.29748344370861				0.511788079470199	-0.0468344370860927	-0.788238410596027	0.580397350993377	-4.32238410596027	-3.55470198675497			
14	300	-0.232158940397351	0.162754966887417	-0.935523178807947	0.593377483443709	0.135364238410596	-0.904900662251656				0.960953642384106	0.0797880794701987	0.173139072847682	5.75390728476821	-0.812185430463576	2.21403973509934				-0.250172185430464	-0.193271523178808	-0.87194701986755	0.847417218543046	0.426490066225167	1.19973509933775				0.656529801324503	-0.192529801324503	-0.661721854304636	0.242913907284768	-3.1764238410596	0.784370860927152				0.948026490066225	0.0514966887417219	0.101933774834437	2.7517880794702	0.0519205298013249	-1.17748344370861				0.527788079470199	-0.0468344370860927	-0.804238410596027	1.42039735099338	-4.88238410596027	-4.95470198675497			
15	320	-0.232158940397351	0.162754966887417	-0.935523178807947	-0.526622516556291	0.135364238410596	-1.46490066225166				0.976953642384106	0.0637880794701987	0.157139072847682	6.59390728476821	0.867814569536424	2.77403973509934				-0.234172185430464	-0.193271523178808	-0.85594701986755	0.567417218543046	0.426490066225167	1.47973509933775				0.656529801324503	-0.192529801324503	-0.661721854304636	0.802913907284768	-2.6164238410596	0.784370860927152				0.964026490066225	0.0514966887417219	0.101933774834437	3.3117880794702	0.0519205298013249	-0.897483443708608				0.511788079470199	-0.0468344370860927	-0.804238410596027	2.26039735099338	-5.72238410596027	-6.07470198675497			
16	340	-0.232158940397351	0.162754966887417	-0.919523178807947	-1.64662251655629	-0.704635761589404	-1.46490066225166				0.992953642384106	0.0637880794701987	0.173139072847682	2.39390728476821	0.307814569536424	0.25403973509934				-0.234172185430464	-0.177271523178808	-0.87194701986755	-0.272582781456954	0.706490066225167	0.0797350993377501				0.672529801324503	-0.208529801324503	-0.677721854304636	1.36291390728477	-1.7764238410596	2.46437086092715				0.980026490066225	0.0354966887417219	0.0859337748344371	3.8717880794702	1.17192052980133	-1.73748344370861				0.527788079470199	-0.0628344370860927	-0.788238410596027	2.54039735099338	-5.44238410596027	-6.35470198675497			
17	360	-0.248158940397351	0.162754966887417	-0.919523178807947	-1.64662251655629	-1.2646357615894	-2.02490066225166				0.960953642384106	0.0797880794701987	0.173139072847682	-0.966092715231788	-1.37218543046358	-1.42596026490066				-0.234172185430464	-0.177271523178808	-0.87194701986755	0.847417218543046	-0.973509933774833	-0.48026490066225				0.672529801324503	-0.208529801324503	-0.677721854304636	5.00291390728477	-0.9364238410596	2.46437086092715				0.980026490066225	0.0354966887417219	0.0859337748344371	2.7517880794702	-1.62807947019868	-0.897483443708608				0.559788079470199	-0.0788344370860927	-0.788238410596027	1.42039735099338	-4.04238410596027	-6.35470198675497			
18	380	-0.248158940397351	0.162754966887417	-0.935523178807947	-1.64662251655629	-0.984635761589404	-1.74490066225166				0.944953642384106	0.0477880794701987	0.157139072847682	-4.04609271523179	1.70781456953642	-0.585960264900661				-0.234172185430464	-0.193271523178808	-0.87194701986755	1.40741721854305	-0.133509933774833	-0.76026490066225				0.640529801324503	-0.192529801324503	-0.693721854304636	3.60291390728477	-1.2164238410596	2.74437086092715				0.980026490066225	0.0354966887417219	0.0859337748344371	2.4717880794702	-3.30807947019868	-1.17748344370861				0.543788079470199	-0.0628344370860927	-0.788238410596027	0.580397350993377	-4.60238410596027	-5.23470198675497			
19	400	-0.264158940397351	0.146754966887417	-0.935523178807947	-1.64662251655629	0.695364238410596	-0.904900662251656				1.00895364238411	0.0797880794701987	0.157139072847682	-2.08609271523179	3.38781456953642	0.53403973509934				-0.266172185430464	-0.209271523178808	-0.85594701986755	1.96741721854305	-0.413509933774833	-0.76026490066225				0.656529801324503	-0.208529801324503	-0.693721854304636	4.16291390728477	-1.2164238410596	3.30437086092715				0.980026490066225	0.0514966887417219	0.0859337748344371	0.511788079470198	-2.46807947019868	-0.337483443708608				0.527788079470199	-0.0468344370860927	-0.804238410596027	-1.09960264900662	-5.16238410596027	-4.39470198675497			
20	420	-0.264158940397351	0.146754966887417	-0.919523178807947	-1.92662251655629	1.2553642384106	-0.904900662251656				1.04095364238411	0.0797880794701987	0.157139072847682	2.39390728476821	0.307814569536424	0.53403973509934				-0.266172185430464	-0.193271523178808	-0.87194701986755	2.52741721854305	0.706490066225167	-0.48026490066225				0.656529801324503	-0.208529801324503	-0.693721854304636	1.92291390728477	-1.7764238410596	0.784370860927152				0.980026490066225	0.0354966887417219	0.0859337748344371	0.511788079470198	-2.46807947019868	-0.0574834437086077				0.527788079470199	-0.0468344370860927	-0.804238410596027	2.26039735099338	-5.44238410596027	-4.67470198675497			
21	440	-0.248158940397351	0.162754966887417	-0.935523178807947	-1.36662251655629	1.2553642384106	-0.0649006622516557				0.992953642384106	0.0957880794701987	0.157139072847682	6.31390728476821	-6.13218543046358	-0.585960264900661				-0.234172185430464	-0.209271523178808	-0.88794701986755	2.24741721854305	0.146490066225167	-0.48026490066225				0.672529801324503	-0.224529801324503	-0.709721854304636	0.242913907284768	-3.7364238410596	0.504370860927152				0.996026490066225	0.0514966887417219	0.0699337748344371	-0.608211920529802	-2.46807947019868	-0.0574834437086077				0.527788079470199	-0.0628344370860927	-0.804238410596027	2.54039735099338	-3.76238410596027	-4.67470198675497			
22	460	-0.232158940397351	0.162754966887417	-0.919523178807947	-2.48662251655629	1.8153642384106	1.61509933774834				0.976953642384106	0.0797880794701987	0.141139072847682	10.5139072847682	-13.4121854304636	2.21403973509934				-0.234172185430464	-0.209271523178808	-0.87194701986755	4.20741721854305	0.986490066225167	-0.20026490066225				0.688529801324503	-0.208529801324503	-0.709721854304636	-0.597086092715232	-3.1764238410596	-0.615629139072848				0.996026490066225	0.0834966887417219	0.0859337748344371	-1.1682119205298	-2.74807947019868	-0.617483443708608				0.527788079470199	-0.0788344370860927	-0.804238410596027	1.14039735099338	-3.48238410596027	-2.71470198675497			
23	480	-0.232158940397351	0.162754966887417	-0.935523178807947	-1.08662251655629	1.5353642384106	1.61509933774834				0.960953642384106	0.0637880794701987	0.157139072847682	10.2339072847682	-13.9721854304636	5.29403973509934				-0.234172185430464	-0.193271523178808	-0.87194701986755	5.60741721854305	2.10649006622517	-0.20026490066225				0.688529801324503	-0.192529801324503	-0.693721854304636	0.242913907284768	-2.8964238410596	-0.895629139072848				0.996026490066225	0.0674966887417219	0.0859337748344371	0.791788079470198	-3.30807947019868	-0.617483443708608				0.511788079470199	-0.0628344370860927	-0.820238410596026	-0.819602649006623	-4.88238410596027	0.645298013245032			
24	500	-0.248158940397351	0.162754966887417	-0.935523178807947	-1.08662251655629	2.0953642384106	1.33509933774834				0.992953642384106	0.0477880794701987	0.189139072847682	8.27390728476821	-11.1721854304636	5.01403973509934				-0.250172185430464	-0.193271523178808	-0.85594701986755	4.20741721854305	2.66649006622517	-0.20026490066225				0.672529801324503	-0.176529801324503	-0.677721854304636	2.48291390728477	-3.1764238410596	-0.0556291390728476				0.996026490066225	0.0514966887417219	0.0859337748344371	1.9117880794702	-6.38807947019868	-0.337483443708608				0.495788079470199	-0.0628344370860927	-0.836238410596026	-0.539602649006623	-4.60238410596027	2.04529801324503			
25	520	-0.248158940397351	0.162754966887417	-0.935523178807947	-1.64662251655629	2.6553642384106	1.05509933774834				0.992953642384106	0.0637880794701987	0.173139072847682	10.7939072847682	-16.7721854304636	3.05403973509934				-0.250172185430464	-0.225271523178808	-0.87194701986755	4.48741721854305	2.10649006622517	-1.04026490066225				0.672529801324503	-0.192529801324503	-0.677721854304636	5.00291390728477	-4.0164238410596	-0.615629139072848				0.964026490066225	0.0514966887417219	0.0539337748344371	3.5917880794702	-8.34807947019868	0.502516556291392				0.479788079470199	-0.0628344370860927	-0.804238410596027	0.580397350993377	-3.48238410596027	3.16529801324503			
26	540	-0.232158940397351	0.162754966887417	-0.919523178807947	-2.76662251655629	2.6553642384106	1.05509933774834				0.960953642384106	0.0637880794701987	0.109139072847682	13.0339072847682	-22.6521854304636	4.73403973509934				-0.234172185430464	-0.225271523178808	-0.87194701986755	4.20741721854305	1.54649006622517	-1.60026490066225				0.656529801324503	-0.192529801324503	-0.661721854304636	4.44291390728477	-5.6964238410596	-0.335629139072848				0.964026490066225	0.0514966887417219	0.0699337748344371	5.8317880794702	-8.62807947019868	1.90251655629139				0.479788079470199	-0.0788344370860927	-0.772238410596026	-0.819602649006623	0.157615894039735	4.28529801324503			
27	560	-0.216158940397351	0.178754966887417	-0.919523178807947	-3.04662251655629	1.2553642384106	-0.344900662251656				0.896953642384106	0.0157880794701987	0.125139072847682	4.35390728476821	-11.4521854304636	4.73403973509934				-0.218172185430464	-0.209271523178808	-0.87194701986755	4.76741721854305	1.54649006622517	-2.44026490066225				0.640529801324503	-0.208529801324503	-0.661721854304636	4.72291390728477	-4.5764238410596	-0.615629139072848				0.916026490066225	0.0354966887417219	0.0859337748344371	8.6317880794702	-8.34807947019868	1.34251655629139				0.495788079470199	-0.0788344370860927	-0.772238410596026	-1.65960264900662	1.83761589403974	5.96529801324503			
28	580	-0.200158940397351	0.162754966887417	-0.919523178807947	-2.20662251655629	0.975364238410596	-0.624900662251656				0.864953642384106	0.0157880794701987	0.237139072847682	-6.00609271523179	1.98781456953642	2.77403973509934				-0.186172185430464	-0.193271523178808	-0.83994701986755	3.92741721854305	1.54649006622517	-3.28026490066225				0.624529801324503	-0.208529801324503	-0.629721854304636	3.60291390728477	-3.7364238410596	-0.0556291390728476				0.900026490066225	0.0354966887417219	0.0859337748344371	6.6717880794702	-7.78807947019868	0.782516556291392				0.479788079470199	-0.0788344370860927	-0.756238410596026	-2.77960264900662	2.39761589403974	6.80529801324503			
29	600	-0.216158940397351	0.146754966887417	-0.919523178807947	-2.76662251655629	0.135364238410596	-1.18490066225166				0.960953642384106	-0.000211920529801304	0.285139072847682	-15.8060927152318	13.4678145695364	0.25403973509934				-0.186172185430464	-0.241271523178808	-0.83994701986755	3.64741721854305	0.706490066225167	-3.56026490066225				0.608529801324503	-0.224529801324503	-0.645721854304636	1.08291390728477	-4.5764238410596	-0.615629139072848				0.884026490066225	0.0194966887417219	0.0859337748344371	6.6717880794702	-4.70807947019868	1.34251655629139				0.479788079470199	-0.0628344370860927	-0.740238410596026	-4.45960264900662	1.83761589403974	7.08529801324503			
30	620	-0.200158940397351	0.162754966887417	-0.935523178807947	-4.16662251655629	-0.704635761589404	-1.74490066225166				0.976953642384106	0.0477880794701987	0.253139072847682	-16.9260927152318	13.7478145695364	-0.86596026490066				-0.186172185430464	-0.257271523178808	-0.85594701986755	3.92741721854305	-0.973509933774833	-4.12026490066225				0.592529801324503	-0.224529801324503	-0.661721854304636	0.522913907284768	-6.8164238410596	-0.895629139072848				0.884026490066225	0.00349668874172187	0.117933774834437	5.5517880794702	-2.18807947019868	-0.337483443708608				0.511788079470199	-0.0468344370860927	-0.740238410596026	0.0203973509933773	-0.402384105960265	5.96529801324503			
31	640	-0.168158940397351	0.194754966887417	-0.951523178807947	-1.36662251655629	-0.984635761589404	-1.74490066225166				0.960953642384106	0.0317880794701987	0.237139072847682	-15.8060927152318	11.7878145695364	0.53403973509934				-0.170172185430464	-0.241271523178808	-0.88794701986755	-1.39258278145695	-2.09350993377483	-2.16026490066225				0.608529801324503	-0.256529801324503	-0.661721854304636	-1.71708609271523	-5.4164238410596	-2.01562913907285				0.884026490066225	0.0194966887417219	0.149933774834437	5.2717880794702	7.61192052980133	-0.897483443708608				0.575788079470199	-0.0468344370860927	-0.772238410596026	5.06039735099338	0.157615894039735	2.88529801324503			
32	660	-0.168158940397351	0.194754966887417	-0.967523178807947	1.99337748344371	-0.984635761589404	-0.344900662251656				0.944953642384106	0.0317880794701987	0.221139072847682	-6.84609271523179	12.6278145695364	1.09403973509934				-0.170172185430464	-0.225271523178808	-0.90394701986755	-1.67258278145695	-2.37350993377483	-0.20026490066225				0.624529801324503	-0.224529801324503	-0.661721854304636	-8.15708609271523	-2.3364238410596	-2.29562913907285				0.900026490066225	0.0354966887417219	0.101933774834437	-0.608211920529802	9.29192052980133	-0.617483443708608				0.591788079470199	-0.0628344370860927	-0.788238410596027	7.30039735099338	-0.122384105960265	-1.59470198675497			
33	680	-0.184158940397351	0.178754966887417	-0.935523178807947	3.95337748344371	-2.1046357615894	-0.624900662251656				0.976953642384106	0.0797880794701987	0.221139072847682	5.47390728476821	14.8678145695364	1.37403973509934				-0.186172185430464	-0.241271523178808	-0.87194701986755	0.287417218543046	-2.65350993377483	1.19973509933775				0.672529801324503	-0.208529801324503	-0.661721854304636	-13.7570860927152	-2.0564238410596	-1.73562913907285				0.932026490066225	0.0674966887417219	0.165933774834437	-4.8082119205298	15.1719205298013	-1.45748344370861				0.591788079470199	-0.0628344370860927	-0.788238410596027	9.82039735099338	-1.52238410596026	-2.71470198675497			
34	700	-0.216158940397351	0.178754966887417	-0.919523178807947	5.63337748344371	-2.6646357615894	-1.18490066225166				0.976953642384106	0.0637880794701987	0.237139072847682	12.1939072847682	10.1078145695364	3.89403973509934				-0.218172185430464	-0.241271523178808	-0.85594701986755	-0.272582781456954	-2.09350993377483	1.75973509933775				0.688529801324503	-0.160529801324503	-0.677721854304636	-12.3570860927152	-0.9364238410596	-0.335629139072848				0.964026490066225	0.0674966887417219	0.149933774834437	-5.6482119205298	19.0919205298013	-0.897483443708608				0.575788079470199	-0.0628344370860927	-0.772238410596026	9.82039735099338	-4.60238410596027	-3.55470198675497			
35	720	-0.248158940397351	0.162754966887417	-0.919523178807947	4.79337748344371	-3.5046357615894	-2.30490066225166				0.992953642384106	0.0637880794701987	0.205139072847682	15.2739072847682	0.587814569536424	6.41403973509934				-0.266172185430464	-0.241271523178808	-0.85594701986755	-5.03258278145695	-3.21350993377483	2.59973509933775				0.720529801324503	-0.160529801324503	-0.677721854304636	-7.59708609271523	1.8635761589404	1.06437086092715				1.01202649006623	0.0674966887417219	0.133933774834437	-2.5682119205298	17.9719205298013	-0.337483443708608				0.543788079470199	-0.0628344370860927	-0.788238410596027	8.14039735099338	-3.48238410596027	-5.23470198675497			
36	740	-0.296158940397351	0.178754966887417	-0.903523178807947	3.67337748344371	-3.5046357615894	-3.70490066225166				1.04095364238411	0.0637880794701987	0.189139072847682	17.2339072847682	-1.65218543046358	5.85403973509934				-0.282172185430464	-0.193271523178808	-0.85594701986755	-5.03258278145695	-2.09350993377483	3.43973509933775				0.720529801324503	-0.160529801324503	-0.661721854304636	-5.07708609271523	0.4635761589404	2.46437086092715				0.996026490066225	0.0834966887417219	0.117933774834437	-0.328211920529802	13.4919205298013	-0.0574834437086077				0.527788079470199	-0.0948344370860927	-0.788238410596027	6.74039735099338	-1.80238410596026	-5.51470198675497			
37	760	-0.296158940397351	0.178754966887417	-0.887523178807947	1.15337748344371	-1.2646357615894	-3.42490066225166				1.07295364238411	0.127788079470199	0.141139072847682	21.1539072847682	-16.4921854304636	5.57403973509934				-0.298172185430464	-0.177271523178808	-0.87194701986755	-1.39258278145695	-0.693509933774834	3.99973509933775				0.688529801324503	-0.160529801324503	-0.677721854304636	-4.79708609271523	-1.4964238410596	0.784370860927152				1.01202649006623	0.0834966887417219	0.101933774834437	-1.7282119205298	8.73192052980133	-0.617483443708608				0.495788079470199	-0.0948344370860927	-0.788238410596027	4.22039735099338	-0.962384105960265	-2.71470198675497			
38	780	-0.280158940397351	0.178754966887417	-0.903523178807947	0.593377483443709	0.135364238410596	-2.86490066225166				0.992953642384106	0.0797880794701987	0.0611390728476822	23.1139072847682	-28.8121854304636	8.37403973509934				-0.282172185430464	-0.161271523178808	-0.87194701986755	1.68741721854305	2.10649006622517	3.15973509933775				0.688529801324503	-0.160529801324503	-0.693721854304636	-2.83708609271523	0.7435761589404	-1.17562913907285				1.01202649006623	0.0834966887417219	0.101933774834437	-0.608211920529802	5.93192052980133	-0.897483443708608				0.495788079470199	-0.0948344370860927	-0.788238410596027	1.14039735099338	-1.80238410596026	0.0852980132450323			
39	800	-0.264158940397351	0.162754966887417	-0.903523178807947	-0.806622516556291	1.5353642384106	-2.58490066225166				0.976953642384106	0.0637880794701987	0.0771390728476822	17.5139072847682	-21.2521854304636	8.09403973509934				-0.266172185430464	-0.161271523178808	-0.85594701986755	4.20741721854305	2.10649006622517	2.59973509933775				0.688529801324503	-0.160529801324503	-0.677721854304636	4.44291390728477	2.9835761589404	-2.29562913907285				0.996026490066225	0.0674966887417219	0.101933774834437	2.1917880794702	0.331920529801325	-2.29748344370861				0.511788079470199	-0.0948344370860927	-0.820238410596026	-2.21960264900662	-0.402384105960265	1.20529801324503			
40	820	-0.264158940397351	0.146754966887417	-0.919523178807947	-1.36662251655629	0.415364238410596	-2.02490066225166				0.976953642384106	0.0797880794701987	0.157139072847682	13.5939072847682	-18.4521854304636	7.81403973509934				-0.250172185430464	-0.177271523178808	-0.87194701986755	2.52741721854305	2.94649006622517	1.75973509933775				0.688529801324503	-0.176529801324503	-0.693721854304636	6.40291390728477	3.2635761589404	-2.29562913907285				1.01202649006623	0.0674966887417219	0.0859337748344371	3.0317880794702	-4.14807947019868	-1.45748344370861				0.511788079470199	-0.110834437086093	-0.820238410596026	-4.45960264900662	2.11761589403974	0.925298013245032			
41	840	-0.232158940397351	0.146754966887417	-0.935523178807947	-1.08662251655629	0.695364238410596	-0.344900662251656				0.992953642384106	0.0477880794701987	0.141139072847682	10.5139072847682	-20.1321854304636	6.69403973509934				-0.234172185430464	-0.177271523178808	-0.87194701986755	5.04741721854305	2.66649006622517	-1.32026490066225				0.656529801324503	-0.192529801324503	-0.709721854304636	11.4429139072848	1.0235761589404	-1.17562913907285				0.980026490066225	0.0514966887417219	0.0699337748344371	3.3117880794702	-7.22807947019868	-1.17748344370861				0.495788079470199	-0.0948344370860927	-0.820238410596026	-9.49960264900662	3.51761589403974	3.16529801324503			
42	860	-0.216158940397351	0.162754966887417	-0.951523178807947	-0.246622516556291	1.5353642384106	-0.0649006622516557				0.992953642384106	0.0317880794701987	0.0931390728476822	8.83390728476821	-17.0521854304636	5.29403973509934				-0.234172185430464	-0.177271523178808	-0.88794701986755	7.00741721854305	2.10649006622517	-3.00026490066225				0.640529801324503	-0.208529801324503	-0.757721854304636	12.0029139072848	-6.2564238410596	-3.13562913907285				0.948026490066225	0.0514966887417219	0.0699337748344371	3.8717880794702	-7.22807947019868	-1.17748344370861				0.495788079470199	-0.0788344370860927	-0.820238410596026	-10.8996026490066	5.19761589403974	5.40529801324503			
43	880	-0.200158940397351	0.162754966887417	-0.951523178807947	0.0333774834437086	1.2553642384106	0.215099337748344				0.976953642384106	0.0157880794701987	0.141139072847682	8.83390728476821	-13.9721854304636	4.17403973509934				-0.202172185430464	-0.209271523178808	-0.88794701986755	6.72741721854305	1.82649006622517	-4.12026490066225				0.640529801324503	-0.272529801324503	-0.757721854304636	3.60291390728477	-8.4964238410596	-4.53562913907285				0.932026490066225	0.0354966887417219	0.117933774834437	3.0317880794702	-4.42807947019868	-1.17748344370861				0.495788079470199	-0.0788344370860927	-0.804238410596027	-5.29960264900662	4.91761589403974	7.64529801324503			
44	900	-0.216158940397351	0.146754966887417	-0.951523178807947	0.873377483443709	2.0953642384106	0.495099337748344				0.960953642384106	0.0317880794701987	0.157139072847682	10.5139072847682	-12.0121854304636	2.49403973509934				-0.186172185430464	-0.225271523178808	-0.87194701986755	7.56741721854305	2.10649006622517	-4.96026490066225				0.640529801324503	-0.272529801324503	-0.741721854304636	-8.43708609271523	-10.4564238410596	-7.61562913907285				0.932026490066225	0.0354966887417219	0.0699337748344371	1.6317880794702	-0.788079470198675	-2.85748344370861				0.479788079470199	-0.0788344370860927	-0.804238410596027	-10.3396026490066	7.71761589403974	8.20529801324503			
45	920	-0.216158940397351	0.146754966887417	-0.935523178807947	1.43337748344371	0.975364238410596	0.775099337748344				0.960953642384106	0.0317880794701987	0.141139072847682	9.11390728476821	-4.73218543046358	3.61403973509934				-0.202172185430464	-0.241271523178808	-0.83994701986755	7.56741721854305	1.26649006622517	-5.80026490066225				0.624529801324503	-0.224529801324503	-0.757721854304636	-14.8770860927152	-14.9364238410596	-9.57562913907285				0.916026490066225	0.0514966887417219	0.101933774834437	0.791788079470198	5.65192052980133	-3.97748344370861				0.511788079470199	-0.0788344370860927	-0.820238410596026	-9.49960264900662	6.31761589403974	12.965298013245			
46	940	-0.232158940397351	0.162754966887417	-0.935523178807947	-1.08662251655629	1.5353642384106	0.775099337748344				0.960953642384106	-0.000211920529801304	0.125139072847682	3.79390728476821	1.14781456953642	4.73403973509934				-0.202172185430464	-0.257271523178808	-0.83994701986755	6.44741721854305	-0.413509933774833	-5.80026490066225				0.624529801324503	-0.224529801324503	-0.773721854304636	-17.3970860927152	-23.3364238410596	-11.5356291390728				0.932026490066225	0.0354966887417219	0.0699337748344371	-1.7282119205298	6.21192052980133	-3.69748344370861				0.527788079470199	-0.0788344370860927	-0.836238410596026	-4.17960264900662	3.79761589403974	15.205298013245			
47	960	-0.232158940397351	0.162754966887417	-0.919523178807947	-2.48662251655629	0.695364238410596	0.495099337748344				0	0	0	0	0	0				0	0	0	0	0	0				0.640529801324503	-0.224529801324503	-0.773721854304636	-24.3970860927152	-28.6564238410596	-14.6156291390728				0.932026490066225	0.0354966887417219	0.0859337748344371	-0.888211920529802	8.17192052980133	-2.29748344370861				0.495788079470199	-0.0788344370860927	-0.820238410596026	1.42039735099338	1.83761589403974	16.325298013245			
48	980	0	0	0	0	0	0				0	0	0	0	0	0				0	0	0	0	0	0				0.624529801324503	-0.176529801324503	-0.741721854304636	-27.1970860927152	-33.1364238410596	-15.7356291390728				0.932026490066225	0.0354966887417219	0.0859337748344371	-3.4082119205298	10.9719205298013	-2.01748344370861				0.495788079470199	-0.0948344370860927	-0.804238410596027	-1.65960264900662	2.11761589403974	19.405298013245			
49	1000	0	0	0	0	0	0				0.992953642384106	-0.000211920529801304	0.109139072847682	-0.966092715231788	1.70781456953642	1.09403973509934				0	0	0	0	0	0				0.576529801324503	-0.176529801324503	-0.741721854304636	-28.8770860927152	-33.4164238410596	-17.1356291390729				0.932026490066225	0.0514966887417219	0.101933774834437	-4.8082119205298	15.1719205298013	-1.73748344370861				0.479788079470199	-0.110834437086093	-0.820238410596026	1.70039735099338	1.27761589403974	23.885298013245			
50	1020	-0.232158940397351	0.146754966887417	-0.967523178807947	-2.20662251655629	1.2553642384106	-0.904900662251656				0.992953642384106	0.0157880794701987	0.109139072847682	-6.00609271523179	1.42781456953642	2.49403973509934				-0.202172185430464	-0.273271523178808	-0.85594701986755	1.12741721854305	0.426490066225167	1.19973509933775				0.560529801324503	-0.176529801324503	-0.741721854304636	-22.1570860927152	-30.8964238410596	-16.5756291390728				0.948026490066225	0.0514966887417219	0.101933774834437	-3.1282119205298	18.2519205298013	-0.897483443708608				0.495788079470199	-0.126834437086093	-0.804238410596027	-5.57960264900662	8.55761589403974	29.765298013245			
51	1040	-0.216158940397351	0.210754966887417	-0.967523178807947	-14.5266225165563	4.6153642384106	2.45509933774835				0.944953642384106	-0.000211920529801304	0.109139072847682	-8.80609271523179	1.14781456953642	2.21403973509934				-0.186172185430464	-0.257271523178808	-0.82394701986755	0.847417218543046	0.426490066225167	1.75973509933775				0.592529801324503	-0.160529801324503	-0.789721854304636	-16.5570860927152	-34.8164238410596	-14.8956291390728				0.964026490066225	0.0354966887417219	0.0699337748344371	-3.4082119205298	20.7719205298013	0.502516556291392				0.479788079470199	-0.0788344370860927	-0.900238410596026	-15.6596026490066	23.9576158940397	37.045298013245			
52	1060	-0.168158940397351	0.226754966887417	-0.967523178807947	-30.2066225165563	5.4553642384106	9.45509933774835				0.928953642384106	-0.0322119205298013	0.0451390728476822	-13.2860927152318	1.70781456953642	-0.86596026490066				-0.186172185430464	-0.241271523178808	-0.82394701986755	-2.79258278145695	-1.53350993377483	1.75973509933775				0.640529801324503	-0.128529801324503	-0.869721854304636	-9.83708609271523	-41.8164238410596	-21.3356291390729				0.980026490066225	0.0354966887417219	0.0699337748344371	-6.7682119205298	20.4919205298013	1.62251655629139				0.495788079470199	-0.110834437086093	-0.852238410596026	12.6203973509934	16.6776158940397	39.285298013245			
53	1080	-0.200158940397351	0.114754966887417	-0.903523178807947	-49.2466225165563	-7.4246357615894	10.5750993377483				1.02495364238411	-0.000211920529801304	0.157139072847682	-11.0460927152318	-14.8121854304636	-2.26596026490066				-0.250172185430464	-0.225271523178808	-0.83994701986755	-5.87258278145695	-4.05350993377483	2.31973509933775				0.608529801324503	-0.0965298013245033	-0.853721854304636	-8.43708609271523	-43.2164238410596	-26.9356291390729				0.948026490066225	0.0354966887417219	0.0699337748344371	-3.6882119205298	13.7719205298013	2.74251655629139				0.511788079470199	-0.222834437086093	-0.788238410596027	27.1803973509934	-6.84238410596027	37.885298013245			
54	1100	-0.232158940397351	0.130754966887417	-0.967523178807947	-19.0066225165563	-5.7446357615894	6.93509933774835				0.912953642384106	0.0797880794701987	0.0771390728476822	3.51390728476821	-34.1321854304636	-0.86596026490066				-0.266172185430464	-0.225271523178808	-0.88794701986755	-3.91258278145695	-2.93350993377483	2.87973509933775				0.528529801324503	-0.144529801324503	-0.789721854304636	-20.4770860927152	-44.8964238410596	-32.8156291390729				0.900026490066225	0.0354966887417219	0.0699337748344371	-2.8482119205298	14.8919205298013	1.90251655629139				0.511788079470199	-0.238834437086093	-0.868238410596026	8.70039735099338	-9.36238410596027	54.965298013245			
55	1120	-0.280158940397351	0.194754966887417	-0.823523178807947	-8.92662251655629	-4.6246357615894	1.61509933774834				0.928953642384106	0.0957880794701987	-0.0188609271523178	3.79390728476821	7.02781456953642	1.93403973509934				-0.266172185430464	-0.225271523178808	-0.88794701986755	-3.91258278145695	-1.53350993377483	3.15973509933775				0.464529801324503	-0.176529801324503	-0.821721854304636	-35.8770860927152	-56.3764238410596	-35.0556291390728				0.916026490066225	0.0994966887417219	0.0859337748344371	-2.2882119205298	23.5719205298013	2.74251655629139				0.415788079470199	-0.206834437086093	-0.852238410596026	-7.53960264900662	-11.3223841059603	73.725298013245			
56	1140	-0.280158940397351	0.242754966887417	-0.887523178807947	-9.76662251655629	-1.2646357615894	-1.18490066225166				0.976953642384106	0.0477880794701987	0.0611390728476822	-2.08609271523179	24.6678145695364	4.17403973509934				-0.250172185430464	-0.225271523178808	-0.87194701986755	-1.67258278145695	0.986490066225167	2.31973509933775				0.560529801324503	-0.208529801324503	-0.837721854304636	-48.7570860927152	-64.2164238410596	-30.5756291390729				0.980026490066225	0.0834966887417219	0.0699337748344371	-5.6482119205298	27.2119205298013	4.98251655629139				0.447788079470199	-0.0788344370860927	-0.884238410596026	-21.2596026490066	6.03761589403974	75.125298013245			
57	1160	-0.264158940397351	0.290754966887417	-0.871523178807947	-5.00662251655629	-1.2646357615894	-0.0649006622516557				0.976953642384106	0.0317880794701987	0.109139072847682	-2.08609271523179	29.4278145695364	2.49403973509934				-0.266172185430464	-0.193271523178808	-0.85594701986755	-5.59258278145695	0.706490066225167	2.59973509933775				0.544529801324503	-0.112529801324503	-0.837721854304636	-66.9570860927152	-62.5364238410596	-28.6156291390729				1.01202649006623	0.0834966887417219	0.0859337748344371	-0.0482119205298018	32.8119205298013	8.06251655629139				0.479788079470199	-0.0468344370860927	-0.852238410596026	5.62039735099338	3.51761589403974	69.805298013245			
58	1180	-0.248158940397351	0.258754966887417	-0.951523178807947	4.23337748344371	-4.3446357615894	-1.74490066225166				1.00895364238411	0.0477880794701987	0.157139072847682	-5.16609271523179	36.9878145695364	-0.30596026490066				-0.250172185430464	-0.161271523178808	-0.87194701986755	-3.63258278145695	2.10649006622517	4.83973509933775				0.512529801324503	-0.0325298013245033	-0.805721854304636	-55.4770860927152	-46.0164238410596	-29.1756291390729				1.02802649006623	0.0674966887417219	0.149933774834437	8.0717880794702	37.5719205298013	7.22251655629139				0.463788079470199	-0.110834437086093	-0.836238410596026	18.7803973509934	-0.122384105960265	67.845298013245			
59	1200	-0.232158940397351	0.226754966887417	-0.967523178807947	7.59337748344371	-0.984635761589404	-3.14490066225166				1.04095364238411	0.0637880794701987	0.0931390728476822	-8.52609271523179	38.9478145695364	0.81403973509934				-0.266172185430464	-0.193271523178808	-0.90394701986755	-1.95258278145695	1.82649006622517	3.71973509933775				0.480529801324503	-0.0165298013245033	-0.837721854304636	-38.9570860927152	-34.5364238410596	-26.9356291390729				1.02802649006623	0.0514966887417219	0.197933774834437	7.7917880794702	36.1719205298013	2.74251655629139				0.511788079470199	-0.110834437086093	-0.788238410596027	17.9403973509934	16.6776158940397	65.325298013245			
60	1220	-0.264158940397351	0.194754966887417	-0.903523178807947	15.1533774834437	0.975364238410596	-4.26490066225166				1.00895364238411	0.0637880794701987	0.157139072847682	-10.4860927152318	43.9878145695364	4.73403973509934				-0.250172185430464	-0.225271523178808	-0.90394701986755	3.92741721854305	2.38649006622517	1.19973509933775				0.528529801324503	0.0154701986754967	-0.789721854304636	-35.8770860927152	-26.9764238410596	-21.6156291390729				0.980026490066225	0.0354966887417219	0.245933774834437	12.2717880794702	34.7719205298013	-1.17748344370861				0.495788079470199	-0.222834437086093	-0.724238410596026	28.8603973509934	3.79761589403974	56.925298013245			
61	1240	-0.264158940397351	0.162754966887417	-0.935523178807947	19.3533774834437	4.0553642384106	-5.10490066225166				0.992953642384106	0.0477880794701987	0.189139072847682	-11.6060927152318	48.4678145695364	7.53403973509934				-0.250172185430464	-0.209271523178808	-0.90394701986755	0.567417218543046	6.02649006622517	0.63973509933775				0.544529801324503	-0.000529801324503289	-0.805721854304636	-28.8770860927152	-23.6164238410596	-16.0156291390729				0.964026490066225	0.0354966887417219	0.309933774834437	10.5917880794702	31.9719205298013	-1.73748344370861				0.543788079470199	-0.286834437086093	-0.724238410596026	0.0203973509933773	9.11761589403974	50.765298013245			
62	1260	-0.248158940397351	0.194754966887417	-0.983523178807947	6.19337748344371	8.2553642384106	-0.624900662251656				1.00895364238411	0.0317880794701987	0.221139072847682	-7.12609271523179	42.3078145695364	6.41403973509934				-0.202172185430464	-0.193271523178808	-0.87194701986755	0.567417218543046	7.42649006622517	-1.04026490066225				0.560529801324503	-0.0165298013245033	-0.837721854304636	-9.55708609271523	-12.6964238410596	-17.6956291390729				0.932026490066225	0.0354966887417219	0.325933774834437	5.2717880794702	24.6919205298013	-2.01748344370861				0.591788079470199	-0.302834437086093	-0.756238410596026	-0.259602649006623	21.9976158940397	51.045298013245			
63	1280	-0.200158940397351	0.210754966887417	-0.919523178807947	-16.7666225165563	6.2953642384106	5.25509933774834				0.928953642384106	0.0157880794701987	0.173139072847682	-1.80609271523179	23.5478145695364	4.17403973509934				-0.170172185430464	-0.193271523178808	-0.82394701986755	3.36741721854305	6.02649006622517	-3.00026490066225				0.528529801324503	0.0954701986754967	-0.885721854304636	-21.3170860927152	-18.0164238410596	-15.7356291390728				0.948026490066225	0.0354966887417219	0.293933774834437	4.4317880794702	20.2119205298013	-3.13748344370861				0.559788079470199	-0.238834437086093	-0.740238410596026	5.06039735099338	20.0376158940397	45.725298013245			
64	1300	-0.184158940397351	0.162754966887417	-0.903523178807947	-12.8466225165563	2.0953642384106	7.77509933774834				0.864953642384106	0.0157880794701987	0.173139072847682	-3.20609271523179	26.9078145695364	1.93403973509934				-0.154172185430464	-0.241271523178808	-0.77594701986755	3.08741721854305	0.986490066225167	-0.76026490066225				0.512529801324503	0.127470198675497	-0.901721854304636	-18.7970860927152	-29.4964238410596	-17.9756291390729				0.948026490066225	0.0514966887417219	0.261933774834437	1.9117880794702	6.77192052980133	-3.13748344370861				0.511788079470199	-0.270834437086093	-0.724238410596026	0.300397350993377	1.27761589403974	49.365298013245			
65	1320	-0.152158940397351	0.226754966887417	-0.903523178807947	-8.36662251655629	0.415364238410596	5.25509933774834				0.880953642384106	0.0157880794701987	0.189139072847682	-6.28609271523179	36.4278145695364	4.73403973509934				-0.154172185430464	-0.337271523178808	-0.80794701986755	-3.35258278145695	-0.973509933774833	3.99973509933775				0.448529801324503	0.143470198675497	-0.901721854304636	-16.8370860927152	-45.4564238410596	-17.4156291390728				0.900026490066225	0.0354966887417219	0.165933774834437	0.791788079470198	-0.228079470198675	-3.13748344370861				0.463788079470199	-0.414834437086093	-0.772238410596026	6.18039735099338	-18.0423841059603	53.005298013245			
66	1340	-0.216158940397351	0.178754966887417	-0.855523178807947	-8.92662251655629	-1.5446357615894	2.45509933774835				0.864953642384106	-0.0162119205298013	0.141139072847682	-6.84609271523179	41.1878145695364	10.8940397350993				-0.202172185430464	-0.385271523178808	-0.87194701986755	-7.55258278145695	-1.25350993377483	8.47973509933775				0.416529801324503	0.0154701986754967	-0.965721854304636	6.12291390728477	-60.8564238410596	-19.9356291390729				0.884026490066225	0.0194966887417219	0.149933774834437	1.9117880794702	0.331920529801325	-5.37748344370861				0.495788079470199	-0.382834437086093	-0.804238410596027	-3.89960264900662	-24.2023841059603	70.365298013245			
67	1360	-0.248158940397351	0.146754966887417	-0.887523178807947	-2.48662251655629	-3.7846357615894	0.495099337748344				0.896953642384106	-0.0322119205298013	0.221139072847682	-10.4860927152318	58.5478145695364	10.8940397350993				-0.218172185430464	-0.385271523178808	-0.85594701986755	-11.472582781457	-2.09350993377483	11.2797350993378				0.336529801324503	-0.176529801324503	-0.965721854304636	10.3229139072848	-70.6564238410596	-27.4956291390729				0.884026490066225	-0.0285033112582781	0.197933774834437	3.3117880794702	9.57192052980133	-6.77748344370861				0.511788079470199	-0.302834437086093	-0.836238410596026	-8.37960264900662	-16.3623841059603	83.525298013245			
68	1380	-0.232158940397351	0.194754966887417	-0.935523178807947	-5.56662251655629	-3.2246357615894	-0.904900662251656				0.960953642384106	-0.0482119205298013	0.333139072847682	-11.0460927152318	63.8678145695364	8.37403973509934				-0.202172185430464	-0.289271523178808	-0.82394701986755	-19.872582781457	-1.53350993377483	15.7597350993378				0.288529801324503	-0.112529801324503	-0.933721854304636	-36.7170860927152	-77.6564238410596	-33.6556291390729				0.900026490066225	-0.0125033112582781	0.165933774834437	-4.2482119205298	16.5719205298013	-6.21748344370861				0.447788079470199	-0.286834437086093	-0.836238410596026	2.54039735099338	-36.2423841059603	82.965298013245			
69	1400	-0.264158940397351	0.210754966887417	-0.967523178807947	-6.12662251655629	-2.9446357615894	-0.344900662251656				0.960953642384106	-0.0802119205298013	0.365139072847682	-10.7660927152318	61.6278145695364	6.41403973509934				-0.234172185430464	-0.193271523178808	-0.82394701986755	-22.112582781457	-3.77350993377483	18.2797350993378				0.256529801324503	0.0474701986754967	-0.917721854304636	-58.2770860927152	-76.5364238410596	-24.1356291390729				0.996026490066225	0.0194966887417219	0.213933774834437	-17.1282119205298	15.4519205298013	-4.81748344370861				0.399788079470199	-0.302834437086093	-0.916238410596027	0.0203973509933773	-42.9623841059603	86.885298013245			
70	1420	-0.264158940397351	0.194754966887417	-0.967523178807947	-5.00662251655629	-0.144635761589404	0.215099337748344				0.992953642384106	-0.128211920529801	0.349139072847682	-14.6860927152318	60.2278145695364	4.45403973509934				-0.266172185430464	-0.113271523178808	-0.87194701986755	-14.272582781457	-2.37350993377483	16.5997350993378				0.144529801324503	-0.0325298013245033	-0.981721854304636	-14.8770860927152	-65.3364238410596	-17.6956291390729				1.04402649006623	0.0194966887417219	0.149933774834437	-17.1282119205298	14.8919205298013	-3.41748344370861				0.447788079470199	-0.270834437086093	-0.932238410596026	-4.17960264900662	-34.5623841059603	90.245298013245			
71	1440	-0.232158940397351	0.194754966887417	-0.983523178807947	-7.80662251655629	2.0953642384106	0.215099337748344				1.04095364238411	0.0157880794701987	0.205139072847682	-16.3660927152318	59.6678145695364	1.93403973509934				-0.282172185430464	-0.0812715231788079	-0.90394701986755	-2.23258278145695	-0.133509933774833	13.5197350993378				0.112529801324503	0.0154701986754967	-0.965721854304636	-12.0770860927152	-63.9364238410596	-10.6956291390728				1.04402649006623	0.0354966887417219	0.245933774834437	-10.9682119205298	16.0119205298013	-3.69748344370861				0.495788079470199	-0.334834437086093	-0.836238410596026	14.5803973509934	-46.6023841059603	84.645298013245			
72	1460	-0.280158940397351	0.210754966887417	-1.01552317880795	-15.3666225165563	5.7353642384106	2.17509933774834				1.04095364238411	0.0797880794701987	0.253139072847682	-21.9660927152318	71.1478145695364	1.93403973509934				-0.330172185430464	-0.0972715231788079	-0.93594701986755	0.847417218543046	3.22649006622517	8.47973509933775				0.288529801324503	0.0634701986754967	-0.965721854304636	-10.9570860927152	-63.0964238410596	2.18437086092715				1.06002649006623	0.0354966887417219	0.245933774834437	-20.4882119205298	11.2519205298013	-3.97748344370861				0.463788079470199	-0.414834437086093	-0.932238410596026	-7.81960264900662	-58.3623841059603	78.485298013245			
73	1480	-0.280158940397351	0.290754966887417	-0.951523178807947	-12.2866225165563	9.0953642384106	0.775099337748344				1.10495364238411	0.111788079470199	0.397139072847682	-11.6060927152318	63.0278145695364	5.57403973509934				-0.378172185430464	-0.113271523178808	-0.95194701986755	-3.91258278145695	1.82649006622517	3.15973509933775				0.352529801324503	0.127470198675497	-1.04572185430464	-3.11708609271523	-52.1764238410596	13.9443708609272				1.18802649006623	0.0674966887417219	0.245933774834437	-27.4882119205298	2.85192052980133	-2.01748344370861				0.463788079470199	-0.510834437086093	-0.868238410596026	-14.5396026490066	-64.2423841059603	78.765298013245			
74	1500	-0.296158940397351	0.274754966887417	-0.967523178807947	-11.1666225165563	12.1753642384106	0.775099337748344				1.05695364238411	0.127788079470199	0.205139072847682	7.15390728476821	67.2278145695364	13.4140397350993				-0.394172185430464	-0.0812715231788079	-0.96794701986755	-10.352582781457	6.86649006622517	0.0797350993377501				0.352529801324503	0.0954701986754967	-1.12572185430464	27.9629139072848	-42.3764238410596	32.9843708609272				1.23602649006623	0.131496688741722	0.245933774834437	-16.8482119205298	-10.0280794701987	-2.57748344370861				0.447788079470199	-0.526834437086093	-0.900238410596026	-40.8596026490066	-47.7223841059603	85.205298013245			
75	1520	-0.408158940397351	0.306754966887417	-0.903523178807947	-16.7666225165563	16.6553642384106	5.53509933774834				1.07295364238411	0.0957880794701987	0.429139072847682	4.63390728476821	87.1078145695364	12.2940397350993				-0.362172185430464	-0.0492715231788079	-0.95194701986755	-0.552582781456954	14.4264900662252	-5.24026490066225				0.496529801324503	0.0954701986754967	-1.12572185430464	20.6829139072848	-43.2164238410596	43.3443708609272				1.18802649006623	0.0834966887417219	0.309933774834437	-15.7282119205298	-10.8680794701987	-6.49748344370861				0.463788079470199	-0.478834437086093	-1.06023841059603	-58.2196026490066	-36.8023841059603	89.125298013245			
76	1540	-0.408158940397351	0.306754966887417	-0.983523178807947	-12.5666225165563	22.8153642384106	11.9750993377483				1.15295364238411	0.0477880794701987	0.685139072847682	-17.2060927152318	73.3878145695364	4.45403973509934				-0.314172185430464	-0.0172715231788079	-0.96794701986755	15.967417218543	16.1064900662252	-3.28026490066225				0.496529801324503	0.143470198675497	-1.15772185430464	1.36291390728477	-62.5364238410596	51.4643708609272				1.07602649006623	0.0994966887417219	0.437933774834437	-9.5682119205298	-16.4680794701987	-3.97748344370861				0.415788079470199	-0.350834437086093	-0.996238410596026	-45.3396026490066	-40.7223841059603	79.045298013245			
77	1560	-0.376158940397351	0.338754966887417	-1.03152317880795	-5.84662251655629	37.0953642384106	15.3350993377483				1.18495364238411	0.0797880794701987	0.557139072847682	-22.2460927152318	63.5878145695364	-1.14596026490066				-0.314172185430464	-0.209271523178808	-1.12794701986755	20.727417218543	33.4664900662252	0.63973509933775				0.464529801324503	0.255470198675497	-1.17372185430464	-12.6370860927152	-77.3764238410596	57.3443708609272				1.10802649006623	0.147496688741722	0.469933774834437	-19.3682119205298	-15.6280794701987	-2.29748344370861				0.255788079470199	-0.366834437086093	-0.916238410596027	-41.1396026490066	-51.3623841059603	88.005298013245			
78	1580	-0.232158940397351	0.370754966887417	-1.04752317880795	-18.1666225165563	38.2153642384106	21.2150993377483				1.04095364238411	0.111788079470199	0.749139072847682	-16.9260927152318	72.2678145695364	3.05403973509934				-0.330172185430464	-0.257271523178808	-1.03194701986755	38.647417218543	41.0264900662252	0.0797350993377501				0.512529801324503	0.319470198675497	-1.34972185430464	-22.4370860927152	-78.4964238410596	56.5043708609272				1.20402649006623	0.227496688741722	0.437933774834437	-24.1282119205298	-23.4680794701987	-3.13748344370861				0.239788079470199	-0.430834437086093	-0.996238410596026	-43.9396026490066	-45.2023841059603	85.205298013245			
79	1600	0.007841059602649	0.530754966887417	-1.11152317880795	-5.00662251655629	42.1353642384106	16.4550993377483				1.02495364238411	-0.256211920529801	0.893139072847682	-26.7260927152318	42.0278145695364	17.3340397350993				-0.234172185430464	-0.241271523178808	-0.88794701986755	4.76741721854305	41.8664900662252	0.0797350993377501				0.496529801324503	0.159470198675497	-1.41372185430464	-43.1570860927152	-64.2164238410596	57.0643708609272				1.17202649006623	0.195496688741722	0.469933774834437	-17.4082119205298	-31.8680794701987	-5.09748344370861				0.351788079470199	-0.590834437086093	-1.04423841059603	-38.6196026490066	-25.3223841059603	80.445298013245			
80	1620	-0.056158940397351	0.562754966887417	-1.07952317880795	13.1933774834437	49.9753642384106	1.61509933774834				1.15295364238411	-0.0802119205298013	0.797139072847682	-6.28609271523179	24.1078145695364	15.3740397350993				-0.282172185430464	-0.209271523178808	-1.09594701986755	-4.19258278145695	48.0264900662252	-3.84026490066225				0.528529801324503	0.0474701986754967	-1.18972185430464	-70.0370860927152	-80.4564238410596	25.1443708609272				1.25202649006623	-0.0285033112582781	0.533933774834437	1.3517880794702	-14.2280794701987	-2.57748344370861				0.383788079470199	-0.526834437086093	-1.26823841059603	-49.8196026490066	-22.8023841059603	71.765298013245			
81	1640	-0.440158940397351	0.466754966887417	-0.967523178807947	13.7533774834437	63.4153642384106	-7.90490066225166				1.24895364238411	-0.0802119205298013	1.16513907284768	26.4739072847682	19.0678145695364	1.37403973509934				-0.298172185430464	-0.177271523178808	-1.09594701986755	16.247417218543	60.3464900662252	-16.7202649006623				0.448529801324503	0.335470198675497	-1.07772185430464	-68.9170860927152	-101.45642384106	12.2643708609272				1.30002649006623	-0.0765033112582781	0.677933774834437	2.4717880794702	5.37192052980133	-0.337483443708608				0.255788079470199	-0.510834437086093	-1.20423841059603	-55.9796026490066	-28.9623841059603	69.525298013245			
82	1660	-0.424158940397351	0.306754966887417	-1.12752317880795	19.9133774834437	73.7753642384106	-7.90490066225166				1.10495364238411	-0.144211920529801	1.08513907284768	0.713907284768212	8.14781456953643	-2.54596026490066				-0.298172185430464	-0.241271523178808	-1.09594701986755	15.127417218543	72.9464900662252	-23.1602649006623				0.432529801324503	0.447470198675497	-0.997721854304636	-35.8770860927152	-63.9364238410596	9.18437086092715				1.26802649006623	0.00349668874172187	0.725933774834437	-11.5282119205298	-9.46807947019868	-3.69748344370861				0.127788079470199	-0.542834437086093	-1.10823841059603	-60.7396026490066	8.55761589403974	79.325298013245			
83	1680	-0.344158940397351	0.0667549668874172	-1.15952317880795	19.6333774834437	82.4553642384106	-2.30490066225166				1.29695364238411	-0.384211920529801	0.957139072847682	-27.2860927152318	17.1078145695364	-0.0259602649006601				-0.186172185430464	-0.241271523178808	-1.07994701986755	2.52741721854305	78.5464900662252	-26.2402649006623				0.272529801324503	0.383470198675497	-1.15772185430464	-3.11708609271523	6.0635761589404	16.7443708609272				1.30002649006623	0.0834966887417219	0.741933774834437	-0.888211920529802	-7.22807947019868	-3.41748344370861				0.207788079470199	-0.590834437086093	-1.15623841059603	-57.0996026490066	44.3976158940397	73.445298013245			
84	1700	-0.072158940397351	0.0827549668874172	-1.17552317880795	8.43337748344371	96.4553642384106	4.97509933774835				1.34495364238411	-0.128211920529801	1.27713907284768	-0.966092715231788	-10.0521854304636	-9.54596026490066				-0.0581721854304636	-0.433271523178808	-1.03194701986755	-9.51258278145695	89.4664900662252	-23.4402649006623				0.256529801324503	0.431470198675497	-1.10972185430464	19.5629139072848	60.1035761589404	29.0643708609272				1.33202649006623	0.131496688741722	0.885933774834437	10.5917880794702	3.41192052980132	4.98251655629139				0.351788079470199	-0.638834437086093	-1.14023841059603	-21.5396026490066	42.1576158940397	48.245298013245			
85	1720	-0.072158940397351	0.194754966887417	-1.23952317880795	10.1133774834437	108.495364238411	12.2550993377483				1.29695364238411	0.0157880794701987	0.989139072847682	35.4339072847682	-69.1321854304636	-15.1459602649007				-0.0421721854304636	-0.465271523178808	-1.07994701986755	-26.592582781457	102.906490066225	-18.1202649006623				0.256529801324503	0.511470198675497	-1.15772185430464	40.5629139072848	81.1035761589404	29.0643708609272				1.44402649006623	-0.0605033112582781	0.629933774834437	6.9517880794702	-4.70807947019868	11.7025165562914				0.351788079470199	-0.718834437086093	-1.04423841059603	2.26039735099338	47.7576158940397	26.965298013245			
86	1740	0.071841059602649	0.226754966887417	-1.19152317880795	22.9933774834437	122.495364238411	14.4950993377483				1.34495364238411	-0.000211920529801304	0.637139072847682	25.0739072847682	-83.6921854304636	-12.3459602649007				0.0538278145695364	-0.481271523178808	-1.09594701986755	-1.67258278145695	115.226490066225	-12.5202649006623				0.432529801324503	0.335470198675497	-1.15772185430464	52.0429139072848	87.8235761589404	29.9043708609272				1.42802649006623	0.00349668874172187	0.485933774834437	3.5917880794702	0.891920529801325	2.18251655629139				0.319788079470199	-0.702834437086093	-1.04423841059603	14.8603973509934	81.0776158940397	23.885298013245			
87	1760	0.231841059602649	0.274754966887417	-1.11152317880795	36.4333774834437	142.095364238411	15.6150993377483				1.36095364238411	-0.128211920529801	0.669139072847682	26.7539072847682	-91.5321854304636	-4.22596026490066				0.229827814569536	-0.513271523178808	-1.11194701986755	-15.392582781457	132.866490066225	-5.24026490066225				0.480529801324503	0.0794701986754967	-1.26972185430464	42.2429139072848	98.1835761589404	34.3843708609272				1.33202649006623	0.131496688741722	0.597933774834437	1.6317880794702	-5.26807947019868	4.14251655629139				0.399788079470199	-0.462834437086093	-1.04423841059603	23.5403973509934	110.19761589404	23.045298013245			
88	1780	0.407841059602649	0.306754966887417	-1.04752317880795	38.1133774834437	153.855364238411	8.05509933774835				1.29695364238411	-0.224211920529801	0.861139072847682	28.7139072847682	-94.6121854304636	0.25403973509934				0.229827814569536	-0.417271523178808	-1.06394701986755	-33.032582781457	148.826490066225	0.63973509933775				0.288529801324503	0.0954701986754967	-1.23772185430464	19.0029139072848	113.02357615894	23.1843708609272				1.23602649006623	0.163496688741722	0.517933774834437	-7.0482119205298	-2.18807947019868	9.18251655629139				0.383788079470199	-0.366834437086093	-0.996238410596026	29.7003973509934	119.15761589404	12.405298013245			
89	1800	0.455841059602649	0.322754966887417	-0.967523178807947	32.2333774834437	161.135364238411	-5.94490066225166				1.42495364238411	-0.0322119205298013	1.16513907284768	-7.40609271523179	-84.2521854304636	-8.14596026490066				0.293827814569536	-0.209271523178808	-0.91994701986755	-26.592582781457	154.986490066225	-0.20026490066225				0.288529801324503	0.319470198675497	-1.02972185430464	21.5229139072848	144.38357615894	13.6643708609272				1.18802649006623	0.0834966887417219	0.373933774834437	-9.0082119205298	14.3319205298013	4.98251655629139				0.383788079470199	-0.334834437086093	-0.868238410596026	51.2603973509934	122.51761589404	-6.07470198675497			
90	1820	0.375841059602649	0.130754966887417	-0.919523178807947	28.0333774834437	166.175364238411	-15.1849006622517				1.29695364238411	0.127788079470199	0.685139072847682	4.07390728476821	-142.212185430464	12.0140397350993				0.421827814569536	-0.225271523178808	-0.88794701986755	-1.39258278145695	166.186490066225	-4.40026490066225				0.304529801324503	0.351470198675497	-0.949721854304636	39.7229139072848	151.94357615894	22.9043708609272				1.17202649006623	0.0514966887417219	0.293933774834437	-7.8882119205298	9.85192052980133	3.30251655629139				0.367788079470199	-0.270834437086093	-0.868238410596026	54.0603973509934	132.59761589404	-25.114701986755			
91	1840	0.391841059602649	-0.0132450331125828	-0.903523178807947	20.4733774834437	167.015364238411	-14.6249006622517				1.07295364238411	-0.0482119205298013	0.301139072847682	35.9939072847682	-157.612185430464	16.2140397350993				0.485827814569536	-0.129271523178808	-0.83994701986755	20.447417218543	168.986490066225	-4.96026490066225				0.416529801324503	0.143470198675497	-0.853721854304636	51.2029139072848	150.82357615894	22.6243708609272				1.09202649006623	0.195496688741722	0.213933774834437	-17.6882119205298	-0.508079470198675	0.222516556291392				0.495788079470199	-0.254834437086093	-0.852238410596026	33.3403973509934	148.27761589404	-32.394701986755			
92	1860	0.519841059602649	-0.0132450331125828	-0.823523178807947	12.0733774834437	160.295364238411	-10.9849006622517				0.960953642384106	-0.128211920529801	0.365139072847682	13.5939072847682	-135.492185430464	18.7340397350993				0.549827814569536	-0.0492715231788079	-0.75994701986755	27.1674172185431	169.826490066225	-4.12026490066225				0.496529801324503	0.0474701986754967	-0.805721854304636	36.6429139072848	149.42357615894	10.5843708609272				0.948026490066225	0.147496688741722	0.149933774834437	13.6717880794702	-1.06807947019868	6.66251655629139				0.463788079470199	-0.302834437086093	-0.708238410596026	56.3003973509934	140.15761589404	-34.354701986755			
93	1880	0.583841059602649	0.00275496688741723	-0.759523178807947	18.5133774834437	153.575364238411	-8.74490066225166				0.800953642384106	0.0477880794701987	0.0291390728476822	-4.60609271523179	-139.412185430464	12.8540397350993				0.613827814569536	-0.177271523178808	-0.64794701986755	19.327417218543	170.106490066225	-5.52026490066225				0.432529801324503	0.0474701986754967	-0.725721854304636	32.1629139072848	152.50357615894	9.46437086092715				0.788026490066225	0.00349668874172187	0.101933774834437	25.4317880794702	14.0519205298013	16.4625165562914				0.447788079470199	-0.302834437086093	-0.628238410596026	41.1803973509934	136.51761589404	-44.154701986755			
94	1900	0.455841059602649	-0.0292450331125828	-0.695523178807947	29.1533774834437	156.935364238411	-6.22490066225166				0.544953642384106	0.0157880794701987	-0.162860927152318	-3.20609271523179	-109.452185430464	8.65403973509934				0.533827814569536	-0.225271523178808	-0.66394701986755	-15.952582781457	170.666490066225	-10.2802649006622				0.368529801324503	0.0154701986754967	-0.629721854304636	48.6829139072848	148.58357615894	3.86437086092715				0.756026490066225	-0.156503311258278	0.261933774834437	3.0317880794702	2.01192052980133	11.7025165562914				0.495788079470199	-0.366834437086093	-0.612238410596026	37.2603973509934	128.39761589404	-48.074701986755			
95	1920	0.487841059602649	-0.0132450331125828	-0.583523178807947	25.5133774834437	165.895364238411	-2.86490066225166				0.752953642384106	-0.288211920529801	0.0131390728476822	-6.28609271523179	-67.1721854304636	8.09403973509934				0.453827814569536	-0.0492715231788079	-0.72794701986755	-45.072582781457	179.626490066225	-13.6402649006623				0.384529801324503	-0.0165298013245033	-0.469721854304636	42.8029139072848	135.70357615894	-8.73562913907285				0.772026490066225	-0.0765033112582781	0.101933774834437	8.9117880794702	-32.4280794701987	8.34251655629139				0.543788079470199	-0.398834437086093	-0.644238410596026	21.0203973509934	119.43761589404	-57.314701986755			
96	1940	0.439841059602649	-0.0292450331125828	-0.519523178807947	23.8333774834437	170.655364238411	0.495099337748344				0.608953642384106	-0.000211920529801304	0.0451390728476822	-8.52609271523179	-79.7721854304636	-5.06596026490066				0.405827814569536	0.0627284768211921	-0.55194701986755	-57.952582781457	190.266490066225	-15.8802649006623				0.416529801324503	-0.0325298013245033	-0.469721854304636	49.2429139072848	110.50357615894	-4.53562913907285				0.692026490066225	0.00349668874172187	0.0859337748344371	-0.0482119205298018	-35.7880794701987	13.6625165562914				0.479788079470199	-0.270834437086093	-0.676238410596026	4.78039735099338	98.7176158940397	-65.714701986755			
97	1960	0.471841059602649	-0.109245033112583	-0.471523178807947	27.1933774834437	172.615364238411	3.01509933774834				0	0	0	0	0	0				0.533827814569536	0.142728476821192	-0.34394701986755	-62.432582781457	178.786490066225	-11.6802649006622				0.448529801324503	-0.192529801324503	-0.549721854304636	62.6829139072848	107.70357615894	18.9843708609272				0.548026490066225	-0.0445033112582781	0.133933774834437	-8.4482119205298	-67.9880794701987	22.0625165562914				0.367788079470199	-0.318834437086093	-0.388238410596026	21.8603973509934	86.3976158940397	-54.234701986755			
98	1980	0.503841059602649	-0.0772450331125828	-0.487523178807947	-3.88662251655629	172.335364238411	9.45509933774835				0.352953642384106	-0.000211920529801304	-0.162860927152318	-23.9260927152318	-88.4521854304636	-9.54596026490066				0.501827814569536	0.126728476821192	-0.43994701986755	-58.792582781457	179.066490066225	-18.6802649006623				0	0	0	0	0	0				0	0	0	0	0	0				0	0	0	0	0	0			
99	2000	0.487841059602649	0.0987549668874172	-0.471523178807947	-22.9266225165563	185.775364238411	16.7350993377483				0.384953642384106	-0.0642119205298013	0.0451390728476822	-30.6460927152318	-57.6521854304636	-3.94596026490066				0.485827814569536	0.190728476821192	-0.35994701986755	-43.392582781457	170.386490066225	-31.8402649006623				0	0	0	0	0	0				0	0	0	0	0	0				0	0	0	0	0	0			
100	2020	0.423841059602649	0.210754966887417	-0.359523178807947	-22.9266225165563	191.375364238411	26.8150993377483				0.368953642384106	0.0957880794701987	-0.0188609271523178	-17.7660927152318	-74.7321854304636	-9.26596026490066				0.357827814569536	0.0947284768211921	-0.31194701986755	-26.872582781457	163.386490066225	-26.2402649006623				0.176529801324503	-0.0965298013245033	-0.565721854304636	22.6429139072848	57.8635761589404	-5.93562913907285				0.356026490066225	0.0674966887417219	0.00593377483443711	-9.8482119205298	-53.1480794701987	8.34251655629139				0.255788079470199	0.145165562913907	-0.548238410596027	-10.8996026490066	37.3976158940397	-44.434701986755			
101	2040	0.503841059602649	0.130754966887417	-0.215523178807947	24.3933774834437	186.335364238411	30.7350993377483				0.240953642384106	0.0637880794701987	-0.178860927152318	-13.5660927152318	-80.3321854304636	-7.58596026490066				0.421827814569536	-0.0332715231788079	-0.32794701986755	-29.672582781457	155.546490066225	-27.9202649006623				0.320529801324503	-0.208529801324503	-0.613721854304636	36.9229139072848	51.9835761589404	7.78437086092715				0.340026490066225	-0.0125033112582781	0.00593377483443711	-13.2082119205298	-76.9480794701987	8.90251655629139				0.191788079470199	-0.0468344370860927	-0.308238410596026	10.3803973509934	21.9976158940397	-38.554701986755			
102	2060	0.583841059602649	0.0987549668874172	-0.311523178807947	19.9133774834437	183.535364238411	34.0950993377484				0.208953642384106	0.0637880794701987	-0.0828609271523179	-28.1260927152318	-55.9721854304636	-12.3459602649007				0.437827814569536	-0.0812715231788079	-0.23194701986755	-39.472582781457	145.186490066225	-34.3602649006623				0.352529801324503	-0.304529801324503	-0.469721854304636	17.3229139072848	15.8635761589404	-12.0956291390728				0.244026490066225	-0.0445033112582781	-0.250066225165563	-13.7682119205298	-78.0680794701987	6.66251655629139				0.239788079470199	-0.126834437086093	-0.196238410596026	-8.09960264900662	32.3576158940397	-17.554701986755			
103	2080	0.567841059602649	0.162754966887417	-0.343523178807947	-13.9666225165563	163.935364238411	33.5350993377483				0.240953642384106	0.175788079470199	0.0931390728476822	-10.2060927152318	-27.1321854304636	-16.2659602649007				0.517827814569536	-0.113271523178808	-0.45594701986755	-49.832582781457	126.146490066225	-33.8002649006623				0.240529801324503	-0.208529801324503	-0.389721854304636	-8.71708609271523	-15.2164238410596	-26.6556291390729				0.308026490066225	0.0354966887417219	-0.250066225165563	-16.2882119205298	-29.3480794701987	-0.617483443708608				0.223788079470199	0.0811655629139073	-0.388238410596026	-45.3396026490066	21.4376158940397	-15.594701986755			
104	2100	0.599841059602649	0.386754966887417	-0.247523178807947	-24.0466225165563	135.655364238411	25.9750993377483				0.320953642384106	0.223788079470199	-0.130860927152318	0.993907284768212	-39.1721854304636	-17.9459602649007				0.709827814569536	-0.0332715231788079	-0.48794701986755	-43.672582781457	107.106490066225	-18.9602649006623				0.240529801324503	-0.0965298013245033	-0.421721854304636	-29.9970860927152	-19.4164238410596	-22.4556291390729				0.356026490066225	0.131496688741722	-0.0420662251655629	-11.8082119205298	-20.1080794701987	-5.65748344370861				0.207788079470199	0.241165562913907	-0.292238410596026	-20.4196026490066	11.0776158940397	-32.114701986755			
105	2120	0.791841059602649	0.482754966887417	-0.391523178807947	-19.0066225165563	105.975364238411	5.25509933774834				0.432953642384106	0.0317880794701987	0.0291390728476822	-7.40609271523179	-24.6121854304636	-1.14596026490066				0.741827814569536	-0.145271523178808	-0.37594701986755	-25.472582781457	78.2664900662252	-10.0002649006623				0.288529801324503	0.0154701986754967	-0.421721854304636	-16.2770860927152	-2.8964238410596	-17.4156291390728				0.452026490066225	0.0674966887417219	-0.0900662251655629	-14.0482119205298	-31.0280794701987	-10.4174834437086				0.207788079470199	0.0171655629139073	-0.356238410596026	-3.05960264900662	15.8376158940397	-23.994701986755			
106	2140	0.887841059602649	0.466754966887417	-0.551523178807947	-19.5666225165563	70.6953642384106	0.775099337748344				0.448953642384106	0.0797880794701987	0.141139072847682	-25.3260927152318	7.30781456953642	-6.74596026490066				0.757827814569536	-0.177271523178808	-0.39194701986755	-12.312582781457	35.4264900662252	-6.64026490066225				0.336529801324503	0.0154701986754967	-0.405721854304636	12.5629139072848	6.3435761589404	-20.7756291390729				0.500026490066225	0.0514966887417219	-0.0580662251655629	-11.8082119205298	-19.2680794701987	-13.2174834437086				0.431788079470199	-0.110834437086093	-0.404238410596026	-13.6996026490066	21.1576158940397	-10.834701986755			
107	2160	0.887841059602649	0.434754966887417	-0.567523178807947	9.55337748344371	33.4553642384106	-1.18490066225166				0.736953642384106	0.111788079470199	0.125139072847682	-9.92609271523179	16.8278145695364	-4.78596026490066				0.885827814569536	0.0147284768211921	-0.35994701986755	5.32741721854305	4.06649006622517	-1.04026490066225				0.432529801324503	0.0154701986754967	-0.549721854304636	38.0429139072848	16.1435761589404	-23.2956291390729				0.612026490066225	0.147496688741722	0.00593377483443711	-8.1682119205298	-8.06807947019868	-14.0574834437086				0.575788079470199	-0.0628344370860927	-0.420238410596026	-27.4196026490066	23.1176158940397	-10.274701986755			
108	2180	1.01584105960265	0.210754966887417	-0.407523178807947	6.75337748344371	10.7753642384106	0.775099337748344				0.976953642384106	0.0317880794701987	-0.0188609271523178	0.993907284768212	9.82781456953643	-0.30596026490066				0.917827814569536	0.0947284768211921	-0.32794701986755	8.96741721854305	-8.81350993377484	1.75973509933775				0.640529801324503	-0.0325298013245033	-0.581721854304636	41.1229139072848	27.0635761589404	-26.6556291390729				0.788026490066225	0.0994966887417219	0.0539337748344371	-1.7282119205298	9.57192052980133	-14.3374834437086				0.655788079470199	-0.126834437086093	-0.452238410596026	-21.5396026490066	35.7176158940397	-8.31470198675497			
109	2200	1.06384105960265	-0.173245033112583	-0.391523178807947	22.1533774834437	2.0953642384106	1.33509933774834				1.15295364238411	-0.000211920529801304	0.0451390728476822	-8.80609271523179	3.66781456953642	0.53403973509934				0.949827814569536	0.126728476821192	-0.31194701986755	9.80741721854305	-20.0135099337748	0.91973509933775				0.784529801324503	-0.000529801324503289	-0.613721854304636	15.0829139072848	21.1835761589404	-24.1356291390729				1.01202649006623	0.0674966887417219	0.149933774834437	2.1917880794702	20.2119205298013	-14.6174834437086				0.783788079470199	-0.158834437086093	-0.596238410596026	7.86039735099338	32.0776158940397	-8.59470198675497			
110	2220	1.01584105960265	-0.349245033112583	-0.327523178807947	11.7933774834437	1.8153642384106	5.25509933774834				1.08895364238411	0.0477880794701987	-0.00286092715231785	-9.64609271523179	-24.6121854304636	-6.74596026490066				0.917827814569536	0.110728476821192	-0.27994701986755	24.927417218543	-14.1335099337748	3.15973509933775				0.928529801324503	0.0314701986754967	-0.677721854304636	9.76291390728477	23.7035761589404	-19.9356291390729				1.14002649006623	0.0674966887417219	0.149933774834437	1.6317880794702	10.6919205298013	-12.9374834437086				0.959788079470199	-0.270834437086093	-0.612238410596026	2.54039735099338	24.7976158940397	-9.43470198675497			
111	2240	0.919841059602649	-0.253245033112583	-0.295523178807947	-18.7266225165563	6.0153642384106	7.49509933774834				0.992953642384106	0.0157880794701987	-0.146860927152318	1.55390728476821	-13.1321854304636	-7.02596026490066				0.965827814569536	0.0307284768211921	-0.32794701986755	15.127417218543	-7.69350993377483	7.07973509933775				0.912529801324503	-0.000529801324503289	-0.709721854304636	16.2029139072848	20.9035761589404	-21.0556291390728				1.10802649006623	0.131496688741722	0.117933774834437	2.7517880794702	4.81192052980133	-9.29748344370861				1.0077880794702	-0.334834437086093	-0.580238410596026	-5.57960264900662	23.6776158940397	-7.75470198675497			
112	2260	0.903841059602649	0.0667549668874172	-0.343523178807947	-21.8066225165563	0.415364238410596	4.69509933774834				1.05695364238411	-0.0162119205298013	-0.0348609271523178	9.39390728476821	0.867814569536424	-2.54596026490066				0.997827814569536	-0.0492715231788079	-0.40794701986755	-1.95258278145695	4.90649006622517	4.55973509933775				0.768529801324503	-0.000529801324503289	-0.725721854304636	6.96291390728477	13.0635761589404	-21.8956291390728				1.04402649006623	0.0514966887417219	0.117933774834437	7.2317880794702	9.29192052980133	-6.77748344370861				0.879788079470199	-0.334834437086093	-0.628238410596026	5.34039735099338	16.3976158940397	-2.15470198675497			
113	2280	0.871841059602649	0.194754966887417	-0.263523178807947	-16.4866225165563	-2.3846357615894	4.97509933774835				1.00895364238411	-0.000211920529801304	-0.00286092715231785	-2.36609271523179	-10.8921854304636	-0.585960264900661				0.917827814569536	-0.225271523178808	-0.37594701986755	-9.79258278145695	12.4664900662252	-0.20026490066225				0.752529801324503	-0.000529801324503289	-0.677721854304636	-5.07708609271523	4.3835761589404	-19.6556291390729				1.01202649006623	0.0194966887417219	0.133933774834437	0.511788079470198	3.69192052980133	-7.61748344370861				0.815788079470199	-0.334834437086093	-0.596238410596026	6.74039735099338	1.83761589403974	0.365298013245032			
114	2300	0.887841059602649	0.130754966887417	-0.247523178807947	1.15337748344371	-4.3446357615894	4.69509933774834				1.00895364238411	-0.000211920529801304	-0.0668609271523178	-12.7260927152318	-15.0921854304636	4.17403973509934				0.901827814569536	-0.161271523178808	-0.37594701986755	-17.352582781457	11.6264900662252	-0.48026490066225				0.736529801324503	-0.0165298013245033	-0.645721854304636	-11.2370860927152	1.8635761589404	-14.3356291390729				0.996026490066225	0.0674966887417219	0.0699337748344371	-10.4082119205298	-7.50807947019868	-7.61748344370861				0.847788079470199	-0.318834437086093	-0.516238410596026	3.10039735099338	-2.08238410596027	4.00529801324503			
115	2320	0.967841059602649	0.0347549668874172	-0.359523178807947	12.6333774834437	0.135364238410596	1.33509933774834				1.05695364238411	-0.0482119205298013	-0.0828609271523179	-19.4460927152318	-16.4921854304636	6.69403973509934				0.885827814569536	-0.0492715231788079	-0.40794701986755	-21.552582781457	14.4264900662252	2.59973509933775				0.656529801324503	-0.0325298013245033	-0.629721854304636	-7.31708609271523	1.3035761589404	-10.1356291390728				0.948026490066225	0.0834966887417219	0.0379337748344371	-9.8482119205298	-4.42807947019868	-5.37748344370861				0.863788079470199	-0.270834437086093	-0.516238410596026	-15.3796026490066	1.83761589403974	10.165298013245			
116	2340	0.919841059602649	-0.0452450331125828	-0.407523178807947	6.75337748344371	4.0553642384106	-1.18490066225166				0.960953642384106	-0.000211920529801304	-0.0988609271523179	-18.8860927152318	-13.1321854304636	4.45403973509934				0.885827814569536	0.0467284768211921	-0.35994701986755	-26.032582781457	15.2664900662252	3.15973509933775				0.592529801324503	0.0154701986754967	-0.645721854304636	-7.03708609271523	-0.6564238410596	-6.77562913907285				0.932026490066225	0.0194966887417219	0.0859337748344371	-10.6882119205298	3.41192052980132	-2.85748344370861				0.783788079470199	-0.222834437086093	-0.500238410596026	-9.77960264900662	4.91761589403974	8.48529801324503			
117	2360	0.855841059602649	-0.0292450331125828	-0.343523178807947	-11.1666225165563	2.6553642384106	0.215099337748344				0.912953642384106	0.0157880794701987	-0.114860927152318	-14.1260927152318	-29.0921854304636	3.05403973509934				0.837827814569536	0.0467284768211921	-0.32794701986755	-3.91258278145695	7.98649006622517	2.59973509933775				0.720529801324503	-0.0325298013245033	-0.661721854304636	5.84291390728477	-3.1764238410596	3.02437086092715				0.980026490066225	0.0194966887417219	0.0699337748344371	-13.2082119205298	-3.02807947019868	-0.897483443708608				0.783788079470199	-0.222834437086093	-0.516238410596026	-1.93960264900662	1.83761589403974	0.925298013245032			
118	2380	0.855841059602649	0.0507549668874172	-0.327523178807947	-19.5666225165563	-0.424635761589404	2.73509933774834				0.912953642384106	0.0157880794701987	-0.242860927152318	-6.28609271523179	-24.8921854304636	0.25403973509934				0.837827814569536	-0.00127152317880793	-0.31194701986755	1.40741721854305	2.10649006622517	3.15973509933775				0.800529801324503	-0.0965298013245033	-0.645721854304636	0.802913907284768	-3.7364238410596	5.82437086092715				0.996026490066225	0.0514966887417219	0.0219337748344371	-13.2082119205298	-6.94807947019868	0.502516556291392				0.799788079470199	-0.286834437086093	-0.516238410596026	-2.21960264900662	-0.962384105960265	-3.55470198675497			
119	2400	0.919841059602649	0.0827549668874172	-0.391523178807947	-13.9666225165563	1.5353642384106	4.41509933774834				1.00895364238411	-0.000211920529801304	-0.162860927152318	-4.04609271523179	-16.2121854304636	0.81403973509934				0.885827814569536	0.0307284768211921	-0.34394701986755	-13.712582781457	6.86649006622517	0.63973509933775				0.768529801324503	-0.000529801324503289	-0.645721854304636	-12.6370860927152	-10.1764238410596	4.42437086092715				0.996026490066225	0.0514966887417219	0.0539337748344371	-14.8882119205298	-8.62807947019868	0.782516556291392				0.799788079470199	-0.238834437086093	-0.548238410596027	-10.8996026490066	-2.36238410596027	-4.11470198675497			
120	2420	0.887841059602649	0.0827549668874172	-0.279523178807947	-0.806622516556291	5.1753642384106	4.69509933774834				1.05695364238411	0.0317880794701987	-0.0508609271523178	-14.9660927152318	-10.0521854304636	0.81403973509934				0.949827814569536	0.0627284768211921	-0.39194701986755	-24.632582781457	11.9064900662252	0.35973509933775				0.736529801324503	0.0474701986754967	-0.677721854304636	-5.91708609271523	-11.8564238410596	4.70437086092715				0.964026490066225	0.0514966887417219	0.0539337748344371	-14.8882119205298	-10.3080794701987	1.06251655629139				0.719788079470199	-0.174834437086093	-0.612238410596026	-12.8596026490066	4.35761589403974	-3.27470198675497			
121	2440	0.935841059602649	0.0347549668874172	-0.263523178807947	1.43337748344371	7.1353642384106	4.41509933774834				0.992953642384106	0.0477880794701987	-0.114860927152318	-18.6060927152318	-23.2121854304636	-0.86596026490066				0.933827814569536	0.0307284768211921	-0.40794701986755	-20.992582781457	8.82649006622517	0.91973509933775				0.768529801324503	-0.0325298013245033	-0.677721854304636	1.64291390728477	-13.5364238410596	4.42437086092715				0.996026490066225	0.0674966887417219	0.00593377483443711	-11.8082119205298	-11.4280794701987	-0.617483443708608				0.751788079470199	-0.190834437086093	-0.596238410596026	-4.73960264900662	0.157615894039735	-0.474701986754968			
122	2460	0.919841059602649	0.0667549668874172	-0.247523178807947	-9.20662251655629	10.4953642384106	3.29509933774834				0.912953642384106	0.111788079470199	-0.194860927152318	-8.24609271523179	-24.6121854304636	-1.42596026490066				0.853827814569536	-0.0332715231788079	-0.32794701986755	-16.792582781457	18.9064900662252	-1.60026490066225				0.768529801324503	-0.0485298013245033	-0.645721854304636	-7.87708609271523	-12.4164238410596	2.46437086092715				0.996026490066225	0.0834966887417219	0.00593377483443711	-12.0882119205298	-11.7080794701987	-2.85748344370861				0.767788079470199	-0.238834437086093	-0.548238410596027	-15.9396026490066	-1.52238410596026	0.0852980132450323			
123	2480	0.903841059602649	0.130754966887417	-0.199523178807947	-13.1266225165563	9.0953642384106	1.89509933774834				0.896953642384106	0.0637880794701987	-0.242860927152318	-4.04609271523179	-20.1321854304636	1.65403973509934				0.821827814569536	0.0147284768211921	-0.23194701986755	-18.192582781457	15.5464900662252	3.71973509933775				0.688529801324503	0.0314701986754967	-0.613721854304636	-5.91708609271523	-11.0164238410596	-1.73562913907285				0.980026490066225	0.0674966887417219	-0.0260662251655629	-13.2082119205298	-11.7080794701987	-2.57748344370861				0.767788079470199	-0.174834437086093	-0.580238410596026	-18.7396026490066	-0.402384105960265	0.645298013245032			
124	2500	0.887841059602649	0.178754966887417	-0.183523178807947	-8.92662251655629	4.6153642384106	1.05509933774834				0.880953642384106	-0.000211920529801304	-0.162860927152318	-9.92609271523179	-12.5721854304636	-0.0259602649006601				0.901827814569536	0.0147284768211921	-0.31194701986755	-22.672582781457	12.1864900662252	8.75973509933775				0.608529801324503	0.0314701986754967	-0.629721854304636	1.36291390728477	-8.4964238410596	-2.85562913907285				0.964026490066225	0.0354966887417219	-0.0100662251655629	-8.7282119205298	-11.4280794701987	-1.73748344370861				0.735788079470199	-0.0788344370860927	-0.612238410596026	-9.49960264900662	2.39761589403974	-1.31470198675497			
125	2520	0.935841059602649	0.114754966887417	-0.215523178807947	3.39337748344371	1.8153642384106	0.775099337748344				0.880953642384106	0.0317880794701987	-0.162860927152318	-3.48609271523179	-10.0521854304636	-2.54596026490066				0.869827814569536	0.0307284768211921	-0.27994701986755	-13.992582781457	11.9064900662252	7.35973509933775				0.656529801324503	0.0154701986754967	-0.645721854304636	7.24291390728477	-9.0564238410596	-4.53562913907285				0.932026490066225	0.0674966887417219	-0.0260662251655629	-6.4882119205298	-16.1880794701987	0.222516556291392				0.751788079470199	-0.0948344370860927	-0.612238410596026	2.26039735099338	-0.402384105960265	-3.55470198675497			
126	2540	0.919841059602649	0.0507549668874172	-0.199523178807947	1.15337748344371	2.0953642384106	1.61509933774834				0.912953642384106	0.0317880794701987	-0.162860927152318	-0.686092715231788	-2.21218543046358	-1.42596026490066				0.885827814569536	0.0467284768211921	-0.24794701986755	-6.15258278145695	4.62649006622517	6.23973509933775				0.704529801324503	0.0154701986754967	-0.613721854304636	8.64291390728477	-4.2964238410596	-9.85562913907285				0.900026490066225	0.0994966887417219	0.00593377483443711	-3.6882119205298	-11.7080794701987	1.90251655629139				0.751788079470199	-0.142834437086093	-0.564238410596026	-1.65960264900662	0.157615894039735	-4.95470198675497			
127	2560	0.967841059602649	0.00275496688741723	-0.263523178807947	0.593377483443709	-1.2646357615894	1.61509933774834				1.00895364238411	-0.000211920529801304	-0.0668609271523178	-4.88609271523179	0.307814569536424	-0.0259602649006601				0.981827814569536	0.0307284768211921	-0.39194701986755	-6.99258278145695	-4.61350993377483	5.67973509933775				0.704529801324503	-0.000529801324503289	-0.613721854304636	13.1229139072848	2.9835761589404	-10.6956291390728				0.900026490066225	0.0514966887417219	0.0219337748344371	1.0717880794702	-2.74807947019868	3.30251655629139				0.735788079470199	-0.126834437086093	-0.628238410596026	-1.65960264900662	-0.122384105960265	-6.63470198675497			
128	2580	0.951841059602649	0.0187549668874172	-0.247523178807947	-4.72662251655629	-6.0246357615894	2.45509933774835				0.976953642384106	0.0157880794701987	-0.114860927152318	-0.686092715231788	-6.97218543046358	0.53403973509934				0.933827814569536	0.0307284768211921	-0.42394701986755	-7.55258278145695	-6.57350993377483	0.63973509933775				0.688529801324503	-0.0325298013245033	-0.645721854304636	13.6829139072848	4.3835761589404	-6.49562913907285				0.916026490066225	0.0354966887417219	0.0379337748344371	3.8717880794702	0.331920529801325	2.46251655629139				0.735788079470199	-0.142834437086093	-0.612238410596026	6.46039735099338	-5.16238410596027	-6.91470198675497			
129	2600	0.903841059602649	0.0507549668874172	-0.199523178807947	-5.56662251655629	-4.3446357615894	2.17509933774834				0.928953642384106	0.0317880794701987	-0.162860927152318	2.67390728476821	-3.33218543046358	-0.30596026490066				0.869827814569536	0.0627284768211921	-0.24794701986755	-4.47258278145695	-6.29350993377483	-4.12026490066225				0.784529801324503	-0.0485298013245033	-0.661721854304636	7.52291390728477	-4.8564238410596	-4.53562913907285				0.948026490066225	0.0674966887417219	0.0379337748344371	4.9917880794702	2.01192052980133	2.74251655629139				0.783788079470199	-0.206834437086093	-0.612238410596026	8.98039735099338	-7.68238410596027	-6.63470198675497			
130	2620	0.935841059602649	0.0507549668874172	-0.231523178807947	-1.08662251655629	-5.1846357615894	1.61509933774834				0.944953642384106	0.0477880794701987	-0.146860927152318	6.03390728476821	0.307814569536424	1.37403973509934				0.901827814569536	0.0947284768211921	-0.27994701986755	-0.832582781456954	-6.57350993377483	-4.40026490066225				0.816529801324503	-0.0165298013245033	-0.629721854304636	4.44291390728477	-8.2164238410596	-2.29562913907285				0.980026490066225	0.0674966887417219	0.0539337748344371	4.7117880794702	2.29192052980133	2.74251655629139				0.799788079470199	-0.222834437086093	-0.596238410596026	8.70039735099338	-11.3223841059603	-6.35470198675497			
131	2640	0.951841059602649	0.0827549668874172	-0.215523178807947	4.23337748344371	-2.6646357615894	2.73509933774834				0.992953642384106	0.0477880794701987	-0.162860927152318	7.71390728476821	-6.13218543046358	2.49403973509934				0.933827814569536	0.0307284768211921	-0.34394701986755	13.447417218543	-1.53350993377483	-6.92026490066225				0.720529801324503	0.0154701986754967	-0.597721854304636	1.64291390728477	-10.1764238410596	2.18437086092715				0.964026490066225	0.0514966887417219	0.0539337748344371	9.1917880794702	4.53192052980133	3.86251655629139				0.783788079470199	-0.222834437086093	-0.564238410596026	7.86039735099338	-11.6023841059603	-6.35470198675497			
132	2660	0.935841059602649	0.0827549668874172	-0.199523178807947	10.1133774834437	-4.3446357615894	0.775099337748344				0.976953642384106	-0.000211920529801304	-0.178860927152318	11.6339072847682	-7.25218543046358	2.49403973509934				0.885827814569536	-0.0652715231788079	-0.27994701986755	21.287417218543	0.426490066225167	-6.64026490066225				0.720529801324503	0.0154701986754967	-0.645721854304636	4.44291390728477	-6.5364238410596	4.70437086092715				0.980026490066225	0.00349668874172187	0.0539337748344371	9.4717880794702	4.81192052980133	5.26251655629139				0.751788079470199	-0.190834437086093	-0.628238410596026	10.1003973509934	-13.2823841059603	-7.47470198675497			
133	2680	0.935841059602649	0.0347549668874172	-0.247523178807947	14.3133774834437	-3.2246357615894	-0.904900662251656				0.960953642384106	-0.0162119205298013	-0.210860927152318	17.2339072847682	-6.13218543046358	0.53403973509934				0.949827814569536	-0.0972715231788079	-0.29594701986755	16.807417218543	2.66649006622517	-3.56026490066225				0.720529801324503	-0.0485298013245033	-0.597721854304636	5.28291390728477	3.8235761589404	2.46437086092715				0.996026490066225	0.00349668874172187	-0.0100662251655629	9.4717880794702	2.29192052980133	5.54251655629139				0.735788079470199	-0.222834437086093	-0.596238410596026	16.2603973509934	-15.8023841059603	-8.59470198675497			
134	2700	0.951841059602649	0.0507549668874172	-0.215523178807947	12.3533774834437	-4.9046357615894	-1.46490066225166				0.960953642384106	-0.000211920529801304	-0.194860927152318	18.6339072847682	0.0278145695364242	0.25403973509934				0.901827814569536	-0.0172715231788079	-0.39194701986755	9.52741721854305	-1.53350993377483	-3.28026490066225				0.704529801324503	-0.000529801324503289	-0.629721854304636	7.24291390728477	3.2635761589404	-3.69562913907285				0.980026490066225	0.0194966887417219	-0.0100662251655629	12.2717880794702	4.25192052980133	6.94251655629139				0.735788079470199	-0.190834437086093	-0.628238410596026	10.1003973509934	-8.80238410596027	-6.63470198675497			
135	2720	0.935841059602649	0.0507549668874172	-0.263523178807947	12.3533774834437	-6.0246357615894	-1.46490066225166				0.944953642384106	-0.0162119205298013	-0.146860927152318	17.7939072847682	2.82781456953642	-0.86596026490066				0.885827814569536	0.0307284768211921	-0.31194701986755	8.68741721854305	-1.25350993377483	-3.28026490066225				0.720529801324503	-0.0165298013245033	-0.629721854304636	17.6029139072848	2.9835761589404	-2.57562913907285				0.916026490066225	0.0194966887417219	0.0219337748344371	16.4717880794702	6.21192052980133	8.62251655629139				0.703788079470199	-0.142834437086093	-0.660238410596027	15.9803973509934	-6.56238410596027	-6.91470198675497			
136	2740	0.903841059602649	0.0507549668874172	-0.247523178807947	14.5933774834437	-5.4646357615894	-2.02490066225166				0.944953642384106	-0.0322119205298013	-0.162860927152318	22.8339072847682	-1.09218543046358	-1.70596026490066				0.885827814569536	0.0467284768211921	-0.32794701986755	16.5274172185431	-3.77350993377483	-6.08026490066225				0.752529801324503	-0.128529801324503	-0.661721854304636	16.4829139072848	-0.3764238410596	3.30437086092715				0.932026490066225	-0.0125033112582781	0.0219337748344371	21.2317880794702	8.17192052980133	9.18251655629139				0.703788079470199	-0.158834437086093	-0.660238410596027	24.3803973509934	-14.4023841059603	-9.43470198675497			
137	2760	0.919841059602649	0.0507549668874172	-0.311523178807947	15.4333774834437	-5.7446357615894	-3.14490066225166				0.928953642384106	0.0157880794701987	-0.210860927152318	23.9539072847682	0.0278145695364242	-2.26596026490066				0.901827814569536	0.0147284768211921	-0.31194701986755	26.3274172185431	-2.93350993377483	-6.92026490066225				0.784529801324503	-0.0805298013245033	-0.645721854304636	11.1629139072848	-5.6964238410596	3.58437086092715				0.964026490066225	-0.0125033112582781	0.0219337748344371	20.6717880794702	10.1319205298013	7.50251655629139				0.703788079470199	-0.270834437086093	-0.612238410596026	26.3403973509934	-16.6423841059603	-6.63470198675497			
138	2780	0.903841059602649	0.0347549668874172	-0.311523178807947	16.5533774834437	-4.9046357615894	-3.42490066225166				0.960953642384106	0.0317880794701987	-0.226860927152318	18.6339072847682	5.62781456953642	-1.14596026490066				0.885827814569536	-0.0332715231788079	-0.31194701986755	20.447417218543	-2.93350993377483	-5.52026490066225				0.784529801324503	-0.0485298013245033	-0.629721854304636	10.0429139072848	-4.5764238410596	1.34437086092715				0.996026490066225	0.00349668874172187	0.0539337748344371	17.8717880794702	9.85192052980133	5.54251655629139				0.719788079470199	-0.270834437086093	-0.612238410596026	12.3403973509934	-13.8423841059603	-3.27470198675497			
139	2800	0.919841059602649	0.00275496688741723	-0.295523178807947	20.7533774834437	-4.0646357615894	-2.30490066225166				0.992953642384106	0.0157880794701987	-0.210860927152318	25.9139072847682	4.22781456953642	-1.42596026490066				0.917827814569536	-0.0172715231788079	-0.34394701986755	11.207417218543	-3.77350993377483	-5.52026490066225				0.768529801324503	-0.0485298013245033	-0.629721854304636	12.8429139072848	-0.9364238410596	1.06437086092715				0.996026490066225	-0.0285033112582781	0.0699337748344371	23.1917880794702	10.4119205298013	4.70251655629139				0.719788079470199	-0.286834437086093	-0.580238410596026	13.1803973509934	-18.6023841059603	-3.27470198675497			
140	2820	0.919841059602649	-0.0132450331125828	-0.311523178807947	18.5133774834437	-3.2246357615894	-2.86490066225166				1.02495364238411	-0.0322119205298013	-0.194860927152318	30.9539072847682	0.867814569536424	-2.54596026490066				0.933827814569536	0.0147284768211921	-0.37594701986755	17.647417218543	-3.77350993377483	-6.08026490066225				0.800529801324503	-0.0165298013245033	-0.645721854304636	10.8829139072848	-4.8564238410596	1.06437086092715				1.01202649006623	0.00349668874172187	0.0379337748344371	20.3917880794702	7.61192052980133	4.70251655629139				0.735788079470199	-0.270834437086093	-0.580238410596026	15.7003973509934	-18.8823841059603	-2.99470198675497			
141	2840	0.919841059602649	0.0187549668874172	-0.295523178807947	14.8733774834437	-5.1846357615894	-3.14490066225166				0.960953642384106	-0.0162119205298013	-0.210860927152318	27.8739072847682	0.0278145695364242	-3.38596026490066				0.901827814569536	-0.00127152317880793	-0.29594701986755	28.8474172185431	2.66649006622517	-6.36026490066225				0.768529801324503	-0.0165298013245033	-0.613721854304636	14.2429139072848	-7.3764238410596	2.46437086092715				1.01202649006623	0.00349668874172187	0.0539337748344371	19.5517880794702	5.37192052980133	4.42251655629139				0.719788079470199	-0.270834437086093	-0.532238410596027	8.98039735099338	-13.0023841059603	0.645298013245032			
142	2860	0.903841059602649	0.0187549668874172	-0.311523178807947	16.2733774834437	-2.3846357615894	-2.86490066225166				0.976953642384106	-0.0162119205298013	-0.210860927152318	18.6339072847682	2.54781456953642	-3.38596026490066				0.917827814569536	-0.0492715231788079	-0.29594701986755	33.607417218543	2.66649006622517	-4.40026490066225				0.736529801324503	-0.0805298013245033	-0.677721854304636	11.7229139072848	-5.9764238410596	2.18437086092715				0.980026490066225	-0.0125033112582781	0.0859337748344371	19.5517880794702	2.29192052980133	2.74251655629139				0.687788079470199	-0.286834437086093	-0.532238410596027	15.4203973509934	-7.40238410596027	0.365298013245032			
143	2880	0.935841059602649	0.0667549668874172	-0.247523178807947	4.23337748344371	2.6553642384106	-2.58490066225166				0.976953642384106	-0.0322119205298013	-0.146860927152318	17.7939072847682	0.587814569536424	-1.98596026490066				0.917827814569536	-0.0172715231788079	-0.29594701986755	0.00741721854304636	-0.133509933774833	-0.48026490066225				0.704529801324503	-0.0965298013245033	-0.693721854304636	12.0029139072848	-2.0564238410596	-2.57562913907285				0.980026490066225	-0.0605033112582781	0.0539337748344371	18.1517880794702	-0.228079470198675	1.06251655629139				0.719788079470199	-0.302834437086093	-0.548238410596027	16.2603973509934	-5.44238410596027	-4.95470198675497			
144	2900	0.903841059602649	-0.0132450331125828	-0.311523178807947	18.2333774834437	2.9353642384106	-5.66490066225166				0.960953642384106	-0.0322119205298013	-0.194860927152318	22.2739072847682	-0.812185430463576	-2.26596026490066				0.901827814569536	-0.145271523178808	-0.26394701986755	17.927417218543	3.78649006622517	-1.32026490066225				0.704529801324503	-0.0645298013245033	-0.629721854304636	11.1629139072848	-4.0164238410596	-5.65562913907285				0.996026490066225	-0.0285033112582781	0.0699337748344371	15.0717880794702	-0.228079470198675	0.502516556291392				0.751788079470199	-0.286834437086093	-0.564238410596026	8.70039735099338	-4.60238410596027	-6.35470198675497			
145	2920	0.903841059602649	-0.0132450331125828	-0.327523178807947	12.6333774834437	1.8153642384106	-5.38490066225166				0.944953642384106	-0.0162119205298013	-0.178860927152318	18.0739072847682	2.82781456953642	-3.94596026490066				0.917827814569536	-0.0812715231788079	-0.24794701986755	10.087417218543	2.10649006622517	-0.76026490066225				0.720529801324503	-0.0485298013245033	-0.629721854304636	7.80291390728477	-6.2564238410596	-5.09562913907285				0.964026490066225	0.0194966887417219	0.0539337748344371	13.9517880794702	-0.788079470198675	1.06251655629139				0.719788079470199	-0.270834437086093	-0.564238410596026	7.58039735099338	-4.32238410596027	-5.51470198675497			
146	2940	0.903841059602649	-0.0132450331125828	-0.311523178807947	8.15337748344371	1.5353642384106	-5.94490066225166				0.944953642384106	-0.000211920529801304	-0.146860927152318	12.7539072847682	3.66781456953642	-1.98596026490066				0.933827814569536	-0.0332715231788079	-0.32794701986755	9.52741721854305	-1.53350993377483	-0.20026490066225				0	0	0	0	0	0				0	0	0	0	0	0				0.719788079470199	-0.270834437086093	-0.580238410596026	6.46039735099338	-4.32238410596027	-5.23470198675497			
147	2960	0.919841059602649	0.00275496688741723	-0.343523178807947	4.79337748344371	0.415364238410596	-4.54490066225166				0.976953642384106	-0.0162119205298013	-0.146860927152318	12.4739072847682	-0.252185430463576	-1.14596026490066				0.901827814569536	-0.0172715231788079	-0.32794701986755	11.207417218543	-1.53350993377483	0.35973509933775				0	0	0	0	0	0				0	0	0	0	0	0				0	0	0	0	0	0			
148	2980	0	0	0	0	0	0				0.976953642384106	-0.0162119205298013	-0.130860927152318	10.7939072847682	0.867814569536424	-2.26596026490066				0	0	0	0	0	0				0.656529801324503	-0.0485298013245033	-0.661721854304636	5.84291390728477	-6.2564238410596	-7.33562913907285				0.932026490066225	0.0194966887417219	0.0379337748344371	9.7517880794702	-3.58807947019868	1.06251655629139				0.751788079470199	-0.254834437086093	-0.548238410596027	6.18039735099338	-6.56238410596027	-5.51470198675497			
149	3000	0.903841059602649	0.0347549668874172	-0.311523178807947	7.87337748344371	-2.1046357615894	-5.38490066225166				0.944953642384106	0.0157880794701987	-0.114860927152318	9.95390728476821	-1.37218543046358	-2.54596026490066				0.933827814569536	0.0467284768211921	-0.32794701986755	6.72741721854305	2.66649006622517	-3.28026490066225				0.656529801324503	-0.0645298013245033	-0.645721854304636	1.64291390728477	-3.1764238410596	-8.73562913907285				0.932026490066225	0.0194966887417219	0.0379337748344371	9.1917880794702	1.73192052980133	1.06251655629139				0.719788079470199	-0.222834437086093	-0.548238410596027	3.94039735099338	-4.60238410596027	-2.43470198675497			
150	3020	0.903841059602649	0.0187549668874172	-0.295523178807947	7.03337748344371	-3.5046357615894	-4.54490066225166				0.960953642384106	0.0477880794701987	-0.178860927152318	9.95390728476821	-5.57218543046358	-1.70596026490066				0.917827814569536	0.0147284768211921	-0.32794701986755	10.927417218543	0.706490066225167	-4.40026490066225				0.624529801324503	-0.0165298013245033	-0.645721854304636	1.36291390728477	2.9835761589404	-7.61562913907285				0.964026490066225	0.0514966887417219	0.0379337748344371	8.0717880794702	2.29192052980133	-0.0574834437086077				0.719788079470199	-0.222834437086093	-0.548238410596027	11.7803973509934	-6.84238410596027	-4.39470198675497			
151	3040	0.903841059602649	0.0667549668874172	-0.279523178807947	3.67337748344371	-5.1846357615894	-3.14490066225166				0.944953642384106	0.0477880794701987	-0.178860927152318	9.67390728476821	-3.89218543046358	0.25403973509934				0.901827814569536	-0.0332715231788079	-0.29594701986755	16.807417218543	-1.25350993377483	-4.68026490066225				0.640529801324503	-0.000529801324503289	-0.661721854304636	12.8429139072848	8.3035761589404	-5.37562913907285				0.948026490066225	0.0514966887417219	0.0539337748344371	6.9517880794702	-0.788079470198675	0.222516556291392				0.735788079470199	-0.238834437086093	-0.548238410596027	7.02039735099338	-3.48238410596027	-1.59470198675497			
152	3060	0.919841059602649	0.0507549668874172	-0.295523178807947	6.19337748344371	-4.3446357615894	-2.58490066225166				0.944953642384106	0.0157880794701987	-0.162860927152318	7.15390728476821	1.14781456953642	0.25403973509934				0.901827814569536	0.0307284768211921	-0.32794701986755	10.367417218543	-0.973509933774833	-4.40026490066225				0.688529801324503	-0.0805298013245033	-0.677721854304636	15.0829139072848	3.5435761589404	-7.61562913907285				0.916026490066225	0.0194966887417219	0.0219337748344371	4.9917880794702	-0.788079470198675	1.62251655629139				0.735788079470199	-0.206834437086093	-0.548238410596027	2.82039735099338	0.157615894039735	0.0852980132450323			
153	3080	0.919841059602649	0.0667549668874172	-0.311523178807947	5.63337748344371	-4.9046357615894	-3.14490066225166				0.976953642384106	0.0157880794701987	-0.162860927152318	6.59390728476821	-0.812185430463576	-0.585960264900661				0.901827814569536	0.0147284768211921	-0.31194701986755	7.84741721854305	-0.133509933774833	-3.00026490066225				0.672529801324503	-0.0485298013245033	-0.693721854304636	3.32291390728477	-1.2164238410596	-10.4156291390728				0.948026490066225	0.0354966887417219	0.0379337748344371	6.6717880794702	7.33192052980133	2.18251655629139				0.719788079470199	-0.190834437086093	-0.580238410596026	6.74039735099338	1.83761589403974	-1.31470198675497			
154	3100	0.919841059602649	0.0667549668874172	-0.295523178807947	4.79337748344371	-3.2246357615894	-3.42490066225166				0.960953642384106	0.0477880794701987	-0.162860927152318	9.11390728476821	-5.01218543046358	-0.585960264900661				0.901827814569536	-0.0332715231788079	-0.27994701986755	7.00741721854305	0.706490066225167	-2.44026490066225				0.688529801324503	-0.0165298013245033	-0.693721854304636	-0.877086092715232	-0.6564238410596	-9.01562913907285				0.996026490066225	0.0354966887417219	0.0539337748344371	5.5517880794702	7.89192052980133	1.62251655629139				0.735788079470199	-0.222834437086093	-0.596238410596026	15.1403973509934	-1.24238410596026	-3.83470198675497			
155	3120	0.903841059602649	0.0507549668874172	-0.311523178807947	3.67337748344371	-4.6246357615894	-4.54490066225166				0.960953642384106	0.0477880794701987	-0.242860927152318	7.71390728476821	-5.01218543046358	1.37403973509934				0.917827814569536	-0.0332715231788079	-0.27994701986755	4.48741721854305	-4.05350993377483	-1.60026490066225				0.736529801324503	-0.0165298013245033	-0.645721854304636	1.64291390728477	5.7835761589404	-6.77562913907285				1.01202649006623	0.0354966887417219	0.0219337748344371	4.4317880794702	2.01192052980133	0.222516556291392				0.751788079470199	-0.238834437086093	-0.564238410596026	8.98039735099338	-0.682384105960265	-4.95470198675497			
156	3140	0.903841059602649	0.0347549668874172	-0.343523178807947	1.99337748344371	-4.9046357615894	-4.26490066225166				0.944953642384106	0.0317880794701987	-0.210860927152318	4.07390728476821	1.70781456953642	1.09403973509934				0.917827814569536	0.0307284768211921	-0.31194701986755	-0.552582781456954	-6.01350993377483	-1.32026490066225				0.704529801324503	-0.000529801324503289	-0.693721854304636	8.92291390728477	8.5835761589404	-6.49562913907285				0.948026490066225	0.0354966887417219	0.0379337748344371	4.4317880794702	2.01192052980133	1.34251655629139				0.751788079470199	-0.238834437086093	-0.596238410596026	2.82039735099338	0.717615894039735	-2.71470198675497			
157	3160	0.903841059602649	0.0507549668874172	-0.327523178807947	1.43337748344371	-2.9446357615894	-2.58490066225166				0.960953642384106	0.0157880794701987	-0.178860927152318	3.79390728476821	1.14781456953642	-1.70596026490066				0.901827814569536	0.0307284768211921	-0.29594701986755	7.56741721854305	-5.73350993377484	-2.72026490066225				0.672529801324503	-0.0165298013245033	-0.693721854304636	7.52291390728477	6.0635761589404	-7.61562913907285				0.964026490066225	0.0194966887417219	0.0699337748344371	4.1517880794702	3.41192052980132	2.18251655629139				0.687788079470199	-0.222834437086093	-0.628238410596026	7.86039735099338	-1.24238410596026	-2.99470198675497			
158	3180	0.887841059602649	0.0507549668874172	-0.343523178807947	2.27337748344371	-2.1046357615894	-1.18490066225166				0.992953642384106	0.0477880794701987	-0.178860927152318	6.59390728476821	-0.532185430463576	-2.54596026490066				0.917827814569536	0.0147284768211921	-0.32794701986755	9.80741721854305	-2.93350993377483	-0.76026490066225				0.736529801324503	-0.0805298013245033	-0.693721854304636	-0.0370860927152318	-2.6164238410596	-6.77562913907285				0.964026490066225	0.0514966887417219	0.0379337748344371	4.1517880794702	-0.228079470198675	0.502516556291392				0.703788079470199	-0.222834437086093	-0.596238410596026	10.3803973509934	-5.44238410596027	-2.43470198675497			
159	3200	0.903841059602649	0.0507549668874172	-0.343523178807947	2.55337748344371	-2.1046357615894	-1.74490066225166				0.976953642384106	0.0477880794701987	-0.210860927152318	8.55390728476821	-1.65218543046358	-0.0259602649006601				0.917827814569536	-0.00127152317880793	-0.37594701986755	4.76741721854305	-1.53350993377483	0.0797350993377501				0.736529801324503	-0.0645298013245033	-0.661721854304636	-5.35708609271523	-1.2164238410596	-3.97562913907285				0.996026490066225	0.0514966887417219	0.00593377483443711	5.5517880794702	2.57192052980133	-0.337483443708608				0.767788079470199	-0.222834437086093	-0.596238410596026	5.34039735099338	-2.08238410596027	-0.754701986754968			
160	3220	0.887841059602649	0.0507549668874172	-0.343523178807947	1.71337748344371	-2.9446357615894	-0.904900662251656				0.960953642384106	0.0477880794701987	-0.194860927152318	6.03390728476821	1.70781456953642	-0.30596026490066				0.885827814569536	0.0307284768211921	-0.34394701986755	4.20741721854305	-0.973509933774833	-1.04026490066225				0.688529801324503	-0.000529801324503289	-0.677721854304636	1.64291390728477	6.3435761589404	-2.29562913907285				0.980026490066225	0.0194966887417219	0.0699337748344371	6.1117880794702	5.37192052980133	-0.897483443708608				0.735788079470199	-0.270834437086093	-0.564238410596026	5.34039735099338	-4.04238410596027	-1.31470198675497			
161	3240	0.903841059602649	0.0667549668874172	-0.327523178807947	3.95337748344371	-2.9446357615894	-0.344900662251656				0.960953642384106	0.0317880794701987	-0.178860927152318	7.15390728476821	-0.252185430463576	-1.42596026490066				0.901827814569536	0.0307284768211921	-0.32794701986755	6.44741721854305	-1.25350993377483	-1.04026490066225				0.672529801324503	-0.0165298013245033	-0.693721854304636	6.12291390728477	2.9835761589404	-3.69562913907285				0.948026490066225	0.0194966887417219	0.0699337748344371	5.2717880794702	0.891920529801325	-0.617483443708608				0.719788079470199	-0.222834437086093	-0.564238410596026	6.46039735099338	-3.76238410596027	-4.39470198675497			
162	3260	0.903841059602649	0.0667549668874172	-0.327523178807947	1.43337748344371	-3.5046357615894	-0.904900662251656				0.944953642384106	0.0157880794701987	-0.210860927152318	5.75390728476821	-3.61218543046358	-0.30596026490066				0.885827814569536	-0.00127152317880793	-0.35994701986755	9.24741721854305	-2.93350993377483	-0.48026490066225				0.720529801324503	-0.0485298013245033	-0.677721854304636	-0.877086092715232	-2.0564238410596	-0.895629139072848				0.964026490066225	0.0354966887417219	0.0379337748344371	3.5917880794702	-0.788079470198675	-0.337483443708608				0.719788079470199	-0.222834437086093	-0.580238410596026	6.46039735099338	-2.64238410596027	-4.67470198675497			
163	3280	0.903841059602649	0.0347549668874172	-0.359523178807947	5.07337748344371	-2.1046357615894	-1.74490066225166				0.960953642384106	0.0157880794701987	-0.210860927152318	1.83390728476821	-0.252185430463576	0.25403973509934				0.885827814569536	-0.0332715231788079	-0.34394701986755	9.52741721854305	1.26649006622517	-1.32026490066225				0.736529801324503	-0.0165298013245033	-0.677721854304636	-5.63708609271523	-1.4964238410596	0.504370860927152				0.996026490066225	0.0354966887417219	0.0859337748344371	5.5517880794702	0.0519205298013249	-0.337483443708608				0.767788079470199	-0.270834437086093	-0.564238410596026	4.50039735099338	2.39761589403974	-2.99470198675497			
164	3300	0.903841059602649	0.0187549668874172	-0.327523178807947	2.55337748344371	0.695364238410596	-2.02490066225166				0.976953642384106	-0.000211920529801304	-0.178860927152318	2.95390728476821	0.0278145695364242	0.25403973509934				0.901827814569536	-0.00127152317880793	-0.27994701986755	7.00741721854305	-0.693509933774834	-0.76026490066225				0.672529801324503	-0.0165298013245033	-0.693721854304636	3.60291390728477	1.5835761589404	0.504370860927152				0.980026490066225	-0.0125033112582781	0.0699337748344371	4.4317880794702	-0.508079470198675	1.06251655629139				0.735788079470199	-0.286834437086093	-0.564238410596026	0.300397350993377	1.55761589403974	-4.39470198675497			
165	3320	0.903841059602649	0.0187549668874172	-0.295523178807947	1.71337748344371	-0.704635761589404	-1.74490066225166				0.976953642384106	-0.000211920529801304	-0.162860927152318	3.79390728476821	0.587814569536424	-1.14596026490066				0.917827814569536	-0.0172715231788079	-0.31194701986755	2.80741721854305	-0.133509933774833	-0.76026490066225				0.704529801324503	-0.0965298013245033	-0.661721854304636	1.08291390728477	-5.4164238410596	-0.335629139072848				0.980026490066225	0.0194966887417219	0.0379337748344371	0.231788079470198	-3.02807947019868	0.502516556291392				0.735788079470199	-0.254834437086093	-0.580238410596026	2.54039735099338	-1.80238410596026	-6.35470198675497			
166	3340	0.903841059602649	0.0187549668874172	-0.311523178807947	0.0333774834437086	0.135364238410596	-1.74490066225166				0.960953642384106	0.0477880794701987	-0.162860927152318	1.83390728476821	-2.21218543046358	0.53403973509934				0	0	0	0	0	0				0.720529801324503	-0.0325298013245033	-0.693721854304636	-6.47708609271523	-8.4964238410596	0.784370860927152				0.948026490066225	0.0514966887417219	0.0539337748344371	2.7517880794702	2.01192052980133	0.502516556291392				0.735788079470199	-0.254834437086093	-0.596238410596026	3.94039735099338	0.437615894039735	-4.11470198675497			
167	3360	0.903841059602649	0.0187549668874172	-0.311523178807947	-0.526622516556291	0.695364238410596	-1.18490066225166				0.960953642384106	0.0317880794701987	-0.210860927152318	1.55390728476821	-1.93218543046358	0.81403973509934				0.901827814569536	-0.0332715231788079	-0.27994701986755	1.40741721854305	-1.25350993377483	-0.48026490066225				0.720529801324503	-0.0165298013245033	-0.645721854304636	-3.11708609271523	-1.2164238410596	0.224370860927152				0.996026490066225	0.00349668874172187	0.0379337748344371	2.7517880794702	-1.06807947019868	0.782516556291392				0.735788079470199	-0.270834437086093	-0.596238410596026	4.22039735099338	-2.36238410596027	-2.43470198675497			
168	3380	0.919841059602649	0.0187549668874172	-0.327523178807947	0.0333774834437086	0.975364238410596	-0.0649006622516557				0.960953642384106	0.0157880794701987	-0.210860927152318	3.23390728476821	3.66781456953642	-0.30596026490066				0.917827814569536	-0.0172715231788079	-0.29594701986755	3.64741721854305	1.54649006622517	0.63973509933775				0.656529801324503	-0.0325298013245033	-0.693721854304636	1.64291390728477	1.3035761589404	-0.895629139072848				0.948026490066225	0.00349668874172187	0.0699337748344371	-1.7282119205298	-0.788079470198675	-0.617483443708608				0.703788079470199	-0.222834437086093	-0.580238410596026	-1.37960264900662	-4.32238410596027	-2.15470198675497			
169	3400	0.903841059602649	0.0507549668874172	-0.327523178807947	-0.806622516556291	0.415364238410596	0.215099337748344				0.960953642384106	0.0317880794701987	-0.130860927152318	0.993907284768212	9.82781456953643	-1.42596026490066				0.917827814569536	-0.0172715231788079	-0.29594701986755	2.52741721854305	0.986490066225167	1.47973509933775				0.704529801324503	-0.0325298013245033	-0.693721854304636	-2.55708609271523	-1.2164238410596	-1.45562913907285				0.932026490066225	0.0514966887417219	0.0539337748344371	-3.1282119205298	0.611920529801325	-1.17748344370861				0.719788079470199	-0.206834437086093	-0.612238410596026	-1.09960264900662	-3.20238410596026	-4.39470198675497			
170	3420	0.903841059602649	0.0347549668874172	-0.311523178807947	-1.64662251655629	0.975364238410596	-1.18490066225166				0.960953642384106	0.0317880794701987	-0.0988609271523179	4.07390728476821	0.0278145695364242	0.53403973509934				0.901827814569536	-0.0332715231788079	-0.27994701986755	1.96741721854305	0.986490066225167	2.03973509933775				0.736529801324503	-0.000529801324503289	-0.645721854304636	-2.27708609271523	1.8635761589404	-2.57562913907285				0.980026490066225	0.0514966887417219	0.00593377483443711	1.9117880794702	2.29192052980133	-0.617483443708608				0.751788079470199	-0.222834437086093	-0.596238410596026	-0.819602649006623	-0.962384105960265	-3.83470198675497			
171	3440	0.903841059602649	0.0507549668874172	-0.279523178807947	1.15337748344371	0.135364238410596	-0.904900662251656				0.944953642384106	-0.000211920529801304	-0.242860927152318	2.95390728476821	0.867814569536424	1.37403973509934				0.901827814569536	-0.0172715231788079	-0.31194701986755	-1.11258278145695	0.426490066225167	1.47973509933775				0.688529801324503	-0.000529801324503289	-0.645721854304636	0.522913907284768	1.0235761589404	-2.85562913907285				0.948026490066225	0.0194966887417219	0.0859337748344371	5.8317880794702	5.65192052980133	-0.897483443708608				0.719788079470199	-0.206834437086093	-0.580238410596026	-3.05960264900662	-0.962384105960265	-4.11470198675497			
172	3460	0.903841059602649	0.0347549668874172	-0.279523178807947	-1.08662251655629	-1.2646357615894	-0.624900662251656				0.976953642384106	0.0157880794701987	-0.146860927152318	0.713907284768212	8.70781456953642	0.81403973509934				0.917827814569536	0.0147284768211921	-0.34394701986755	-3.35258278145695	-0.693509933774834	0.91973509933775				0.672529801324503	-0.0325298013245033	-0.677721854304636	3.04291390728477	-0.9364238410596	-2.29562913907285				0.948026490066225	0.0514966887417219	0.0699337748344371	1.9117880794702	-0.788079470198675	-0.617483443708608				0.703788079470199	-0.190834437086093	-0.580238410596026	2.26039735099338	0.717615894039735	-6.35470198675497			
173	3480	0.919841059602649	0.0507549668874172	-0.311523178807947	-2.76662251655629	1.5353642384106	0.215099337748344				0.960953642384106	0.0477880794701987	-0.114860927152318	2.11390728476821	1.70781456953642	1.37403973509934				0.901827814569536	0.0307284768211921	-0.34394701986755	0.00741721854304636	-1.53350993377483	0.91973509933775				0.688529801324503	-0.0325298013245033	-0.661721854304636	-1.99708609271523	1.0235761589404	-2.57562913907285				0.932026490066225	0.0514966887417219	0.0379337748344371	2.4717880794702	3.41192052980132	-0.0574834437086077				0.719788079470199	-0.254834437086093	-0.580238410596026	7.58039735099338	1.55761589403974	-6.63470198675497			
174	3500	0.919841059602649	0.0667549668874172	-0.311523178807947	-0.246622516556291	1.2553642384106	-0.904900662251656				0.960953642384106	0.0317880794701987	-0.194860927152318	2.95390728476821	0.587814569536424	2.21403973509934				0.885827814569536	-0.0172715231788079	-0.32794701986755	-0.832582781456954	-0.133509933774833	1.47973509933775				0.704529801324503	-0.000529801324503289	-0.629721854304636	0.802913907284768	3.5435761589404	-1.73562913907285				0.980026490066225	0.0194966887417219	0.0539337748344371	4.1517880794702	4.53192052980133	0.222516556291392				0.735788079470199	-0.270834437086093	-0.564238410596026	3.38039735099338	1.55761589403974	-3.83470198675497			
175	3520	0.903841059602649	0.0827549668874172	-0.327523178807947	1.99337748344371	-0.144635761589404	-0.904900662251656				0.944953642384106	0.0317880794701987	-0.178860927152318	4.91390728476821	5.34781456953642	0.81403973509934				0.901827814569536	-0.00127152317880793	-0.34394701986755	-2.51258278145695	-1.81350993377483	1.75973509933775				0.704529801324503	-0.0165298013245033	-0.645721854304636	2.20291390728477	5.5035761589404	-5.09562913907285				0.980026490066225	0.0194966887417219	0.0699337748344371	2.7517880794702	5.09192052980133	-0.897483443708608				0.719788079470199	-0.238834437086093	-0.580238410596026	2.26039735099338	1.55761589403974	-3.27470198675497			
176	3540	0.903841059602649	0.0667549668874172	-0.327523178807947	4.79337748344371	-1.8246357615894	-0.624900662251656				0.960953642384106	0.0157880794701987	-0.146860927152318	7.71390728476821	7.02781456953642	-1.42596026490066				0.901827814569536	0.0147284768211921	-0.35994701986755	-1.95258278145695	-3.21350993377483	0.91973509933775				0.688529801324503	-0.0165298013245033	-0.645721854304636	-2.55708609271523	4.9435761589404	-3.13562913907285				0.932026490066225	0.0354966887417219	0.0539337748344371	1.9117880794702	4.81192052980133	0.222516556291392				0.719788079470199	-0.238834437086093	-0.596238410596026	5.62039735099338	1.27761589403974	-2.99470198675497			
177	3560	0.903841059602649	0.0347549668874172	-0.327523178807947	3.11337748344371	-2.9446357615894	0.495099337748344				0.976953642384106	0.0157880794701987	-0.146860927152318	10.2339072847682	8.98781456953643	-1.98596026490066				0.901827814569536	0.0307284768211921	-0.34394701986755	0.287417218543046	-0.973509933774833	0.0797350993377501				0.688529801324503	-0.000529801324503289	-0.645721854304636	-0.597086092715232	2.7035761589404	0.224370860927152				0.932026490066225	0.0514966887417219	0.0699337748344371	4.7117880794702	5.09192052980133	1.06251655629139				0.735788079470199	-0.238834437086093	-0.612238410596026	5.62039735099338	0.717615894039735	-0.474701986754968			
178	3580	0.903841059602649	0.0187549668874172	-0.279523178807947	4.51337748344371	-1.8246357615894	-0.344900662251656				0.944953642384106	0.0157880794701987	-0.130860927152318	9.39390728476821	5.34781456953642	-0.585960264900661				0.885827814569536	0.0147284768211921	-0.34394701986755	4.76741721854305	-0.133509933774833	0.91973509933775				0.736529801324503	-0.0325298013245033	-0.613721854304636	3.88291390728477	4.1035761589404	1.06437086092715				0.964026490066225	0.0354966887417219	0.0699337748344371	5.5517880794702	4.25192052980133	1.34251655629139				0.719788079470199	-0.254834437086093	-0.564238410596026	3.94039735099338	0.717615894039735	2.60529801324503			
179	3600	0.967841059602649	0.0187549668874172	-0.199523178807947	-3.32662251655629	3.2153642384106	-1.46490066225166				0.960953642384106	-0.000211920529801304	0.253139072847682	1.27390728476821	5.34781456953642	1.93403973509934				0.933827814569536	-0.00127152317880793	-0.23194701986755	2.52741721854305	3.50649006622517	-2.44026490066225				0.688529801324503	0.0154701986754967	-0.677721854304636	6.96291390728477	7.7435761589404	-2.01562913907285				0.916026490066225	-0.0125033112582781	0.245933774834437	3.0317880794702	1.45192052980132	-0.0574834437086077				0.703788079470199	-0.254834437086093	-0.564238410596026	0.860397350993377	0.157615894039735	0.645298013245032			
