No	Time	12-AccX	12-AccY	12-AccZ	12-GyroX	12-GyroY	12-GyroZ	13-AccX	13-AccY	13-AccZ	13-GyroX	13-GyroY	13-GyroZ	14-AccX	14-AccY	14-AccZ	14-GyroX	14-GyroY	14-GyroZ	15-AccX	15-AccY	15-AccZ	15-GyroX	15-GyroY	15-GyroZ	16-AccX	16-AccY	16-AccZ	16-GyroX	16-GyroY	16-GyroZ	17-AccX	17-AccY	17-AccZ	17-GyroX	17-GyroY	17-GyroZ
0	0	0	0	0	0	0	0				0	0	0	0	0	0				0	0	0	0	0	0				0.320529801324503	-0.0325298013245033	-0.917721854304636	-1.15708609271523	2.7035761589404	2.74437086092715				0.948026490066225	0.115496688741722	0.149933774834437	-2.2882119205298	-1.06807947019868	0.502516556291392				0.159788079470199	-0.414834437086093	-0.836238410596026	-0.819602649006623	2.95761589403974	0.365298013245032			
1	20	-0.280158940397351	0.0667549668874172	-0.935523178807947	0.313377483443709	-0.144635761589404	0.215099337748344				0.960953642384106	-0.0162119205298013	0.301139072847682	1.83390728476821	-5.85218543046358	-0.0259602649006601				-0.218172185430464	-0.0172715231788079	-0.88794701986755	-1.11258278145695	-0.973509933774833	0.35973509933775				0.320529801324503	-0.0165298013245033	-0.901721854304636	-0.877086092715232	2.7035761589404	1.90437086092715				0.948026490066225	0.115496688741722	0.165933774834437	-2.8482119205298	1.45192052980132	-1.17748344370861				0.159788079470199	-0.414834437086093	-0.836238410596026	0.0203973509933773	3.79761589403974	-1.59470198675497			
2	40	-0.264158940397351	0.0667549668874172	-0.935523178807947	0.0333774834437086	-0.424635761589404	-0.624900662251656				0.976953642384106	-0.0162119205298013	0.301139072847682	1.27390728476821	-4.45218543046358	0.25403973509934				-0.218172185430464	-0.0172715231788079	-0.88794701986755	-0.552582781456954	-0.133509933774833	0.0797350993377501				0.304529801324503	-0.0165298013245033	-0.917721854304636	-0.597086092715232	3.2635761589404	1.06437086092715				0.932026490066225	0.131496688741722	0.197933774834437	-3.1282119205298	1.17192052980133	-0.337483443708608				0.159788079470199	-0.430834437086093	-0.820238410596026	-1.09960264900662	3.51761589403974	-2.43470198675497			
3	60	-0.264158940397351	0.0667549668874172	-0.935523178807947	-0.246622516556291	0.695364238410596	-0.624900662251656				0.960953642384106	-0.000211920529801304	0.301139072847682	5.19390728476821	-5.85218543046358	0.53403973509934				-0.218172185430464	-0.00127152317880793	-0.88794701986755	-1.11258278145695	-0.133509933774833	0.0797350993377501				0.304529801324503	-0.0165298013245033	-0.917721854304636	-0.0370860927152318	4.9435761589404	0.224370860927152				0.948026490066225	0.115496688741722	0.181933774834437	-2.5682119205298	1.17192052980133	-0.617483443708608				0.159788079470199	-0.414834437086093	-0.852238410596026	-0.539602649006623	2.95761589403974	-2.71470198675497			
4	80	-0.264158940397351	0.0667549668874172	-0.935523178807947	0.873377483443709	0.415364238410596	-0.344900662251656				0.960953642384106	-0.000211920529801304	0.269139072847682	5.75390728476821	-6.13218543046358	1.37403973509934				-0.202172185430464	0.0147284768211921	-0.88794701986755	-1.39258278145695	-0.413509933774833	0.63973509933775				0.336529801324503	-0.0325298013245033	-0.917721854304636	1.92291390728477	4.9435761589404	-0.335629139072848				0.948026490066225	0.115496688741722	0.181933774834437	1.9117880794702	1.73192052980133	-1.45748344370861				0.175788079470199	-0.398834437086093	-0.852238410596026	1.70039735099338	4.07761589403974	-4.11470198675497			
5	100	-0.248158940397351	0.0827549668874172	-0.935523178807947	0.873377483443709	0.135364238410596	-0.0649006622516557				0.960953642384106	-0.000211920529801304	0.253139072847682	3.79390728476821	-5.29218543046358	0.53403973509934				-0.202172185430464	-0.00127152317880793	-0.88794701986755	1.40741721854305	-0.133509933774833	0.63973509933775				0.336529801324503	-0.0325298013245033	-0.917721854304636	-0.317086092715232	4.9435761589404	-1.17562913907285				0.964026490066225	0.115496688741722	0.181933774834437	-0.0482119205298018	1.17192052980133	-0.897483443708608				0.175788079470199	-0.414834437086093	-0.836238410596026	3.38039735099338	4.91761589403974	-4.11470198675497			
6	120	-0.264158940397351	0.0827549668874172	-0.935523178807947	0.593377483443709	-0.144635761589404	0.215099337748344				0.976953642384106	-0.0162119205298013	0.269139072847682	1.83390728476821	-4.17218543046358	-0.585960264900661				-0.218172185430464	-0.0172715231788079	-0.88794701986755	0.00741721854304636	-1.81350993377483	0.0797350993377501				0.320529801324503	-0.0165298013245033	-0.917721854304636	-0.597086092715232	2.9835761589404	-2.29562913907285				0.948026490066225	0.131496688741722	0.181933774834437	1.6317880794702	0.891920529801325	-1.45748344370861				0.175788079470199	-0.430834437086093	-0.836238410596026	0.300397350993377	2.39761589403974	-4.67470198675497			
7	140	-0.264158940397351	0.0667549668874172	-0.935523178807947	0.313377483443709	0.135364238410596	-0.344900662251656				0.960953642384106	0.0157880794701987	0.253139072847682	2.67390728476821	-3.05218543046358	-1.14596026490066				-0.218172185430464	-0.00127152317880793	-0.90394701986755	-0.272582781456954	-0.133509933774833	0.35973509933775				0.320529801324503	-0.0325298013245033	-0.917721854304636	-0.317086092715232	2.4235761589404	-1.73562913907285				0.932026490066225	0.131496688741722	0.197933774834437	2.4717880794702	0.331920529801325	-0.617483443708608				0.191788079470199	-0.414834437086093	-0.836238410596026	-1.93960264900662	1.55761589403974	-4.39470198675497			
8	160	-0.264158940397351	0.0827549668874172	-0.919523178807947	0.0333774834437086	-0.144635761589404	-0.904900662251656				0.960953642384106	-0.000211920529801304	0.237139072847682	4.35390728476821	-0.252185430463576	0.53403973509934				-0.218172185430464	-0.00127152317880793	-0.90394701986755	-1.11258278145695	0.706490066225167	1.19973509933775				0.320529801324503	-0.0165298013245033	-0.933721854304636	-1.71708609271523	1.8635761589404	-1.17562913907285				0.948026490066225	0.131496688741722	0.181933774834437	4.4317880794702	0.611920529801325	-0.337483443708608				0.207788079470199	-0.398834437086093	-0.852238410596026	-0.259602649006623	1.55761589403974	-3.55470198675497			
9	180	-0.264158940397351	0.0667549668874172	-0.935523178807947	-0.806622516556291	-0.144635761589404	-1.18490066225166				0.960953642384106	-0.000211920529801304	0.253139072847682	2.95390728476821	1.70781456953642	0.81403973509934				-0.218172185430464	-0.00127152317880793	-0.88794701986755	0.567417218543046	0.146490066225167	0.63973509933775				0.336529801324503	-0.000529801324503289	-0.917721854304636	-0.0370860927152318	0.7435761589404	-0.335629139072848				0.964026490066225	0.131496688741722	0.197933774834437	5.8317880794702	1.45192052980132	-0.617483443708608				0.207788079470199	-0.414834437086093	-0.852238410596026	-0.259602649006623	2.39761589403974	-4.67470198675497			
10	200	-0.264158940397351	0.0827549668874172	-0.935523178807947	-1.36662251655629	-0.144635761589404	-1.46490066225166				0.960953642384106	-0.000211920529801304	0.253139072847682	2.11390728476821	5.06781456953642	0.53403973509934				-0.218172185430464	-0.00127152317880793	-0.88794701986755	-1.39258278145695	0.426490066225167	1.75973509933775				0.320529801324503	-0.0165298013245033	-0.933721854304636	-0.0370860927152318	1.3035761589404	-0.615629139072848				0.948026490066225	0.131496688741722	0.181933774834437	6.1117880794702	0.891920529801325	-0.897483443708608				0.191788079470199	-0.414834437086093	-0.852238410596026	1.98039735099338	1.55761589403974	-5.51470198675497			
11	220	-0.264158940397351	0.0827549668874172	-0.935523178807947	-1.08662251655629	0.135364238410596	-0.624900662251656				0.960953642384106	0.0157880794701987	0.269139072847682	1.55390728476821	7.02781456953642	-0.86596026490066				-0.218172185430464	0.0147284768211921	-0.88794701986755	-2.51258278145695	-0.133509933774833	0.91973509933775				0.320529801324503	-0.0165298013245033	-0.917721854304636	-2.27708609271523	0.4635761589404	-0.615629139072848				0.948026490066225	0.147496688741722	0.197933774834437	4.4317880794702	1.17192052980133	-0.0574834437086077				0.207788079470199	-0.430834437086093	-0.836238410596026	1.14039735099338	1.27761589403974	-5.79470198675497			
12	240	-0.264158940397351	0.0827549668874172	-0.935523178807947	-1.36662251655629	-0.144635761589404	-1.18490066225166				0.960953642384106	-0.000211920529801304	0.269139072847682	1.27390728476821	8.70781456953642	-0.86596026490066				-0.218172185430464	0.0147284768211921	-0.90394701986755	-1.11258278145695	-0.133509933774833	0.0797350993377501				0.320529801324503	-0.0165298013245033	-0.933721854304636	-1.99708609271523	0.7435761589404	-1.17562913907285				0.948026490066225	0.115496688741722	0.181933774834437	3.3117880794702	1.17192052980133	-0.617483443708608				0.223788079470199	-0.430834437086093	-0.852238410596026	-0.539602649006623	0.157615894039735	-5.23470198675497			
13	260	-0.264158940397351	0.0827549668874172	-0.919523178807947	-1.64662251655629	-0.424635761589404	-1.18490066225166				0.960953642384106	-0.000211920529801304	0.269139072847682	1.27390728476821	9.54781456953642	-1.14596026490066				-0.218172185430464	0.0147284768211921	-0.90394701986755	-0.832582781456954	0.426490066225167	-1.60026490066225				0.304529801324503	-0.0165298013245033	-0.917721854304636	-0.877086092715232	0.7435761589404	-1.17562913907285				0.948026490066225	0.147496688741722	0.197933774834437	4.4317880794702	1.45192052980132	-0.897483443708608				0.223788079470199	-0.414834437086093	-0.852238410596026	-0.819602649006623	0.717615894039735	-4.67470198675497			
14	280	-0.280158940397351	0.0827549668874172	-0.935523178807947	-1.08662251655629	-0.424635761589404	-1.18490066225166				0.960953642384106	0.0157880794701987	0.301139072847682	-0.126092715231788	9.82781456953643	-0.585960264900661				-0.218172185430464	-0.00127152317880793	-0.90394701986755	-0.272582781456954	-1.81350993377483	-3.00026490066225				0.320529801324503	-0.000529801324503289	-0.917721854304636	0.802913907284768	0.4635761589404	-1.73562913907285				0.932026490066225	0.131496688741722	0.181933774834437	1.9117880794702	2.29192052980133	-1.73748344370861				0.207788079470199	-0.398834437086093	-0.852238410596026	0.0203973509933773	0.717615894039735	-5.23470198675497			
15	300	-0.264158940397351	0.0667549668874172	-0.935523178807947	-0.526622516556291	-0.704635761589404	-1.18490066225166				0.960953642384106	0.0317880794701987	0.301139072847682	-0.686092715231788	9.54781456953642	-0.86596026490066				-0.218172185430464	-0.00127152317880793	-0.88794701986755	0.287417218543046	1.26649006622517	-1.60026490066225				0.320529801324503	-0.000529801324503289	-0.933721854304636	0.802913907284768	1.0235761589404	-2.85562913907285				0.948026490066225	0.147496688741722	0.181933774834437	3.0317880794702	2.57192052980133	-1.17748344370861				0.207788079470199	-0.414834437086093	-0.852238410596026	3.38039735099338	-0.682384105960265	-4.39470198675497			
16	320	-0.264158940397351	0.0827549668874172	-0.935523178807947	-0.526622516556291	-0.144635761589404	-1.18490066225166				0.960953642384106	0.0317880794701987	0.269139072847682	0.153907284768212	8.98781456953643	-0.30596026490066				-0.218172185430464	-0.0172715231788079	-0.88794701986755	0.00741721854304636	0.986490066225167	-0.76026490066225				0.320529801324503	-0.0165298013245033	-0.917721854304636	-0.877086092715232	-0.9364238410596	-2.57562913907285				0.948026490066225	0.147496688741722	0.181933774834437	6.9517880794702	2.57192052980133	-0.897483443708608				0.207788079470199	-0.414834437086093	-0.836238410596026	2.54039735099338	-2.36238410596027	-4.39470198675497			
17	340	-0.264158940397351	0.0827549668874172	-0.935523178807947	-0.246622516556291	-0.424635761589404	-0.344900662251656				0.960953642384106	0.0157880794701987	0.269139072847682	1.27390728476821	10.6678145695364	0.81403973509934				-0.218172185430464	-0.0172715231788079	-0.88794701986755	1.96741721854305	0.706490066225167	0.91973509933775				0.320529801324503	-0.000529801324503289	-0.917721854304636	-0.0370860927152318	-1.2164238410596	-2.57562913907285				0.964026490066225	0.131496688741722	0.197933774834437	3.0317880794702	1.73192052980133	-0.617483443708608				0.207788079470199	-0.414834437086093	-0.868238410596026	1.42039735099338	-3.20238410596026	-2.43470198675497			
18	360	-0.264158940397351	0.0667549668874172	-0.919523178807947	0.0333774834437086	-0.424635761589404	-0.624900662251656				0.960953642384106	-0.000211920529801304	0.285139072847682	0.713907284768212	13.7478145695364	0.25403973509934				-0.218172185430464	-0.0172715231788079	-0.88794701986755	1.12741721854305	-0.413509933774833	0.63973509933775				0.320529801324503	-0.000529801324503289	-0.933721854304636	-0.597086092715232	-2.8964238410596	-2.29562913907285				0.948026490066225	0.131496688741722	0.181933774834437	1.3517880794702	0.611920529801325	-0.337483443708608				0.191788079470199	-0.398834437086093	-0.852238410596026	0.0203973509933773	-2.92238410596027	-2.71470198675497			
19	380	-0.264158940397351	0.0667549668874172	-0.919523178807947	0.0333774834437086	0.135364238410596	-1.18490066225166				0.960953642384106	-0.000211920529801304	0.333139072847682	-2.08609271523179	12.6278145695364	-1.14596026490066				-0.218172185430464	0.0147284768211921	-0.87194701986755	0.847417218543046	0.426490066225167	0.0797350993377501				0.304529801324503	-0.000529801324503289	-0.917721854304636	-1.71708609271523	-3.1764238410596	-2.85562913907285				0.948026490066225	0.131496688741722	0.181933774834437	2.7517880794702	1.17192052980133	-1.17748344370861				0.191788079470199	-0.398834437086093	-0.836238410596026	1.42039735099338	-2.64238410596027	-1.31470198675497			
20	400	-0.280158940397351	0.0667549668874172	-0.935523178807947	-0.806622516556291	0.135364238410596	-1.18490066225166				0.960953642384106	-0.000211920529801304	0.333139072847682	-4.32609271523179	6.74781456953642	-0.30596026490066				-0.218172185430464	-0.00127152317880793	-0.90394701986755	-0.272582781456954	0.146490066225167	-0.20026490066225				0.320529801324503	-0.000529801324503289	-0.901721854304636	-1.43708609271523	-2.0564238410596	-3.97562913907285				0.932026490066225	0.131496688741722	0.197933774834437	0.231788079470198	0.0519205298013249	-1.17748344370861				0.191788079470199	-0.398834437086093	-0.836238410596026	1.98039735099338	-2.08238410596027	-2.99470198675497			
21	420	-0.264158940397351	0.0827549668874172	-0.951523178807947	-1.08662251655629	-0.144635761589404	-1.18490066225166				0.960953642384106	-0.000211920529801304	0.333139072847682	-3.76609271523179	4.22781456953642	-0.0259602649006601				-0.218172185430464	0.0147284768211921	-0.90394701986755	-1.11258278145695	-0.413509933774833	-0.48026490066225				0.304529801324503	-0.0165298013245033	-0.901721854304636	-0.877086092715232	-0.6564238410596	-3.41562913907285				0.932026490066225	0.147496688741722	0.213933774834437	0.231788079470198	0.331920529801325	-0.337483443708608				0.191788079470199	-0.414834437086093	-0.820238410596026	1.70039735099338	-0.122384105960265	-3.55470198675497			
22	440	-0.264158940397351	0.0667549668874172	-0.951523178807947	-1.36662251655629	-0.144635761589404	-2.02490066225166				0.960953642384106	0.0157880794701987	0.333139072847682	0.993907284768212	0.0278145695364242	1.09403973509934				-0.218172185430464	0.0147284768211921	-0.88794701986755	-0.552582781456954	0.146490066225167	-1.04026490066225				0.304529801324503	-0.000529801324503289	-0.901721854304636	0.802913907284768	1.0235761589404	-2.57562913907285				0.932026490066225	0.147496688741722	0.197933774834437	-0.0482119205298018	0.331920529801325	-0.0574834437086077				0.207788079470199	-0.414834437086093	-0.820238410596026	-1.37960264900662	-0.122384105960265	-2.71470198675497			
23	460	-0.264158940397351	0.0667549668874172	-0.935523178807947	-1.08662251655629	-0.144635761589404	-1.46490066225166				0.944953642384106	0.0157880794701987	0.317139072847682	1.83390728476821	-4.45218543046358	2.49403973509934				-0.202172185430464	-0.00127152317880793	-0.88794701986755	1.12741721854305	0.986490066225167	-0.48026490066225				0.304529801324503	-0.000529801324503289	-0.917721854304636	1.36291390728477	1.8635761589404	-1.17562913907285				0.948026490066225	0.147496688741722	0.197933774834437	-0.888211920529802	-0.508079470198675	-0.0574834437086077				0.191788079470199	-0.414834437086093	-0.836238410596026	-1.09960264900662	2.11761589403974	-1.87470198675497			
24	480	-0.264158940397351	0.0827549668874172	-0.935523178807947	0.313377483443709	0.135364238410596	0.215099337748344				0.944953642384106	0.0157880794701987	0.317139072847682	0.993907284768212	-2.49218543046358	1.37403973509934				-0.202172185430464	-0.00127152317880793	-0.90394701986755	0.567417218543046	-0.413509933774833	-0.48026490066225				0.304529801324503	-0.0325298013245033	-0.917721854304636	1.08291390728477	1.3035761589404	-1.45562913907285				0.932026490066225	0.115496688741722	0.181933774834437	-1.1682119205298	-0.788079470198675	0.222516556291392				0.191788079470199	-0.398834437086093	-0.836238410596026	0.860397350993377	2.95761589403974	-1.59470198675497			
25	500	-0.264158940397351	0.0827549668874172	-0.935523178807947	1.15337748344371	0.975364238410596	-0.904900662251656				0.944953642384106	0.0157880794701987	0.333139072847682	1.55390728476821	-0.812185430463576	0.81403973509934				-0.202172185430464	-0.00127152317880793	-0.88794701986755	2.24741721854305	0.426490066225167	-0.76026490066225				0.336529801324503	-0.0165298013245033	-0.917721854304636	-0.597086092715232	1.0235761589404	-1.45562913907285				0.932026490066225	0.131496688741722	0.197933774834437	0.791788079470198	0.611920529801325	-0.0574834437086077				0.207788079470199	-0.414834437086093	-0.820238410596026	1.70039735099338	1.27761589403974	-2.15470198675497			
26	520	-0.248158940397351	0.0667549668874172	-0.935523178807947	0.873377483443709	0.695364238410596	-0.344900662251656				0.944953642384106	-0.000211920529801304	0.317139072847682	2.39390728476821	1.42781456953642	2.49403973509934				-0.202172185430464	-0.0172715231788079	-0.90394701986755	-0.552582781456954	0.986490066225167	-0.20026490066225				0.320529801324503	-0.0165298013245033	-0.917721854304636	-0.597086092715232	1.8635761589404	0.224370860927152				0.932026490066225	0.147496688741722	0.229933774834437	0.511788079470198	4.25192052980133	-2.29748344370861				0.191788079470199	-0.414834437086093	-0.836238410596026	-0.819602649006623	-0.682384105960265	-0.754701986754968			
27	540	-0.264158940397351	0.0667549668874172	-0.919523178807947	0.873377483443709	-0.144635761589404	-0.624900662251656				0.944953642384106	0.0157880794701987	0.285139072847682	0.993907284768212	0.0278145695364242	2.49403973509934				-0.218172185430464	-0.00127152317880793	-0.87194701986755	1.96741721854305	0.706490066225167	-0.76026490066225				0.304529801324503	-0.0165298013245033	-0.917721854304636	-0.877086092715232	2.7035761589404	2.18437086092715				0.948026490066225	0.147496688741722	0.149933774834437	-0.608211920529802	-2.46807947019868	-1.17748344370861				0.207788079470199	-0.398834437086093	-0.836238410596026	-1.09960264900662	-0.402384105960265	-1.87470198675497			
28	560	-0.280158940397351	0.0667549668874172	-0.935523178807947	-1.36662251655629	-0.984635761589404	-0.904900662251656				0.960953642384106	-0.000211920529801304	0.285139072847682	-0.966092715231788	0.307814569536424	1.09403973509934				-0.202172185430464	-0.0172715231788079	-0.87194701986755	2.24741721854305	-0.973509933774833	0.0797350993377501				0.288529801324503	0.0154701986754967	-0.933721854304636	-0.0370860927152318	2.4235761589404	0.784370860927152				0.948026490066225	0.131496688741722	0.181933774834437	-1.4482119205298	3.13192052980133	-1.73748344370861				0.207788079470199	-0.398834437086093	-0.852238410596026	1.14039735099338	0.437615894039735	-2.43470198675497			
29	580	-0.280158940397351	0.0667549668874172	-0.935523178807947	-1.08662251655629	-0.144635761589404	-1.18490066225166				0.960953642384106	-0.000211920529801304	0.317139072847682	0.153907284768212	-1.65218543046358	2.77403973509934				-0.218172185430464	-0.00127152317880793	-0.87194701986755	2.80741721854305	-0.413509933774833	0.35973509933775				0.288529801324503	-0.0165298013245033	-0.933721854304636	1.92291390728477	1.3035761589404	2.18437086092715				0.964026490066225	0.131496688741722	0.165933774834437	-2.0082119205298	1.45192052980132	-1.17748344370861				0.191788079470199	-0.414834437086093	-0.868238410596026	1.42039735099338	-0.402384105960265	-2.43470198675497			
30	600	-0.280158940397351	0.0667549668874172	-0.935523178807947	-2.76662251655629	0.135364238410596	-0.624900662251656				0.960953642384106	0.0317880794701987	0.237139072847682	4.07390728476821	-7.53218543046358	4.17403973509934				-0.234172185430464	-0.00127152317880793	-0.88794701986755	2.80741721854305	-0.693509933774834	1.47973509933775				0.288529801324503	-0.0325298013245033	-0.965721854304636	3.32291390728477	1.3035761589404	3.86437086092715				0.996026490066225	0.131496688741722	0.149933774834437	0.791788079470198	1.73192052980133	0.222516556291392				0.191788079470199	-0.414834437086093	-0.884238410596026	-1.09960264900662	-0.122384105960265	-2.15470198675497			
31	620	-0.296158940397351	0.0507549668874172	-0.919523178807947	-3.60662251655629	0.135364238410596	-0.624900662251656				1.00895364238411	0.0157880794701987	0.221139072847682	6.87390728476821	-13.1321854304636	7.53403973509934				-0.266172185430464	-0.00127152317880793	-0.90394701986755	1.96741721854305	-0.973509933774833	0.91973509933775				0.288529801324503	-0.0165298013245033	-0.981721854304636	2.76291390728477	2.1435761589404	3.30437086092715				1.01202649006623	0.131496688741722	0.149933774834437	2.1917880794702	-1.06807947019868	1.62251655629139				0.159788079470199	-0.414834437086093	-0.868238410596026	-2.21960264900662	0.157615894039735	-1.87470198675497			
32	640	-0.312158940397351	0.0667549668874172	-0.919523178807947	-6.12662251655629	0.415364238410596	-0.904900662251656				1.04095364238411	0.0317880794701987	0.189139072847682	6.31390728476821	-20.9721854304636	5.01403973509934				-0.266172185430464	-0.00127152317880793	-0.88794701986755	3.36741721854305	0.986490066225167	1.19973509933775				0.288529801324503	-0.0325298013245033	-0.981721854304636	2.20291390728477	2.7035761589404	3.86437086092715				1.01202649006623	0.147496688741722	0.101933774834437	2.7517880794702	-3.30807947019868	0.782516556291392				0.143788079470199	-0.398834437086093	-0.900238410596026	-4.45960264900662	0.997615894039735	0.0852980132450323			
33	660	-0.328158940397351	0.0987549668874172	-0.919523178807947	-7.52662251655629	1.2553642384106	0.495099337748344				0.992953642384106	0.0317880794701987	0.237139072847682	6.31390728476821	-22.3721854304636	4.73403973509934				-0.266172185430464	0.0147284768211921	-0.88794701986755	4.48741721854305	0.706490066225167	1.75973509933775				0.272529801324503	-0.0485298013245033	-0.949721854304636	-0.597086092715232	1.8635761589404	3.58437086092715				0.980026490066225	0.131496688741722	0.0699337748344371	3.8717880794702	-1.34807947019868	1.06251655629139				0.127788079470199	-0.382834437086093	-0.900238410596026	-5.01960264900662	2.95761589403974	0.925298013245032			
34	680	-0.312158940397351	0.0827549668874172	-0.919523178807947	-8.36662251655629	2.9353642384106	1.33509933774834				1.02495364238411	0.0157880794701987	0.253139072847682	14.1539072847682	-32.7321854304636	6.69403973509934				-0.266172185430464	0.0147284768211921	-0.90394701986755	5.88741721854305	2.38649006622517	2.03973509933775				0.224529801324503	-0.0645298013245033	-0.949721854304636	0.242913907284768	1.3035761589404	3.58437086092715				1.01202649006623	0.115496688741722	0.0699337748344371	3.0317880794702	-1.62807947019868	1.62251655629139				0.0797880794701987	-0.398834437086093	-0.884238410596026	-4.17960264900662	2.39761589403974	0.365298013245032			
35	700	-0.296158940397351	0.0827549668874172	-0.919523178807947	-11.1666225165563	6.0153642384106	2.45509933774835				1.02495364238411	-0.000211920529801304	0.0931390728476822	22.8339072847682	-74.1721854304636	6.69403973509934				-0.218172185430464	-0.0332715231788079	-0.93594701986755	6.72741721854305	1.82649006622517	2.03973509933775				0.208529801324503	-0.0805298013245033	-0.965721854304636	3.04291390728477	2.7035761589404	3.02437086092715				0.996026490066225	0.0834966887417219	0.0379337748344371	1.3517880794702	-6.38807947019868	1.62251655629139				0.0477880794701987	-0.382834437086093	-0.884238410596026	-9.49960264900662	2.95761589403974	3.16529801324503			
36	720	-0.280158940397351	0.0827549668874172	-0.919523178807947	-15.6466225165563	3.7753642384106	5.53509933774834				1.04095364238411	-0.0162119205298013	0.157139072847682	5.47390728476821	-97.1321854304636	-6.18596026490066				-0.218172185430464	-0.0172715231788079	-0.82394701986755	14.287417218543	1.26649006622517	-0.76026490066225				0.144529801324503	-0.0805298013245033	-0.981721854304636	1.64291390728477	3.2635761589404	0.224370860927152				0.916026490066225	0.0674966887417219	0.0699337748344371	3.5917880794702	-2.18807947019868	0.502516556291392				0.0317880794701987	-0.350834437086093	-0.884238410596026	-11.7396026490066	4.91761589403974	6.24529801324503			
37	740	-0.280158940397351	0.0987549668874172	-0.919523178807947	-12.2866225165563	2.3753642384106	6.37509933774834				0.832953642384106	-0.0162119205298013	0.0931390728476822	-6.56609271523179	-91.8121854304636	-10.3859602649007				-0.218172185430464	0.0307284768211921	-0.85594701986755	10.087417218543	-0.133509933774833	0.0797350993377501				0.112529801324503	-0.0965298013245033	-0.949721854304636	-3.39708609271523	3.5435761589404	-3.69562913907285				0.948026490066225	0.0514966887417219	0.0539337748344371	1.9117880794702	0.0519205298013249	0.502516556291392				0.0157880794701987	-0.350834437086093	-0.900238410596026	-9.49960264900662	10.7976158940397	6.52529801324503			
38	760	-0.264158940397351	0.0827549668874172	-0.935523178807947	-13.1266225165563	0.415364238410596	6.65509933774834				0.960953642384106	-0.0322119205298013	0.0451390728476822	-1.24609271523179	-44.7721854304636	2.49403973509934				-0.250172185430464	-0.0172715231788079	-0.95194701986755	13.727417218543	1.54649006622517	0.63973509933775				0.128529801324503	-0.0965298013245033	-0.949721854304636	-2.55708609271523	7.1835761589404	-6.77562913907285				0.964026490066225	0.0674966887417219	-0.0100662251655629	0.511788079470198	2.01192052980133	0.782516556291392				0.0317880794701987	-0.350834437086093	-0.884238410596026	-3.33960264900662	16.6776158940397	4.00529801324503			
39	780	-0.248158940397351	0.0827549668874172	-0.935523178807947	-16.2066225165563	0.415364238410596	7.21509933774835				1.00895364238411	-0.0322119205298013	0.0451390728476822	1.83390728476821	-40.2921854304636	-0.0259602649006601				-0.186172185430464	-0.0492715231788079	-0.87194701986755	17.647417218543	-1.25350993377483	-0.76026490066225				0.112529801324503	-0.0965298013245033	-0.949721854304636	-1.71708609271523	9.1435761589404	-9.85562913907285				0.932026490066225	0.0674966887417219	-0.0260662251655629	1.3517880794702	5.09192052980133	0.782516556291392				-0.000211920529801336	-0.334834437086093	-0.884238410596026	-4.17960264900662	20.8776158940397	4.84529801324503			
40	800	-0.232158940397351	0.0827549668874172	-0.951523178807947	-15.3666225165563	0.415364238410596	8.89509933774834				0.912953642384106	-0.0162119205298013	0.0291390728476822	-3.48609271523179	-29.9321854304636	-1.14596026490066				-0.202172185430464	-0.0332715231788079	-0.90394701986755	10.367417218543	0.426490066225167	-0.76026490066225				0.128529801324503	-0.0965298013245033	-0.965721854304636	-2.83708609271523	12.2235761589404	-13.7756291390728				0.884026490066225	0.0994966887417219	0.0699337748344371	3.3117880794702	16.5719205298013	-2.29748344370861				-0.000211920529801336	-0.286834437086093	-0.932238410596026	-4.45960264900662	24.5176158940397	8.76529801324503			
41	820	-0.232158940397351	0.0827549668874172	-0.967523178807947	-13.9666225165563	1.5353642384106	8.33509933774834				0.928953642384106	-0.0162119205298013	0.109139072847682	0.153907284768212	4.50781456953642	5.57403973509934				-0.218172185430464	-0.0492715231788079	-0.88794701986755	13.727417218543	-0.693509933774834	-1.04026490066225				0.144529801324503	-0.0645298013245033	-0.965721854304636	-1.71708609271523	17.2635761589404	-19.6556291390729				0.916026490066225	0.115496688741722	0.0379337748344371	-1.1682119205298	20.4919205298013	-4.53748344370861				0.0317880794701987	-0.254834437086093	-0.932238410596026	6.74039735099338	22.8376158940397	7.92529801324503			
42	840	-0.232158940397351	0.0827549668874172	-0.967523178807947	-12.8466225165563	4.0553642384106	7.21509933774835				0.912953642384106	0.0157880794701987	0.0771390728476822	5.47390728476821	12.3478145695364	5.85403973509934				-0.218172185430464	-0.0652715231788079	-0.91994701986755	9.24741721854305	-3.21350993377483	-1.60026490066225				0.176529801324503	-0.0645298013245033	-0.933721854304636	-3.95708609271523	22.5835761589404	-24.1356291390729				0.932026490066225	0.115496688741722	0.00593377483443711	1.9117880794702	25.5319205298013	-5.09748344370861				0.0317880794701987	-0.270834437086093	-0.916238410596027	11.2203973509934	24.7976158940397	7.08529801324503			
43	860	-0.248158940397351	0.114754966887417	-0.967523178807947	-13.9666225165563	1.8153642384106	6.65509933774834				0.944953642384106	0.0157880794701987	0.0931390728476822	9.39390728476821	18.5078145695364	7.53403973509934				-0.218172185430464	-0.0332715231788079	-0.88794701986755	6.16741721854305	-2.37350993377483	-2.16026490066225				0.176529801324503	-0.0645298013245033	-0.901721854304636	-5.35708609271523	28.4635761589404	-29.4556291390729				0.900026490066225	0.115496688741722	0.0539337748344371	1.0717880794702	33.0919205298013	-5.09748344370861				0.0157880794701987	-0.318834437086093	-0.884238410596026	16.8203973509934	26.7576158940397	6.24529801324503			
44	880	-0.280158940397351	0.162754966887417	-0.951523178807947	-15.3666225165563	2.3753642384106	8.33509933774834				0.992953642384106	-0.000211920529801304	0.0931390728476822	6.87390728476821	27.7478145695364	9.21403973509934				-0.234172185430464	-0.00127152317880793	-0.85594701986755	7.28741721854305	-0.973509933774833	-1.60026490066225				0.176529801324503	-0.0485298013245033	-0.885721854304636	-6.47708609271523	34.0635761589404	-30.2956291390729				0.916026490066225	0.115496688741722	0.0539337748344371	1.0717880794702	34.4919205298013	-5.65748344370861				0.0157880794701987	-0.350834437086093	-0.836238410596026	14.3003973509934	30.9576158940397	8.48529801324503			
45	900	-0.264158940397351	0.162754966887417	-0.919523178807947	-13.1266225165563	3.7753642384106	10.0150993377483				0.912953642384106	-0.0162119205298013	0.0931390728476822	0.153907284768212	41.1878145695364	8.93403973509934				-0.234172185430464	-0.0172715231788079	-0.85594701986755	8.12741721854305	-2.65350993377483	-1.32026490066225				0	0	0	0	0	0				0	0	0	0	0	0				0	0	0	0	0	0			
46	920	-0.280158940397351	0.146754966887417	-0.951523178807947	-9.76662251655629	1.8153642384106	9.73509933774834				0.960953642384106	-0.0162119205298013	0.189139072847682	-1.24609271523179	57.7078145695364	9.49403973509934				-0.250172185430464	-0.0492715231788079	-0.87194701986755	10.647417218543	-1.53350993377483	-0.76026490066225				0.192529801324503	-0.0645298013245033	-0.853721854304636	-7.87708609271523	42.4635761589404	-38.1356291390729				0.868026490066225	0.0994966887417219	0.0699337748344371	-4.2482119205298	44.2919205298013	-8.17748344370861				0.0957880794701987	-0.270834437086093	-0.804238410596027	19.3403973509934	38.2376158940397	14.645298013245			
47	940	-0.280158940397351	0.146754966887417	-0.967523178807947	-14.2466225165563	1.8153642384106	11.4150993377483				0.912953642384106	0.0317880794701987	0.0931390728476822	0.993907284768212	64.7078145695364	7.53403973509934				-0.234172185430464	-0.0332715231788079	-0.91994701986755	11.487417218543	1.82649006622517	-2.16026490066225				0.176529801324503	-0.0325298013245033	-0.869721854304636	-7.87708609271523	44.7035761589404	-40.6556291390729				0.868026490066225	0.115496688741722	0.117933774834437	-5.3682119205298	49.6119205298013	-8.45748344370861				0.127788079470199	-0.270834437086093	-0.820238410596026	23.8203973509934	35.4376158940397	7.08529801324503			
48	960	-0.264158940397351	0.146754966887417	-0.903523178807947	-14.5266225165563	6.0153642384106	9.73509933774834				0.928953642384106	0.0157880794701987	0.109139072847682	5.19390728476821	76.1878145695364	10.8940397350993				-0.250172185430464	-0.0172715231788079	-0.88794701986755	11.767417218543	2.66649006622517	-1.88026490066225				0.208529801324503	-0.0165298013245033	-0.885721854304636	-3.95708609271523	50.0235761589404	-38.9756291390729				0.932026490066225	0.131496688741722	0.165933774834437	-9.5682119205298	48.2119205298013	-9.85748344370861				0.175788079470199	-0.366834437086093	-0.820238410596026	35.5803973509934	34.5976158940397	2.88529801324503			
49	980	-0.280158940397351	0.162754966887417	-0.919523178807947	-10.6066225165563	5.1753642384106	8.89509933774834				0.928953642384106	0.0317880794701987	0.0931390728476822	2.95390728476821	88.7878145695364	11.4540397350993				-0.266172185430464	-0.0332715231788079	-0.90394701986755	13.447417218543	4.62649006622517	-1.32026490066225				0.304529801324503	-0.0165298013245033	-0.901721854304636	2.76291390728477	55.6235761589404	-35.0556291390728				0.948026490066225	0.131496688741722	0.181933774834437	-11.2482119205298	42.3319205298013	-10.6974834437086				0.207788079470199	-0.446834437086093	-0.772238410596026	33.6203973509934	39.6376158940397	6.80529801324503			
50	1000	-0.216158940397351	0.178754966887417	-0.903523178807947	-16.7666225165563	5.1753642384106	10.8550993377483				0.912953642384106	0.0477880794701987	0.189139072847682	-3.48609271523179	101.947814569536	11.4540397350993				-0.234172185430464	-0.0172715231788079	-0.87194701986755	17.087417218543	4.62649006622517	-2.16026490066225				0.336529801324503	-0.000529801324503289	-0.869721854304636	0.802913907284768	61.5035761589404	-28.0556291390728				0.916026490066225	0.163496688741722	0.165933774834437	-8.4482119205298	41.7719205298013	-8.17748344370861				0.239788079470199	-0.430834437086093	-0.788238410596027	25.2203973509934	42.9976158940397	14.365298013245			
51	1020	-0.264158940397351	0.210754966887417	-0.871523178807947	-12.0066225165563	3.2153642384106	14.2150993377483				0.912953642384106	0.0157880794701987	0.317139072847682	-3.48609271523179	101.947814569536	11.1740397350993				-0.218172185430464	-0.0332715231788079	-0.87194701986755	17.3674172185431	1.26649006622517	-2.44026490066225				0.336529801324503	0.0314701986754967	-0.821721854304636	-3.39708609271523	53.6635761589404	-26.0956291390729				0.836026490066225	0.179496688741722	0.197933774834437	-3.6882119205298	45.4119205298013	-4.81748344370861				0.271788079470199	-0.382834437086093	-0.788238410596027	15.1403973509934	39.9176158940397	24.445298013245			
52	1040	-0.312158940397351	0.194754966887417	-0.919523178807947	-13.6866225165563	2.9353642384106	15.8950993377483				0.896953642384106	-0.0322119205298013	0.285139072847682	-1.80609271523179	95.7878145695364	12.8540397350993				-0.266172185430464	-0.0492715231788079	-0.87194701986755	19.327417218543	-1.53350993377483	-2.16026490066225				0.400529801324503	0.0634701986754967	-0.885721854304636	3.60291390728477	45.8235761589404	-23.2956291390729				0.884026490066225	0.211496688741722	0.309933774834437	-6.7682119205298	54.0919205298013	-3.41748344370861				0.287788079470199	-0.366834437086093	-0.788238410596027	23.8203973509934	38.7976158940397	20.245298013245			
53	1060	-0.376158940397351	0.226754966887417	-1.09552317880795	-21.8066225165563	6.0153642384106	18.1350993377483				0.992953642384106	-0.0482119205298013	0.205139072847682	-3.48609271523179	106.987814569536	11.7340397350993				-0.282172185430464	-0.0492715231788079	-0.90394701986755	22.127417218543	0.146490066225167	-1.60026490066225				0.464529801324503	0.0634701986754967	-0.917721854304636	5.56291390728477	45.2635761589404	-19.6556291390729				0.996026490066225	0.211496688741722	0.325933774834437	-8.7282119205298	51.2919205298013	0.782516556291392				0.319788079470199	-0.446834437086093	-0.788238410596027	24.9403973509934	40.7576158940397	16.605298013245			
54	1080	-0.296158940397351	0.226754966887417	-0.919523178807947	-36.6466225165563	17.7753642384106	18.6950993377483				0.976953642384106	0.0317880794701987	0.333139072847682	-0.686092715231788	105.587814569536	11.4540397350993				-0.330172185430464	-0.0972715231788079	-0.95194701986755	24.647417218543	0.986490066225167	-3.28026490066225				0.496529801324503	0.0314701986754967	-0.949721854304636	2.76291390728477	46.9435761589404	-16.8556291390729				0.948026490066225	0.227496688741722	0.341933774834437	-0.328211920529802	45.9719205298013	0.782516556291392				0.367788079470199	-0.558834437086093	-0.740238410596026	35.8603973509934	39.9176158940397	16.325298013245			
55	1100	-0.248158940397351	0.178754966887417	-0.807523178807947	-17.6066225165563	17.4953642384106	17.0150993377483				0.928953642384106	0.0157880794701987	0.525139072847682	2.11390728476821	112.587814569536	12.2940397350993				-0.346172185430464	-0.113271523178808	-0.99994701986755	20.447417218543	5.18649006622517	-4.12026490066225				0.576529801324503	0.0954701986754967	-0.901721854304636	-11.2370860927152	44.1435761589404	-14.3356291390729				0.900026490066225	0.227496688741722	0.485933774834437	8.6317880794702	54.6519205298013	-3.41748344370861				0.479788079470199	-0.590834437086093	-0.724238410596026	19.0603973509934	40.7576158940397	26.405298013245			
56	1120	-0.360158940397351	0.258754966887417	-1.03152317880795	-23.2066225165563	19.7353642384106	17.2950993377483				0.896953642384106	-0.0162119205298013	0.653139072847682	0.993907284768212	111.467814569536	16.7740397350993				-0.266172185430464	-0.0972715231788079	-0.91994701986755	29.407417218543	10.7864900662252	-7.76026490066225				0.608529801324503	0.0954701986754967	-0.853721854304636	-17.9570860927152	35.7435761589404	-12.6556291390728				0.900026490066225	0.179496688741722	0.597933774834437	2.4717880794702	58.5719205298013	-4.53748344370861				0.527788079470199	-0.558834437086093	-0.708238410596026	8.70039735099338	30.9576158940397	24.165298013245			
57	1140	-0.264158940397351	0.258754966887417	-0.855523178807947	-29.9266225165563	29.5353642384106	16.1750993377483				0.992953642384106	-0.0802119205298013	0.669139072847682	-0.126092715231788	107.827814569536	20.6940397350993				-0.250172185430464	-0.145271523178808	-0.93594701986755	38.3674172185431	12.4664900662252	-13.3602649006623				0.656529801324503	0.0634701986754967	-0.821721854304636	-20.1970860927152	30.4235761589404	-9.85562913907285				0.932026490066225	0.163496688741722	0.597933774834437	-5.6482119205298	54.6519205298013	-5.93748344370861				0.559788079470199	-0.574834437086093	-0.788238410596027	-27.4196026490066	34.0376158940397	21.085298013245			
58	1160	-0.296158940397351	0.274754966887417	-0.983523178807947	-29.9266225165563	30.0953642384106	15.0550993377483				0.976953642384106	-0.0962119205298013	0.733139072847682	-4.88609271523179	78.7078145695364	21.2540397350993				-0.266172185430464	-0.161271523178808	-0.95194701986755	34.7274172185431	15.8264900662252	-14.2002649006623				0.752529801324503	0.159470198675497	-0.773721854304636	-18.7970860927152	31.5435761589404	0.784370860927152				0.948026490066225	0.195496688741722	0.645933774834437	0.511788079470198	52.1319205298013	-6.21748344370861				0.591788079470199	-0.622834437086093	-0.772238410596026	2.54039735099338	34.0376158940397	14.085298013245			
59	1180	-0.200158940397351	0.322754966887417	-0.887523178807947	-17.3266225165563	30.0953642384106	14.4950993377483				0.832953642384106	-0.0322119205298013	0.765139072847682	-10.4860927152318	73.6678145695364	14.5340397350993				-0.218172185430464	-0.0972715231788079	-0.95194701986755	26.607417218543	20.8664900662252	-15.0402649006623				0.832529801324503	0.191470198675497	-0.741721854304636	-8.99708609271523	34.6235761589404	11.1443708609272				0.932026490066225	0.259496688741722	0.757933774834437	5.2717880794702	49.8919205298013	-3.13748344370861				0.591788079470199	-0.686834437086093	-0.820238410596026	17.9403973509934	33.1976158940397	0.365298013245032			
60	1200	-0.200158940397351	0.274754966887417	-0.951523178807947	-18.7266225165563	34.5753642384106	16.7350993377483				0.864953642384106	-0.0322119205298013	0.733139072847682	0.713907284768212	78.9878145695364	19.2940397350993				-0.266172185430464	-0.0972715231788079	-0.96794701986755	32.2074172185431	27.0264900662252	-13.6402649006623				0.864529801324503	0.207470198675497	-0.789721854304636	0.802913907284768	39.1035761589404	17.8643708609272				0.884026490066225	0.259496688741722	0.773933774834437	-1.1682119205298	47.3719205298013	-1.17748344370861				0.607788079470199	-0.702834437086093	-0.836238410596026	12.0603973509934	28.7176158940397	-2.71470198675497			
61	1220	-0.232158940397351	0.306754966887417	-1.03152317880795	-13.4066225165563	34.8553642384106	18.4150993377483				0.912953642384106	-0.0802119205298013	0.845139072847682	8.27390728476821	79.5478145695364	19.8540397350993				-0.234172185430464	-0.161271523178808	-0.87194701986755	43.6874172185431	34.8664900662252	-13.6402649006623				0.880529801324503	0.223470198675497	-0.869721854304636	15.0829139072848	40.2235761589404	20.1043708609272				0.900026490066225	0.211496688741722	0.773933774834437	-2.5682119205298	44.2919205298013	-1.73748344370861				0.543788079470199	-0.702834437086093	-0.756238410596026	6.74039735099338	14.7176158940397	4.84529801324503			
62	1240	-0.264158940397351	0.274754966887417	-1.01552317880795	-12.2866225165563	34.5753642384106	19.8150993377483				0.912953642384106	-0.112211920529801	0.877139072847682	18.0739072847682	49.8678145695364	14.5340397350993				-0.202172185430464	-0.273271523178808	-0.91994701986755	39.2074172185431	32.9064900662252	-12.8002649006623				0.912529801324503	0.159470198675497	-0.853721854304636	15.3629139072848	30.1435761589404	13.9443708609272				0.932026490066225	0.163496688741722	0.741933774834437	3.3117880794702	34.7719205298013	-2.01748344370861				0.479788079470199	-0.702834437086093	-0.724238410596026	-3.05960264900662	11.6376158940397	11.005298013245			
63	1260	-0.248158940397351	0.242754966887417	-0.919523178807947	-9.76662251655629	36.8153642384106	20.3750993377483				0.864953642384106	-0.192211920529801	0.925139072847682	13.3139072847682	34.4678145695364	10.8940397350993				-0.186172185430464	-0.273271523178808	-0.93594701986755	27.727417218543	42.1464900662252	-9.16026490066225				0.960529801324503	0.111470198675497	-0.821721854304636	-3.67708609271523	18.1035761589404	1.06437086092715				0.948026490066225	0.115496688741722	0.773933774834437	-1.4482119205298	30.5719205298013	-1.45748344370861				0.495788079470199	-0.702834437086093	-0.740238410596026	6.18039735099338	25.6376158940397	1.48529801324503			
64	1280	-0.200158940397351	0.258754966887417	-0.903523178807947	-12.2866225165563	42.1353642384106	19.5350993377483				0.864953642384106	-0.240211920529801	0.845139072847682	-1.52609271523179	19.0678145695364	5.85403973509934				-0.170172185430464	-0.273271523178808	-0.93594701986755	22.127417218543	44.3864900662252	-10.2802649006622				0.864529801324503	0.159470198675497	-0.773721854304636	-23.2770860927152	7.1835761589404	-6.77562913907285				0.948026490066225	0.163496688741722	0.725933774834437	-8.7282119205298	26.9319205298013	-1.73748344370861				0.527788079470199	-0.702834437086093	-0.724238410596026	17.3803973509934	27.8776158940397	-9.71470198675497			
65	1300	-0.152158940397351	0.258754966887417	-0.951523178807947	-14.8066225165563	46.0553642384106	20.6550993377483				0.864953642384106	-0.0962119205298013	0.845139072847682	7.15390728476821	1.42781456953642	5.57403973509934				-0.186172185430464	-0.273271523178808	-0.88794701986755	29.407417218543	49.7064900662252	-12.2402649006623				0.752529801324503	0.191470198675497	-0.789721854304636	-18.5170860927152	5.7835761589404	-9.85562913907285				0.932026490066225	0.259496688741722	0.629933774834437	-8.4482119205298	18.5319205298013	-1.73748344370861				0.495788079470199	-0.670834437086093	-0.724238410596026	18.5003973509934	18.9176158940397	-7.47470198675497			
66	1320	-0.120158940397351	0.306754966887417	-0.935523178807947	-7.52662251655629	48.8553642384106	21.4950993377483				0.848953642384106	-0.0322119205298013	0.733139072847682	25.3539072847682	-8.09218543046358	3.89403973509934				-0.170172185430464	-0.273271523178808	-0.87194701986755	13.447417218543	56.1464900662252	-9.16026490066225				0.784529801324503	0.159470198675497	-0.805721854304636	-2.27708609271523	17.5435761589404	-10.1356291390728				0.900026490066225	0.259496688741722	0.629933774834437	3.0317880794702	13.7719205298013	0.502516556291392				0.463788079470199	-0.606834437086093	-0.756238410596026	-4.73960264900662	20.3176158940397	1.76529801324503			
67	1340	-0.200158940397351	0.306754966887417	-0.919523178807947	-0.806622516556291	53.3353642384106	22.0550993377483				0.848953642384106	-0.112211920529801	0.781139072847682	21.4339072847682	-12.2921854304636	6.41403973509934				-0.170172185430464	-0.289271523178808	-0.91994701986755	2.52741721854305	58.9464900662252	-6.92026490066225				0.752529801324503	0.143470198675497	-0.821721854304636	2.76291390728477	23.7035761589404	-7.33562913907285				0.916026490066225	0.227496688741722	0.741933774834437	4.7117880794702	16.0119205298013	1.62251655629139				0.447788079470199	-0.590834437086093	-0.788238410596027	0.0203973509933773	25.6376158940397	-4.67470198675497			
68	1360	-0.168158940397351	0.306754966887417	-0.983523178807947	5.63337748344371	52.4953642384106	23.1750993377483				0.912953642384106	-0.112211920529801	0.781139072847682	6.31390728476821	-0.812185430463576	7.25403973509934				-0.106172185430464	-0.289271523178808	-0.90394701986755	-13.152582781457	64.2664900662252	-5.52026490066225				0.736529801324503	0.0954701986754967	-0.885721854304636	8.92291390728477	29.0235761589404	-2.29562913907285				1.01202649006623	0.195496688741722	0.709933774834437	2.7517880794702	12.3719205298013	1.34251655629139				0.543788079470199	-0.638834437086093	-0.804238410596027	6.18039735099338	30.3976158940397	-15.594701986755			
69	1380	-0.072158940397351	0.338754966887417	-0.967523178807947	7.87337748344371	59.7753642384106	22.6150993377483				0.976953642384106	-0.0322119205298013	0.813139072847682	4.07390728476821	1.14781456953642	4.45403973509934				-0.0261721854304636	-0.177271523178808	-0.98394701986755	-20.432582781457	67.9064900662252	-7.48026490066225				0.720529801324503	0.111470198675497	-0.917721854304636	16.7629139072848	34.6235761589404	-2.29562913907285				1.06002649006623	0.195496688741722	0.645933774834437	3.0317880794702	12.9319205298013	-0.0574834437086077				0.543788079470199	-0.670834437086093	-0.852238410596026	-1.93960264900662	29.8376158940397	-20.074701986755			
70	1400	-0.008158940397351	0.370754966887417	-1.01552317880795	12.0733774834437	65.3753642384106	22.3350993377483				0.928953642384106	-0.0642119205298013	0.861139072847682	13.5939072847682	-19.2921854304636	4.73403973509934				-0.0261721854304636	-0.0972715231788079	-0.96794701986755	-5.31258278145695	70.4264900662252	-8.60026490066225				0.720529801324503	0.111470198675497	-0.853721854304636	13.9629139072848	39.9435761589404	-7.61562913907285				1.02802649006623	0.227496688741722	0.645933774834437	5.2717880794702	10.4119205298013	0.222516556291392				0.511788079470199	-0.654834437086093	-0.820238410596026	-13.4196026490066	37.6776158940397	-19.794701986755			
71	1420	0.135841059602649	0.370754966887417	-1.04752317880795	17.1133774834437	71.8153642384106	21.2150993377483				0.944953642384106	-0.0322119205298013	0.813139072847682	24.5139072847682	-12.0121854304636	4.45403973509934				-0.0101721854304636	-0.193271523178808	-0.99994701986755	3.08741721854305	73.2264900662252	-10.5602649006623				0.752529801324503	0.159470198675497	-0.853721854304636	17.8829139072848	51.1435761589404	-12.3756291390728				0.996026490066225	0.259496688741722	0.645933774834437	7.2317880794702	12.0919205298013	1.06251655629139				0.495788079470199	-0.542834437086093	-0.804238410596027	-13.4196026490066	42.4376158940397	-16.994701986755			
72	1440	0.151841059602649	0.370754966887417	-1.07952317880795	19.0733774834437	76.2953642384106	18.1350993377483				0.992953642384106	-0.0322119205298013	0.829139072847682	32.6339072847682	-3.61218543046358	8.93403973509934				0.0698278145695364	-0.241271523178808	-1.01594701986755	5.88741721854305	79.1064900662252	-15.3202649006623				0.768529801324503	0.0794701986754967	-0.805721854304636	24.3229139072848	68.2235761589404	-9.85562913907285				0.980026490066225	0.275496688741722	0.629933774834437	13.1117880794702	16.2919205298013	-0.337483443708608				0.543788079470199	-0.494834437086093	-0.836238410596026	-16.4996026490066	41.3176158940397	-16.154701986755			
73	1460	0.183841059602649	0.402754966887417	-1.04752317880795	26.9133774834437	82.7353642384106	13.9350993377483				0.976953642384106	-0.0322119205298013	0.861139072847682	18.9139072847682	0.307814569536424	8.09403973509934				0.149827814569536	-0.209271523178808	-1.03194701986755	3.36741721854305	86.1064900662252	-18.9602649006623				0.752529801324503	0.0314701986754967	-0.821721854304636	24.6029139072848	76.3435761589404	-7.33562913907285				0.964026490066225	0.259496688741722	0.661933774834437	16.7517880794702	23.8519205298013	-0.337483443708608				0.591788079470199	-0.494834437086093	-0.852238410596026	-18.7396026490066	41.0376158940397	-15.314701986755			
74	1480	0.167841059602649	0.322754966887417	-1.04752317880795	30.8333774834437	91.1353642384106	11.9750993377483				0.976953642384106	-0.0322119205298013	0.925139072847682	20.8739072847682	8.70781456953642	9.49403973509934				0.197827814569536	-0.161271523178808	-1.03194701986755	1.40741721854305	92.5464900662252	-20.6402649006623				0.768529801324503	0.0634701986754967	-0.821721854304636	28.8029139072848	90.3435761589404	-5.65562913907285				0.948026490066225	0.211496688741722	0.725933774834437	7.7917880794702	21.6119205298013	-0.337483443708608				0.655788079470199	-0.542834437086093	-0.820238410596026	-5.01960264900662	51.1176158940397	-27.354701986755			
75	1500	0.199841059602649	0.274754966887417	-1.03152317880795	34.1933774834437	93.0953642384106	11.1350993377483				0.992953642384106	-0.0322119205298013	0.893139072847682	27.0339072847682	6.74781456953642	6.97403973509934				0.213827814569536	-0.209271523178808	-0.95194701986755	4.20741721854305	97.8664900662252	-22.3202649006623				0.768529801324503	0.0794701986754967	-0.773721854304636	38.3229139072848	106.30357615894	-5.37562913907285				0.964026490066225	0.227496688741722	0.693933774834437	6.6717880794702	25.8119205298013	-1.17748344370861				0.703788079470199	-0.590834437086093	-0.868238410596026	10.6603973509934	49.7176158940397	-41.354701986755			
76	1520	0.247841059602649	0.274754966887417	-1.01552317880795	36.7133774834437	100.095364238411	9.17509933774834				1.04095364238411	-0.0962119205298013	0.861139072847682	40.4739072847682	-1.93218543046358	5.01403973509934				0.229827814569536	-0.241271523178808	-0.95194701986755	3.36741721854305	105.146490066225	-23.7202649006623				0.816529801324503	0.0634701986754967	-0.709721854304636	50.0829139072848	109.10357615894	-12.0956291390728				0.916026490066225	0.179496688741722	0.549933774834437	9.1917880794702	26.6519205298013	-0.0574834437086077				0.703788079470199	-0.670834437086093	-0.868238410596026	5.90039735099338	31.5176158940397	-31.834701986755			
77	1540	0.279841059602649	0.274754966887417	-0.967523178807947	45.6733774834437	102.615364238411	5.25509933774834				0.928953642384106	-0.112211920529801	0.701139072847682	42.9939072847682	-14.5321854304636	-1.14596026490066				0.293827814569536	-0.273271523178808	-0.91994701986755	3.92741721854305	105.146490066225	-27.0802649006623				0.832529801324503	-0.0165298013245033	-0.661721854304636	55.1229139072848	96.5035761589404	-12.9356291390728				0.884026490066225	0.147496688741722	0.613933774834437	-0.328211920529802	20.4919205298013	2.18251655629139				0.655788079470199	-0.654834437086093	-0.788238410596027	-0.819602649006623	18.3576158940397	-10.834701986755			
78	1560	0.231841059602649	0.194754966887417	-0.919523178807947	49.8733774834437	106.815364238411	3.29509933774834				0.896953642384106	-0.176211920529801	0.813139072847682	16.1139072847682	4.50781456953642	7.25403973509934				0.341827814569536	-0.273271523178808	-0.85594701986755	0.567417218543046	107.386490066225	-25.4002649006623				0.832529801324503	-0.0485298013245033	-0.677721854304636	31.8829139072848	77.7435761589404	-2.29562913907285				0.836026490066225	0.163496688741722	0.613933774834437	-10.4082119205298	16.8519205298013	5.26251655629139				0.655788079470199	-0.558834437086093	-0.772238410596026	-19.2996026490066	18.3576158940397	-0.754701986754968			
79	1580	0.215841059602649	0.194754966887417	-0.903523178807947	47.0733774834437	107.375364238411	1.89509933774834				0.896953642384106	-0.0322119205298013	0.717139072847682	-7.96609271523179	5.34781456953642	6.41403973509934				0.357827814569536	-0.305271523178808	-0.82394701986755	0.847417218543046	110.746490066225	-22.3202649006623				0.800529801324503	0.0474701986754967	-0.661721854304636	21.5229139072848	67.6635761589404	1.06437086092715				0.804026490066225	0.211496688741722	0.581933774834437	-18.8082119205298	18.8119205298013	6.10251655629139				0.655788079470199	-0.494834437086093	-0.804238410596027	-0.819602649006623	7.99761589403974	-0.754701986754968			
80	1600	0.311841059602649	0.162754966887417	-0.871523178807947	48.4733774834437	107.935364238411	0.775099337748344				0.864953642384106	0.0797880794701987	0.621139072847682	7.15390728476821	5.90781456953642	5.29403973509934				0.405827814569536	-0.257271523178808	-0.79194701986755	0.567417218543046	114.386490066225	-16.4402649006623				0.752529801324503	0.0474701986754967	-0.645721854304636	29.3629139072848	62.9035761589404	-0.615629139072848				0.772026490066225	0.179496688741722	0.629933774834437	-20.7682119205298	30.2919205298013	7.22251655629139				0.639788079470199	-0.526834437086093	-0.708238410596026	14.0203973509934	-1.52238410596026	2.32529801324503			
81	1620	0.391841059602649	0.162754966887417	-0.807523178807947	46.7933774834437	107.375364238411	0.495099337748344				0.832953642384106	-0.0322119205298013	0.653139072847682	22.5539072847682	7.58781456953643	5.29403973509934				0.421827814569536	-0.193271523178808	-0.77594701986755	-0.832582781456954	114.386490066225	-11.6802649006622				0.816529801324503	-0.0805298013245033	-0.549721854304636	26.2829139072848	54.7835761589404	5.54437086092715				0.804026490066225	0.0834966887417219	0.645933774834437	-19.9282119205298	24.6919205298013	8.90251655629139				0.591788079470199	-0.622834437086093	-0.596238410596026	5.90039735099338	-10.4823841059603	6.80529801324503			
82	1640	0.375841059602649	0.114754966887417	-0.823523178807947	43.7133774834437	103.735364238411	1.05509933774834				0.832953642384106	-0.192211920529801	0.701139072847682	16.6739072847682	15.4278145695364	6.69403973509934				0.453827814569536	-0.161271523178808	-0.75994701986755	0.847417218543046	115.226490066225	-10.0002649006623				0.896529801324503	-0.112529801324503	-0.565721854304636	7.80291390728477	35.7435761589404	16.1843708609272				0.756026490066225	0.0354966887417219	0.645933774834437	-29.4482119205298	18.8119205298013	9.46251655629139				0.511788079470199	-0.606834437086093	-0.484238410596026	-44.2196026490066	-30.9223841059603	-5.23470198675497			
83	1660	0.343841059602649	0.00275496688741723	-0.855523178807947	36.4333774834437	104.855364238411	2.45509933774835				0.816953642384106	-0.144211920529801	0.717139072847682	-11.8860927152318	18.5078145695364	1.09403973509934				0.485827814569536	-0.161271523178808	-0.72794701986755	3.36741721854305	115.506490066225	-8.60026490066225				0.880529801324503	-0.0165298013245033	-0.517721854304636	7.24291390728477	30.7035761589404	25.7043708609272				0.724026490066225	0.147496688741722	0.661933774834437	-26.3682119205298	14.0519205298013	9.18251655629139				0.511788079470199	-0.510834437086093	-0.612238410596026	-43.6596026490066	-9.08238410596027	3.72529801324503			
84	1680	0.375841059602649	0.0347549668874172	-0.839523178807947	29.1533774834437	111.295364238411	1.33509933774834				0.720953642384106	-0.0802119205298013	0.717139072847682	-20.8460927152318	28.0278145695364	-6.46596026490066				0.517827814569536	-0.193271523178808	-0.69594701986755	-4.47258278145695	117.186490066225	-8.88026490066225				0.928529801324503	0.0314701986754967	-0.485721854304636	26.5629139072848	21.7435761589404	27.3843708609272				0.708026490066225	0.179496688741722	0.693933774834437	-27.4882119205298	0.891920529801325	10.8625165562914				0.607788079470199	-0.606834437086093	-0.676238410596026	-35.2596026490066	-2.08238410596027	11.845298013245			
85	1700	0.519841059602649	0.0347549668874172	-0.791523178807947	29.7133774834437	113.535364238411	2.73509933774834				0.704953642384106	-0.0322119205298013	0.669139072847682	-15.2460927152318	32.2278145695364	-12.6259602649007				0.581827814569536	-0.193271523178808	-0.66394701986755	-7.83258278145695	114.386490066225	-8.04026490066225				0.992529801324503	0.0314701986754967	-0.453721854304636	32.1629139072848	5.7835761589404	25.1443708609272				0.756026490066225	0.0994966887417219	0.725933774834437	-33.9282119205298	-4.70807947019868	10.3025165562914				0.591788079470199	-0.670834437086093	-0.644238410596026	-22.9396026490066	-16.9223841059603	16.605298013245			
86	1720	0.599841059602649	-0.0292450331125828	-0.679523178807947	24.9533774834437	117.175364238411	4.41509933774834				0.736953642384106	-0.0322119205298013	0.653139072847682	-18.3260927152318	26.0678145695364	-8.14596026490066				0.677827814569536	-0.129271523178808	-0.63194701986755	-13.992582781457	112.426490066225	-4.40026490066225				1.0405298013245	-0.0965298013245033	-0.357721854304636	30.4829139072848	16.4235761589404	22.6243708609272				0.756026490066225	0.0354966887417219	0.725933774834437	-32.8082119205298	-7.50807947019868	10.0225165562914				0.591788079470199	-0.510834437086093	-0.564238410596026	-23.4996026490066	-26.7223841059603	21.365298013245			
87	1740	0.647841059602649	-0.0772450331125828	-0.663523178807947	12.9133774834437	117.735364238411	8.05509933774835				0.768953642384106	-0.0322119205298013	0.733139072847682	-19.7260927152318	23.8278145695364	-4.78596026490066				0.693827814569536	-0.145271523178808	-0.51994701986755	-19.312582781457	113.826490066225	-1.88026490066225				0.928529801324503	-0.0805298013245033	-0.309721854304636	14.8029139072848	13.6235761589404	36.0643708609272				0.580026490066225	0.195496688741722	1.18993377483444	-55.2082119205298	-71.0680794701987	10.8625165562914				0.495788079470199	-0.382834437086093	-0.516238410596026	-7.25960264900662	-18.6023841059603	13.805298013245			
88	1760	0.631841059602649	-0.0452450331125828	-0.647523178807947	-4.44662251655629	119.695364238411	10.0150993377483				0.704953642384106	-0.0482119205298013	0.765139072847682	-9.92609271523179	12.0678145695364	-8.14596026490066				0.709827814569536	-0.161271523178808	-0.55194701986755	-15.952582781457	118.026490066225	-1.32026490066225				0.816529801324503	-0.0165298013245033	-0.485721854304636	13.4029139072848	11.6635761589404	29.0643708609272				0.708026490066225	0.243496688741722	0.789933774834437	22.9117880794702	-194.268079470199	25.4225165562914				0.463788079470199	-0.414834437086093	-0.484238410596026	-15.3796026490066	9.39761589403974	3.16529801324503			
89	1780	0.615841059602649	0.0667549668874172	-0.551523178807947	-6.96662251655629	122.495364238411	10.2950993377483				0.704953642384106	-0.0322119205298013	0.749139072847682	-9.36609271523179	11.2278145695364	-11.7859602649007				0.693827814569536	-0.177271523178808	-0.55194701986755	-10.072582781457	128.666490066225	-4.68026490066225				0.784529801324503	-0.0325298013245033	-0.245721854304636	30.7629139072848	19.5035761589404	24.3043708609272				0.660026490066225	-0.0765033112582781	0.181933774834437	-84.8882119205298	-221.148079470199	42.2225165562914				0.559788079470199	-0.510834437086093	-0.564238410596026	-12.5796026490066	7.99761589403974	-4.95470198675497			
90	1800	0.775841059602649	0.0507549668874172	-0.551523178807947	6.75337748344371	122.215364238411	8.33509933774834				0.720953642384106	0.0157880794701987	0.749139072847682	-3.76609271523179	12.9078145695364	-12.3459602649007				0.709827814569536	-0.145271523178808	-0.45594701986755	3.08741721854305	137.346490066225	-8.32026490066225				0.912529801324503	0.0474701986754967	-0.197721854304636	50.6429139072848	42.4635761589404	35.7843708609272				0.356026490066225	-0.108503311258278	1.04593377483444	53.4317880794702	-123.988079470199	-7.89748344370861				0.559788079470199	-0.654834437086093	-0.564238410596026	-8.09960264900662	9.11761589403974	5.68529801324503			
91	1820	0.903841059602649	0.0827549668874172	-0.487523178807947	7.03337748344371	125.295364238411	5.25509933774834				0.608953642384106	-0.0322119205298013	0.861139072847682	3.23390728476821	3.94781456953642	-6.18596026490066				0.805827814569536	-0.0652715231788079	-0.40794701986755	9.52741721854305	136.506490066225	-8.60026490066225				1.3605298013245	0.287470198675497	-0.245721854304636	-2.55708609271523	13.9035761589404	17.3043708609272				0.868026490066225	0.195496688741722	0.341933774834437	-84.6082119205298	-20.1080794701987	-7.89748344370861				0.607788079470199	-0.542834437086093	-0.500238410596026	6.46039735099338	14.1576158940397	16.045298013245			
92	1840	0.871841059602649	0.0507549668874172	-0.487523178807947	4.23337748344371	124.175364238411	2.45509933774835				0.576953642384106	-0.112211920529801	0.813139072847682	9.95390728476821	-23.7721854304636	2.49403973509934				0.885827814569536	-0.0812715231788079	-0.37594701986755	8.68741721854305	132.306490066225	-7.20026490066225				1.2165298013245	0.0794701986754967	-0.149721854304636	17.3229139072848	6.0635761589404	6.94437086092715				0.900026490066225	0.195496688741722	0.485933774834437	-21.0482119205298	-8.90807947019868	8.90251655629139				0.607788079470199	-0.446834437086093	-0.516238410596026	11.2203973509934	9.39761589403974	24.165298013245			
93	1860	0.791841059602649	0.0667549668874172	-0.423523178807947	7.03337748344371	123.895364238411	1.89509933774834				0.608953642384106	-0.0962119205298013	0.733139072847682	-8.80609271523179	-26.5721854304636	0.53403973509934				0.933827814569536	-0.0972715231788079	-0.39194701986755	12.887417218543	129.506490066225	-12.5202649006623				0.976529801324503	-0.0325298013245033	-0.357721854304636	22.6429139072848	-5.4164238410596	-4.53562913907285				0.724026490066225	0.0674966887417219	0.549933774834437	-13.7682119205298	-15.9080794701987	6.66251655629139				0.527788079470199	-0.414834437086093	-0.516238410596026	31.6603973509934	16.9576158940397	20.245298013245			
94	1880	0.807841059602649	0.00275496688741723	-0.343523178807947	10.6733774834437	133.135364238411	-5.94490066225166				0.672953642384106	-0.0482119205298013	0.829139072847682	-11.0460927152318	-28.5321854304636	-3.10596026490066				0.917827814569536	-0.113271523178808	-0.35994701986755	11.207417218543	128.386490066225	-16.1602649006623				0.848529801324503	-0.0325298013245033	-0.261721854304636	1.92291390728477	-6.2564238410596	-7.61562913907285				0.596026490066225	0.0194966887417219	0.549933774834437	-11.2482119205298	-19.5480794701987	3.86251655629139				0.495788079470199	-0.462834437086093	-0.484238410596026	45.6603973509934	16.3976158940397	6.80529801324503			
95	1900	0.871841059602649	0.00275496688741723	-0.247523178807947	-1.36662251655629	137.895364238411	-10.4249006622517				0.560953642384106	-0.000211920529801304	0.717139072847682	-16.6460927152318	-38.8921854304636	3.05403973509934				0.933827814569536	-0.113271523178808	-0.29594701986755	10.647417218543	132.306490066225	-18.9602649006623				0.736529801324503	-0.0805298013245033	-0.197721854304636	-5.63708609271523	-12.1364238410596	0.224370860927152				0.644026490066225	0.0194966887417219	0.533933774834437	-15.4482119205298	-27.1080794701987	4.70251655629139				0.463788079470199	-0.542834437086093	-0.468238410596026	33.3403973509934	7.99761589403974	9.32529801324503			
96	1920	0.839841059602649	0.0187549668874172	-0.263523178807947	-10.8866225165563	140.415364238411	-7.06490066225166				0.512953642384106	-0.0482119205298013	0.589139072847682	-16.6460927152318	-59.0521854304636	11.4540397350993				0.805827814569536	-0.209271523178808	-0.24794701986755	13.447417218543	136.226490066225	-15.8802649006623				0	0	0	0	0	0				0	0	0	0	0	0				0	0	0	0	0	0			
97	1940	0.759841059602649	0.0347549668874172	-0.215523178807947	-5.56662251655629	147.135364238411	-4.26490066225166				0.480953642384106	-0.000211920529801304	0.557139072847682	-7.12609271523179	-49.2521854304636	3.33403973509934				0.741827814569536	-0.289271523178808	-0.19994701986755	0.847417218543046	130.626490066225	-6.64026490066225				0.816529801324503	0.143470198675497	-0.213721854304636	15.9229139072848	-7.6564238410596	3.02437086092715				0.676026490066225	0.0514966887417219	0.453933774834437	-28.3282119205298	-30.1880794701987	-5.37748344370861				0.479788079470199	-0.526834437086093	-0.324238410596026	6.46039735099338	-11.3223841059603	13.805298013245			
98	1960	0.695841059602649	0.0667549668874172	-0.151523178807947	16.5533774834437	145.735364238411	-9.58490066225166				0.480953642384106	0.0157880794701987	0.621139072847682	2.39390728476821	-55.1321854304636	-3.94596026490066				0.837827814569536	-0.161271523178808	-0.13594701986755	-26.312582781457	129.786490066225	-6.36026490066225				0.912529801324503	0.0474701986754967	-0.181721854304636	17.8829139072848	-18.8564238410596	1.34437086092715				0.580026490066225	-0.0445033112582781	0.517933774834437	-22.7282119205298	-46.9880794701987	-12.0974834437086				0.511788079470199	-0.510834437086093	-0.324238410596026	-8.37960264900662	-11.3223841059603	18.565298013245			
99	1980	0.695841059602649	0.0827549668874172	-0.231523178807947	34.7533774834437	146.575364238411	-9.30490066225166				0.448953642384106	-0.0642119205298013	0.589139072847682	9.95390728476821	-71.0921854304636	4.17403973509934				0.709827814569536	-0.177271523178808	-0.0879470198675496	-37.512582781457	124.466490066225	-7.76026490066225				0.880529801324503	-0.0965298013245033	-0.133721854304636	-3.11708609271523	-33.6964238410596	-1.45562913907285				0.596026490066225	0.0514966887417219	0.437933774834437	-7.0482119205298	-46.9880794701987	-9.57748344370861				0.495788079470199	-0.494834437086093	-0.308238410596026	-24.0596026490066	-17.7623841059603	21.645298013245			
100	2000	0.759841059602649	0.0187549668874172	-0.375523178807947	24.9533774834437	138.175364238411	-2.58490066225166				0.448953642384106	-0.144211920529801	0.541139072847682	-4.88609271523179	-73.6121854304636	13.9740397350993				0.709827814569536	-0.145271523178808	-0.0559470198675496	-34.992582781457	122.786490066225	-17.8402649006623				0.656529801324503	-0.0485298013245033	-0.0857218543046357	-9.27708609271523	-42.3764238410596	11.9843708609272				0.596026490066225	0.0834966887417219	0.389933774834437	-7.8882119205298	-44.1880794701987	2.74251655629139				0.479788079470199	-0.478834437086093	-0.260238410596026	-57.3796026490066	8.83761589403974	20.245298013245			
101	2020	0.823841059602649	-0.0292450331125828	-0.375523178807947	-1.36662251655629	133.695364238411	8.05509933774835				0.480953642384106	-0.000211920529801304	0.477139072847682	-23.0860927152318	-64.6521854304636	-1.98596026490066				0.757827814569536	-0.0972715231788079	-0.0879470198675496	-27.152582781457	117.186490066225	-18.9602649006623				0.576529801324503	0.0794701986754967	-0.165721854304636	24.6029139072848	-47.1364238410596	21.5043708609272				0.532026490066225	0.00349668874172187	0.437933774834437	-10.4082119205298	-50.9080794701987	-1.73748344370861				0.479788079470199	-0.398834437086093	-0.276238410596026	-25.4596026490066	-10.2023841059603	2.04529801324503			
102	2040	0.791841059602649	0.0507549668874172	-0.247523178807947	-13.6866225165563	112.975364238411	8.89509933774834				0.544953642384106	-0.0482119205298013	0.541139072847682	-11.3260927152318	-54.0121854304636	-4.78596026490066				0.837827814569536	-0.145271523178808	-0.0559470198675496	-37.512582781457	96.1864900662252	-11.1202649006623				0.656529801324503	-0.000529801324503289	-0.197721854304636	24.3229139072848	-55.2564238410596	23.7443708609272				0.500026490066225	-0.0285033112582781	0.389933774834437	-1.4482119205298	-52.5880794701987	-2.01748344370861				0.431788079470199	-0.462834437086093	-0.212238410596026	2.26039735099338	-32.0423841059603	-7.75470198675497			
103	2060	0.663841059602649	0.210754966887417	-0.135523178807947	-11.1666225165563	108.495364238411	6.09509933774834				0.496953642384106	-0.112211920529801	0.541139072847682	-7.96609271523179	-72.2121854304636	-2.82596026490066				0.837827814569536	-0.225271523178808	-0.0559470198675496	-35.552582781457	78.5464900662252	-0.76026490066225				0.592529801324503	-0.192529801324503	-0.277721854304636	11.1629139072848	-53.2964238410596	25.4243708609272				0.548026490066225	-0.0125033112582781	0.357933774834437	4.4317880794702	-52.0280794701987	4.70251655629139				0.399788079470199	-0.446834437086093	-0.260238410596026	-34.1396026490066	-29.8023841059603	-14.754701986755			
104	2080	0.743841059602649	0.178754966887417	-0.00752317880794696	10.9533774834437	102.895364238411	3.85509933774834				0.448953642384106	-0.128211920529801	0.525139072847682	-32.0460927152318	-70.8121854304636	-7.30596026490066				0.821827814569536	-0.273271523178808	-0.0719470198675496	-43.112582781457	65.3864900662252	7.35973509933775				0.496529801324503	-0.128529801324503	-0.309721854304636	-10.3970860927152	-40.1364238410596	23.7443708609272				0.676026490066225	0.00349668874172187	0.325933774834437	3.8717880794702	-49.5080794701987	8.62251655629139				0.431788079470199	-0.462834437086093	-0.292238410596026	-15.9396026490066	-28.6823841059603	-22.874701986755			
105	2100	1.01584105960265	0.0347549668874172	-0.023523178807947	10.9533774834437	97.8553642384106	0.775099337748344				0.496953642384106	-0.0162119205298013	0.573139072847682	-33.7260927152318	-38.3321854304636	-17.9459602649007				0.885827814569536	-0.241271523178808	-0.0879470198675496	-61.312582781457	48.8664900662252	14.9197350993378				0.528529801324503	0.0474701986754967	-0.309721854304636	-7.03708609271523	-26.4164238410596	18.1443708609272				0.692026490066225	0.0194966887417219	0.325933774834437	5.2717880794702	-49.5080794701987	8.06251655629139				0.399788079470199	-0.446834437086093	-0.356238410596026	-26.8596026490066	-27.5623841059603	-12.794701986755			
106	2120	1.04784105960265	-0.0292450331125828	0.00847682119205304	-13.6866225165563	79.6553642384106	1.61509933774834				0.608953642384106	-0.0162119205298013	0.653139072847682	-18.0460927152318	-32.1721854304636	-18.7859602649007				0.965827814569536	-0.0972715231788079	-0.0879470198675496	-64.392582781457	28.4264900662252	16.0397350993378				0.640529801324503	0.0314701986754967	-0.325721854304636	7.52291390728477	-21.0964238410596	14.7843708609272				0.852026490066225	0.0354966887417219	0.325933774834437	9.1917880794702	-38.0280794701987	8.90251655629139				0.447788079470199	-0.430834437086093	-0.548238410596027	-40.5796026490066	1.83761589403974	-2.99470198675497			
107	2140	1.01584105960265	0.0187549668874172	0.00847682119205304	-21.5266225165563	56.9753642384106	0.215099337748344				0.592953642384106	-0.0962119205298013	0.605139072847682	-8.52609271523179	-44.2121854304636	-10.6659602649007				1.01382781456954	0.0467284768211921	-0.0399470198675496	-49.832582781457	3.78649006622517	9.31973509933775				0.688529801324503	-0.128529801324503	-0.421721854304636	16.4829139072848	-25.2964238410596	11.9843708609272				0.852026490066225	0.0194966887417219	0.277933774834437	8.9117880794702	-24.3080794701987	8.90251655629139				0.479788079470199	-0.462834437086093	-0.580238410596026	-14.8196026490066	10.7976158940397	5.12529801324503			
108	2160	1.09584105960265	0.0187549668874172	0.072476821192053	-26.8466225165563	42.9753642384106	4.69509933774834				0.672953642384106	-0.0482119205298013	0.669139072847682	-21.4060927152318	-42.2521854304636	-10.3859602649007				1.02982781456954	0.0787284768211921	-0.00794701986754963	-28.272582781457	-9.93350993377483	2.31973509933775				0.640529801324503	-0.208529801324503	-0.533721854304636	9.48291390728477	-21.6564238410596	11.1443708609272				0.820026490066225	0.0194966887417219	0.293933774834437	9.4717880794702	-23.4680794701987	7.50251655629139				0.479788079470199	-0.430834437086093	-0.596238410596026	-12.2996026490066	14.1576158940397	7.64529801324503			
109	2180	1.17584105960265	0.0507549668874172	-0.023523178807947	-25.1666225165563	11.6153642384106	0.215099337748344				0.720953642384106	-0.0322119205298013	0.589139072847682	-23.3660927152318	-20.4121854304636	-13.4659602649007				1.06182781456954	-0.00127152317880793	-0.00794701986754963	-1.39258278145695	-26.4535099337748	-3.28026490066225				0.720529801324503	-0.0805298013245033	-0.597721854304636	-11.2370860927152	-9.0564238410596	6.10437086092715				0.852026490066225	-0.0125033112582781	0.309933774834437	15.9117880794702	-14.5080794701987	8.06251655629139				0.495788079470199	-0.366834437086093	-0.708238410596026	-6.69960264900662	16.1176158940397	11.285298013245			
110	2200	1.11184105960265	0.0347549668874172	-0.087523178807947	-20.4066225165563	-7.1446357615894	2.45509933774835				0.896953642384106	-0.0482119205298013	0.685139072847682	-13.0060927152318	-3.33218543046358	-12.6259602649007				1.04582781456954	-0.0812715231788079	-0.0239470198675496	17.927417218543	-30.3735099337748	-5.80026490066225				0.800529801324503	-0.0805298013245033	-0.469721854304636	-18.7970860927152	5.5035761589404	-0.895629139072848				0.996026490066225	0.0354966887417219	0.245933774834437	20.6717880794702	3.41192052980132	10.0225165562914				0.511788079470199	-0.414834437086093	-0.836238410596026	12.0603973509934	9.95761589403974	11.565298013245			
111	2220	0.967841059602649	-0.0132450331125828	-0.023523178807947	-3.32662251655629	-11.6246357615894	-3.42490066225166				0.864953642384106	-0.0802119205298013	0.573139072847682	-9.36609271523179	-23.4921854304636	-9.26596026490066				1.01382781456954	-0.113271523178808	-0.0719470198675496	18.487417218543	-30.6535099337748	-4.40026490066225				0.784529801324503	-0.128529801324503	-0.517721854304636	-3.95708609271523	10.2635761589404	-4.53562913907285				1.02802649006623	0.0674966887417219	0.197933774834437	22.9117880794702	13.7719205298013	10.3025165562914				0.527788079470199	-0.494834437086093	-0.868238410596026	17.6603973509934	-1.80238410596026	11.845298013245			
112	2240	0.951841059602649	-0.0612450331125828	0.104476821192053	-1.64662251655629	-9.38463576158941	-1.46490066225166				0.864953642384106	-0.0962119205298013	0.509139072847682	-7.68609271523179	-14.5321854304636	-8.42596026490066				0.981827814569536	-0.161271523178808	-0.0399470198675496	16.5274172185431	-29.8135099337748	-3.28026490066225				0.784529801324503	-0.128529801324503	-0.565721854304636	6.40291390728477	10.2635761589404	-3.97562913907285				1.06002649006623	0.0194966887417219	0.245933774834437	15.0717880794702	9.85192052980133	9.74251655629139				0.511788079470199	-0.510834437086093	-0.820238410596026	13.1803973509934	-14.6823841059603	16.325298013245			
113	2260	0.967841059602649	-0.0292450331125828	0.232476821192053	-4.16662251655629	-7.7046357615894	3.29509933774834				0.944953642384106	-0.144211920529801	0.493139072847682	-4.04609271523179	-16.2121854304636	-3.66596026490066				0.917827814569536	-0.209271523178808	-0.0239470198675496	15.687417218543	-27.0135099337748	-5.24026490066225				0.800529801324503	-0.144529801324503	-0.581721854304636	9.20291390728477	6.3435761589404	-3.13562913907285				0.868026490066225	-0.0125033112582781	0.277933774834437	20.6717880794702	0.891920529801325	11.9825165562914				0.415788079470199	-0.382834437086093	-0.820238410596026	2.54039735099338	-13.0023841059603	19.685298013245			
114	2280	1.04784105960265	0.0187549668874172	0.184476821192053	3.67337748344371	2.6553642384106	1.89509933774834				0.960953642384106	-0.128211920529801	0.445139072847682	-7.68609271523179	-15.0921854304636	1.09403973509934				0.965827814569536	-0.225271523178808	-0.0719470198675496	11.767417218543	-22.2535099337748	-6.08026490066225				0.832529801324503	-0.176529801324503	-0.517721854304636	-2.27708609271523	1.3035761589404	-6.77562913907285				0.884026490066225	0.0514966887417219	0.245933774834437	13.9517880794702	2.01192052980133	13.1025165562914				0.383788079470199	-0.334834437086093	-0.820238410596026	9.54039735099338	-11.3223841059603	16.325298013245			
115	2300	0.951841059602649	0.0187549668874172	0.040476821192053	4.51337748344371	-1.5446357615894	-5.10490066225166				0.944953642384106	-0.0802119205298013	0.381139072847682	-10.2060927152318	-15.6521854304636	3.61403973509934				1.01382781456954	-0.225271523178808	-0.0559470198675496	8.96741721854305	-19.1735099337748	-6.08026490066225				0.784529801324503	-0.224529801324503	-0.501721854304636	1.92291390728477	-0.9364238410596	-2.57562913907285				0.980026490066225	0.0194966887417219	0.149933774834437	6.1117880794702	0.0519205298013249	16.7425165562914				0.383788079470199	-0.350834437086093	-0.804238410596027	23.2603973509934	-18.8823841059603	11.845298013245			
116	2320	0.967841059602649	-0.0292450331125828	-0.00752317880794696	3.11337748344371	-6.5846357615894	-7.34490066225166				0.912953642384106	-0.0482119205298013	0.349139072847682	-3.48609271523179	-17.6121854304636	3.61403973509934				0.965827814569536	-0.209271523178808	-0.0559470198675496	5.88741721854305	-14.6935099337748	-5.80026490066225				0.720529801324503	-0.208529801324503	-0.517721854304636	2.48291390728477	-0.6564238410596	1.34437086092715				0.884026490066225	-0.0285033112582781	0.181933774834437	4.9917880794702	-3.30807947019868	14.7825165562914				0.335788079470199	-0.382834437086093	-0.724238410596026	25.5003973509934	-20.5623841059603	9.60529801324503			
117	2340	1.01584105960265	-0.0292450331125828	0.024476821192053	-1.92662251655629	-8.26463576158941	-4.54490066225166				0.880953642384106	-0.0162119205298013	0.349139072847682	5.19390728476821	-10.3321854304636	7.81403973509934				0.917827814569536	-0.177271523178808	-0.0559470198675496	7.56741721854305	-13.0135099337748	-3.84026490066225				0.688529801324503	-0.128529801324503	-0.517721854304636	2.20291390728477	7.4635761589404	-2.29562913907285				0.884026490066225	-0.0605033112582781	0.197933774834437	10.8717880794702	-4.42807947019868	12.8225165562914				0.335788079470199	-0.398834437086093	-0.740238410596026	20.4603973509934	-10.2023841059603	4.56529801324503			
118	2360	0.999841059602649	-0.0452450331125828	-0.055523178807947	5.35337748344371	-10.7846357615894	-2.30490066225166				0.912953642384106	-0.0482119205298013	0.381139072847682	6.03390728476821	-5.57218543046358	9.77403973509934				0.901827814569536	-0.161271523178808	-0.0559470198675496	10.927417218543	-11.8935099337748	-1.88026490066225				0.752529801324503	-0.160529801324503	-0.501721854304636	12.0029139072848	11.6635761589404	-3.97562913907285				0.916026490066225	0.00349668874172187	0.229933774834437	15.3517880794702	-3.02807947019868	13.3825165562914				0.335788079470199	-0.446834437086093	-0.724238410596026	29.7003973509934	-9.08238410596027	-0.474701986754968			
119	2380	0.951841059602649	0.00275496688741723	-0.039523178807947	9.55337748344371	-6.5846357615894	-0.904900662251656				0.912953642384106	-0.144211920529801	0.381139072847682	-6.28609271523179	-6.97218543046358	8.93403973509934				0.933827814569536	-0.145271523178808	-0.0879470198675496	14.567417218543	-7.41350993377483	-0.20026490066225				0.800529801324503	-0.208529801324503	-0.533721854304636	32.1629139072848	8.3035761589404	-5.93562913907285				0.980026490066225	-0.0125033112582781	0.181933774834437	14.2317880794702	0.331920529801325	15.0625165562914				0.351788079470199	-0.510834437086093	-0.676238410596026	27.7403973509934	-8.80238410596027	-1.59470198675497			
120	2400	0.919841059602649	0.0187549668874172	-0.023523178807947	8.71337748344371	-5.1846357615894	-0.904900662251656				0.880953642384106	-0.128211920529801	0.381139072847682	-13.2860927152318	-5.85218543046358	5.57403973509934				0.885827814569536	-0.145271523178808	-0.10394701986755	6.72741721854305	-1.25350993377483	0.0797350993377501				0.832529801324503	-0.240529801324503	-0.597721854304636	34.9629139072848	2.1435761589404	-7.05562913907285				0.964026490066225	-0.0765033112582781	0.197933774834437	14.2317880794702	0.0519205298013249	12.8225165562914				0.399788079470199	-0.510834437086093	-0.644238410596026	15.9803973509934	-9.08238410596027	-4.95470198675497			
121	2420	0.919841059602649	0.0667549668874172	-0.087523178807947	8.15337748344371	-4.3446357615894	-1.18490066225166				0.912953642384106	-0.0642119205298013	0.381139072847682	-4.60609271523179	-1.93218543046358	6.41403973509934				0.853827814569536	-0.129271523178808	-0.10394701986755	-3.91258278145695	0.986490066225167	-0.20026490066225				0.832529801324503	-0.240529801324503	-0.581721854304636	12.0029139072848	-7.6564238410596	-10.9756291390728				0.932026490066225	-0.0925033112582781	0.229933774834437	16.1917880794702	2.85192052980133	7.78251655629139				0.415788079470199	-0.526834437086093	-0.708238410596026	11.5003973509934	-10.2023841059603	-7.75470198675497			
122	2440	0.967841059602649	0.0507549668874172	-0.119523178807947	3.39337748344371	-3.2246357615894	-1.74490066225166				0.912953642384106	-0.0802119205298013	0.381139072847682	5.47390728476821	-6.69218543046358	6.97403973509934				0.885827814569536	-0.0812715231788079	-0.0879470198675496	-7.27258278145696	2.38649006622517	-0.76026490066225				0.800529801324503	-0.240529801324503	-0.501721854304636	5.84291390728477	-7.6564238410596	-10.1356291390728				0.932026490066225	-0.0445033112582781	0.213933774834437	14.5117880794702	0.611920529801325	7.78251655629139				0.399788079470199	-0.526834437086093	-0.724238410596026	17.6603973509934	-15.2423841059603	-4.39470198675497			
123	2460	1.03184105960265	0.0347549668874172	-0.119523178807947	-5.56662251655629	-3.7846357615894	-0.0649006622516557				0.912953642384106	-0.0962119205298013	0.349139072847682	3.79390728476821	-9.21218543046358	7.53403973509934				0.949827814569536	-0.0652715231788079	-0.11994701986755	-7.83258278145695	2.38649006622517	-1.04026490066225				0.768529801324503	-0.240529801324503	-0.517721854304636	9.76291390728477	-5.4164238410596	-4.81562913907285				0.948026490066225	-0.0125033112582781	0.213933774834437	12.8317880794702	1.45192052980132	7.78251655629139				0.367788079470199	-0.542834437086093	-0.676238410596026	14.0203973509934	-17.7623841059603	-1.03470198675497			
124	2480	0.967841059602649	0.0187549668874172	-0.087523178807947	-4.44662251655629	-7.1446357615894	0.215099337748344				0.912953642384106	-0.0482119205298013	0.365139072847682	-6.56609271523179	-5.01218543046358	3.89403973509934				0.981827814569536	-0.0652715231788079	-0.11994701986755	-6.43258278145695	1.82649006622517	-3.00026490066225				0.752529801324503	-0.240529801324503	-0.549721854304636	16.7629139072848	-5.6964238410596	1.62437086092715				0.932026490066225	-0.0605033112582781	0.229933774834437	15.0717880794702	-1.06807947019868	8.34251655629139				0.383788079470199	-0.510834437086093	-0.660238410596027	6.74039735099338	-9.92238410596027	-2.71470198675497			
125	2500	0.919841059602649	0.00275496688741723	0.00847682119205304	-4.44662251655629	-6.0246357615894	1.05509933774834				0.928953642384106	-0.0162119205298013	0.381139072847682	-2.08609271523179	-3.61218543046358	1.93403973509934				0.933827814569536	-0.0332715231788079	-0.11994701986755	-3.07258278145695	0.426490066225167	-5.52026490066225				0.752529801324503	-0.240529801324503	-0.581721854304636	12.8429139072848	-7.3764238410596	1.62437086092715				0.964026490066225	-0.0605033112582781	0.245933774834437	9.7517880794702	-3.02807947019868	6.66251655629139				0.383788079470199	-0.526834437086093	-0.660238410596027	7.02039735099338	-1.80238410596026	-5.51470198675497			
126	2520	0.967841059602649	0.0667549668874172	0.056476821192053	-5.56662251655629	-4.3446357615894	-0.0649006622516557				0.960953642384106	-0.0642119205298013	0.381139072847682	5.75390728476821	-4.73218543046358	2.21403973509934				0.949827814569536	-0.00127152317880793	-0.13594701986755	0.847417218543046	1.82649006622517	-6.64026490066225				0.752529801324503	-0.224529801324503	-0.597721854304636	9.20291390728477	-3.4564238410596	-1.45562913907285				0.980026490066225	-0.0125033112582781	0.181933774834437	8.0717880794702	-7.50807947019868	8.90251655629139				0.399788079470199	-0.542834437086093	-0.660238410596027	6.18039735099338	0.717615894039735	-5.51470198675497			
127	2540	1.01584105960265	0.146754966887417	0.072476821192053	-0.806622516556291	-2.9446357615894	-3.42490066225166				0.976953642384106	-0.112211920529801	0.365139072847682	3.51390728476821	-6.69218543046358	1.93403973509934				0.997827814569536	-0.0332715231788079	-0.11994701986755	1.40741721854305	5.18649006622517	-8.04026490066225				0.768529801324503	-0.224529801324503	-0.581721854304636	12.2829139072848	-0.9364238410596	0.224370860927152				0.964026490066225	0.00349668874172187	0.213933774834437	10.3117880794702	-14.2280794701987	9.46251655629139				0.399788079470199	-0.510834437086093	-0.676238410596026	1.98039735099338	0.157615894039735	-4.11470198675497			
128	2560	0.983841059602649	0.130754966887417	0.040476821192053	3.11337748344371	-0.704635761589404	-4.54490066225166				0.912953642384106	-0.0642119205298013	0.413139072847682	-2.64609271523179	0.587814569536424	-0.86596026490066				0.981827814569536	-0.0652715231788079	-0.0879470198675496	-0.832582781456954	6.86649006622517	-9.44026490066225				0.816529801324503	-0.224529801324503	-0.581721854304636	10.0429139072848	-6.5364238410596	2.18437086092715				0.900026490066225	-0.0445033112582781	0.229933774834437	9.4717880794702	-20.6680794701987	7.50251655629139				0.383788079470199	-0.494834437086093	-0.660238410596027	-2.77960264900662	6.59761589403974	-3.27470198675497			
129	2580	0.935841059602649	0.0827549668874172	-0.00752317880794696	0.313377483443709	2.9353642384106	-5.66490066225166				0.896953642384106	-0.0642119205298013	0.429139072847682	-0.406092715231788	3.38781456953642	-0.585960264900661				0.949827814569536	-0.0812715231788079	-0.15194701986755	-2.79258278145695	4.90649006622517	-8.88026490066225				0.800529801324503	-0.208529801324503	-0.533721854304636	4.16291390728477	-16.8964238410596	1.34437086092715				0.868026490066225	-0.0285033112582781	0.229933774834437	10.8717880794702	-20.3880794701987	6.38251655629139				0.415788079470199	-0.494834437086093	-0.644238410596026	4.22039735099338	5.75761589403974	-4.11470198675497			
130	2600	0.967841059602649	0.00275496688741723	-0.00752317880794696	-3.60662251655629	0.135364238410596	-4.26490066225166				0.912953642384106	-0.0482119205298013	0.429139072847682	2.39390728476821	-0.812185430463576	0.53403973509934				0.965827814569536	-0.0972715231788079	-0.11994701986755	3.64741721854305	7.98649006622517	-8.88026490066225				0.800529801324503	-0.176529801324503	-0.533721854304636	-9.27708609271523	-17.1764238410596	-2.29562913907285				0.932026490066225	0.00349668874172187	0.229933774834437	13.3917880794702	-9.46807947019868	3.02251655629139				0.431788079470199	-0.542834437086093	-0.644238410596026	1.14039735099338	0.997615894039735	-3.83470198675497			
131	2620	0.967841059602649	0.00275496688741723	-0.039523178807947	-5.84662251655629	-3.7846357615894	-0.624900662251656				0.880953642384106	-0.0322119205298013	0.365139072847682	2.11390728476821	-1.65218543046358	-0.0259602649006601				0.981827814569536	-0.0972715231788079	-0.0719470198675496	7.84741721854305	5.18649006622517	-7.76026490066225				0.784529801324503	-0.160529801324503	-0.533721854304636	2.48291390728477	-11.8564238410596	-2.85562913907285				0.948026490066225	-0.0125033112582781	0.229933774834437	8.0717880794702	-0.508079470198675	-0.337483443708608				0.431788079470199	-0.494834437086093	-0.660238410596027	-6.13960264900662	0.997615894039735	-5.51470198675497			
132	2640	0.951841059602649	0.0187549668874172	-0.055523178807947	-0.246622516556291	-2.9446357615894	-0.904900662251656				0.880953642384106	0.0157880794701987	0.397139072847682	4.07390728476821	4.78781456953642	-2.26596026490066				0.965827814569536	-0.0972715231788079	-0.0559470198675496	7.00741721854305	4.34649006622517	-4.96026490066225				0.752529801324503	-0.176529801324503	-0.533721854304636	3.60291390728477	-5.1364238410596	-3.97562913907285				0.964026490066225	0.00349668874172187	0.213933774834437	6.3917880794702	2.01192052980133	-2.85748344370861				0.415788079470199	-0.478834437086093	-0.692238410596026	-4.17960264900662	5.75761589403974	-6.07470198675497			
133	2660	0.999841059602649	0.0667549668874172	-0.087523178807947	-2.20662251655629	-0.704635761589404	-0.904900662251656				0.944953642384106	-0.0162119205298013	0.477139072847682	8.83390728476821	3.94781456953642	-0.30596026490066				0.965827814569536	-0.0652715231788079	-0.0719470198675496	1.96741721854305	1.54649006622517	-3.28026490066225				0.736529801324503	-0.160529801324503	-0.533721854304636	5.00291390728477	-0.3764238410596	-5.09562913907285				0.948026490066225	-0.0125033112582781	0.213933774834437	10.3117880794702	0.331920529801325	-1.17748344370861				0.463788079470199	-0.510834437086093	-0.724238410596026	3.66039735099338	5.75761589403974	-8.31470198675497			
134	2680	1.03184105960265	0.0987549668874172	-0.071523178807947	-5.28662251655629	-2.6646357615894	-2.02490066225166				0.976953642384106	-0.0642119205298013	0.445139072847682	9.11390728476821	-2.77218543046358	1.93403973509934				1.02982781456954	-0.0812715231788079	-0.10394701986755	3.64741721854305	2.66649006622517	-0.48026490066225				0.736529801324503	-0.160529801324503	-0.549721854304636	5.28291390728477	2.4235761589404	-7.33562913907285				0.948026490066225	-0.0125033112582781	0.229933774834437	11.4317880794702	1.45192052980132	0.782516556291392				0.479788079470199	-0.510834437086093	-0.740238410596026	0.0203973509933773	4.91761589403974	-7.47470198675497			
135	2700	0.983841059602649	0.0987549668874172	-0.055523178807947	-5.56662251655629	-8.82463576158941	-0.624900662251656				0.896953642384106	-0.0642119205298013	0.397139072847682	5.47390728476821	-4.45218543046358	1.65403973509934				1.01382781456954	-0.113271523178808	-0.0719470198675496	3.92741721854305	4.90649006622517	0.63973509933775				0.768529801324503	-0.192529801324503	-0.581721854304636	6.40291390728477	3.8235761589404	-6.21562913907285				0.948026490066225	-0.0285033112582781	0.245933774834437	8.0717880794702	3.41192052980132	-0.337483443708608				0.463788079470199	-0.494834437086093	-0.724238410596026	2.54039735099338	0.997615894039735	-5.79470198675497			
136	2720	0.951841059602649	0.0667549668874172	-0.039523178807947	-2.20662251655629	-7.7046357615894	1.05509933774834				0.928953642384106	-0.0482119205298013	0.381139072847682	3.51390728476821	1.98781456953642	-0.30596026490066				0.981827814569536	-0.0972715231788079	-0.0879470198675496	0.00741721854304636	2.94649006622517	2.03973509933775				0.768529801324503	-0.192529801324503	-0.565721854304636	0.802913907284768	3.8235761589404	-4.53562913907285				0.948026490066225	-0.0125033112582781	0.245933774834437	7.7917880794702	0.891920529801325	-0.617483443708608				0.463788079470199	-0.494834437086093	-0.708238410596026	0.300397350993377	0.157615894039735	-4.95470198675497			
137	2740	0.935841059602649	0.0187549668874172	-0.00752317880794696	2.83337748344371	-5.4646357615894	2.17509933774834				0.960953642384106	-0.0482119205298013	0.413139072847682	7.43390728476821	-1.37218543046358	-0.0259602649006601				0.965827814569536	-0.0652715231788079	-0.13594701986755	2.24741721854305	-0.693509933774834	1.47973509933775				0.752529801324503	-0.176529801324503	-0.565721854304636	-3.39708609271523	1.8635761589404	-5.09562913907285				0.964026490066225	-0.0445033112582781	0.213933774834437	3.5917880794702	-0.508079470198675	-1.45748344370861				0.463788079470199	-0.526834437086093	-0.692238410596026	-0.819602649006623	-1.52238410596026	-5.51470198675497			
138	2760	0.935841059602649	0.0187549668874172	-0.023523178807947	3.95337748344371	-3.5046357615894	2.73509933774834				0.912953642384106	-0.0642119205298013	0.397139072847682	7.71390728476821	-4.45218543046358	0.81403973509934				0.949827814569536	-0.0652715231788079	-0.15194701986755	3.36741721854305	0.146490066225167	1.47973509933775				0.752529801324503	-0.176529801324503	-0.565721854304636	-1.43708609271523	1.0235761589404	-3.97562913907285				0.964026490066225	-0.0285033112582781	0.181933774834437	1.0717880794702	2.57192052980133	-0.337483443708608				0.447788079470199	-0.510834437086093	-0.676238410596026	-3.33960264900662	-0.122384105960265	-5.23470198675497			
139	2780	0.967841059602649	0.0667549668874172	0.024476821192053	1.71337748344371	-1.5446357615894	0.495099337748344				0.928953642384106	-0.0642119205298013	0.381139072847682	1.55390728476821	-1.09218543046358	0.53403973509934				0.965827814569536	-0.0652715231788079	-0.15194701986755	-1.11258278145695	2.38649006622517	1.47973509933775				0.768529801324503	-0.208529801324503	-0.581721854304636	2.76291390728477	-0.9364238410596	-1.17562913907285				0.948026490066225	-0.0605033112582781	0.197933774834437	3.3117880794702	4.53192052980133	-0.897483443708608				0.447788079470199	-0.510834437086093	-0.708238410596026	0.580397350993377	3.79761589403974	-6.35470198675497			
140	2800	0.999841059602649	0.0987549668874172	0.024476821192053	1.71337748344371	2.6553642384106	-2.30490066225166				0.944953642384106	-0.0962119205298013	0.397139072847682	-4.32609271523179	0.0278145695364242	0.53403973509934				0.997827814569536	-0.0652715231788079	-0.13594701986755	-4.47258278145695	2.38649006622517	1.19973509933775				0.752529801324503	-0.208529801324503	-0.549721854304636	-2.27708609271523	-0.0964238410596001	-1.45562913907285				0.948026490066225	-0.0285033112582781	0.213933774834437	2.7517880794702	9.57192052980133	-0.617483443708608				0.447788079470199	-0.542834437086093	-0.724238410596026	7.02039735099338	3.23761589403974	-5.23470198675497			
141	2820	0.999841059602649	0.0667549668874172	-0.023523178807947	3.95337748344371	2.9353642384106	-0.0649006622516557				0.912953642384106	-0.112211920529801	0.397139072847682	-4.04609271523179	0.0278145695364242	0.53403973509934				0.997827814569536	-0.0812715231788079	-0.11994701986755	0.00741721854304636	0.426490066225167	0.0797350993377501				0.736529801324503	-0.208529801324503	-0.533721854304636	-4.51708609271523	-0.9364238410596	-0.0556291390728476				0.948026490066225	-0.0445033112582781	0.229933774834437	-2.0082119205298	11.5319205298013	-0.0574834437086077				0.431788079470199	-0.558834437086093	-0.708238410596026	2.82039735099338	-2.08238410596027	0.365298013245032			
142	2840	0.951841059602649	0.0187549668874172	-0.039523178807947	1.43337748344371	4.3353642384106	0.495099337748344				0.928953642384106	-0.0642119205298013	0.397139072847682	-2.08609271523179	2.82781456953642	-0.585960264900661				0.981827814569536	-0.0812715231788079	-0.10394701986755	1.40741721854305	-3.21350993377483	0.0797350993377501				0.736529801324503	-0.192529801324503	-0.549721854304636	-4.23708609271523	0.7435761589404	0.504370860927152				0.964026490066225	-0.0445033112582781	0.245933774834437	-4.2482119205298	15.4519205298013	2.46251655629139				0.431788079470199	-0.510834437086093	-0.692238410596026	-8.93960264900662	-3.48238410596027	4.84529801324503			
143	2860	0.951841059602649	0.00275496688741723	-0.039523178807947	3.39337748344371	4.0553642384106	1.33509933774834				0.896953642384106	-0.0642119205298013	0.381139072847682	-0.126092715231788	0.307814569536424	-0.86596026490066				0.949827814569536	-0.0812715231788079	-0.11994701986755	1.68741721854305	-6.01350993377483	-0.76026490066225				0.752529801324503	-0.192529801324503	-0.533721854304636	-2.55708609271523	4.6635761589404	3.02437086092715				0.932026490066225	-0.0445033112582781	0.229933774834437	-0.888211920529802	8.17192052980133	-1.17748344370861				0.415788079470199	-0.478834437086093	-0.692238410596026	-6.13960264900662	-0.122384105960265	4.28529801324503			
144	2880	0.967841059602649	0.00275496688741723	-0.071523178807947	2.27337748344371	2.9353642384106	-0.344900662251656				0.912953642384106	-0.0802119205298013	0.381139072847682	0.433907284768212	1.14781456953642	-0.585960264900661				0.949827814569536	-0.0812715231788079	-0.11994701986755	1.40741721854305	-6.01350993377483	-0.20026490066225				0.752529801324503	-0.192529801324503	-0.533721854304636	0.242913907284768	8.0235761589404	4.14437086092715				0.948026490066225	-0.0285033112582781	0.245933774834437	-0.888211920529802	3.69192052980133	-0.617483443708608				0.415788079470199	-0.494834437086093	-0.692238410596026	4.78039735099338	1.55761589403974	0.925298013245032			
145	2900	0.967841059602649	-0.0132450331125828	-0.087523178807947	0.593377483443709	0.695364238410596	-0.624900662251656				0.928953642384106	-0.0802119205298013	0.381139072847682	-2.92609271523179	2.26781456953642	-1.70596026490066				0.949827814569536	-0.0972715231788079	-0.11994701986755	1.96741721854305	-3.21350993377483	0.63973509933775				0.768529801324503	-0.176529801324503	-0.549721854304636	2.48291390728477	7.4635761589404	4.70437086092715				0.948026490066225	-0.0285033112582781	0.245933774834437	-3.1282119205298	-2.74807947019868	1.34251655629139				0.431788079470199	-0.542834437086093	-0.708238410596026	4.50039735099338	0.997615894039735	-0.194701986754968			
146	2920	0.967841059602649	0.0187549668874172	0.072476821192053	0.0333774834437086	3.4953642384106	0.495099337748344				0.624953642384106	-0.112211920529801	0.893139072847682	-0.406092715231788	7.02781456953642	3.89403973509934				0.949827814569536	-0.129271523178808	-0.0719470198675496	3.92741721854305	0.706490066225167	0.63973509933775				0.896529801324503	-0.144529801324503	-0.357721854304636	-0.317086092715232	1.5835761589404	-1.17562913907285				0.836026490066225	-0.0285033112582781	0.533933774834437	2.1917880794702	1.17192052980133	3.30251655629139				0.431788079470199	-0.670834437086093	-0.612238410596026	5.34039735099338	-0.402384105960265	0.925298013245032			
147	2940	0.967841059602649	0.0347549668874172	-0.039523178807947	-2.20662251655629	0.975364238410596	0.215099337748344				0.928953642384106	-0.0802119205298013	0.381139072847682	-4.60609271523179	4.22781456953642	-0.0259602649006601				0.965827814569536	-0.0972715231788079	-0.10394701986755	0.00741721854304636	-0.973509933774833	-0.76026490066225				0.800529801324503	-0.192529801324503	-0.533721854304636	-1.99708609271523	7.1835761589404	4.14437086092715				0.932026490066225	-0.0445033112582781	0.245933774834437	-4.2482119205298	-9.18807947019868	4.70251655629139				0.447788079470199	-0.510834437086093	-0.708238410596026	-6.41960264900662	0.997615894039735	5.68529801324503			
148	2960	0	0	0	0	0	0				0	0	0	0	0	0				0	0	0	0	0	0				0.800529801324503	-0.176529801324503	-0.517721854304636	-0.597086092715232	4.9435761589404	4.70437086092715				0.932026490066225	-0.0445033112582781	0.229933774834437	-3.4082119205298	-7.78807947019868	4.98251655629139				0.447788079470199	-0.526834437086093	-0.692238410596026	0.860397350993377	2.11761589403974	5.12529801324503			
149	2980	0.999841059602649	0.0347549668874172	-0.00752317880794696	1.43337748344371	4.3353642384106	-1.18490066225166				0.912953642384106	-0.0962119205298013	0.429139072847682	-6.00609271523179	4.22781456953642	0.25403973509934				0.981827814569536	-0.113271523178808	-0.0879470198675496	0.00741721854304636	1.82649006622517	0.35973509933775				0.784529801324503	-0.160529801324503	-0.517721854304636	-1.15708609271523	3.8235761589404	4.42437086092715				0.932026490066225	-0.0445033112582781	0.245933774834437	-2.5682119205298	-6.10807947019868	3.30251655629139				0.431788079470199	-0.510834437086093	-0.644238410596026	2.54039735099338	2.67761589403974	4.56529801324503			
150	3000	0.983841059602649	0.0187549668874172	-0.039523178807947	-0.246622516556291	0.415364238410596	-0.904900662251656				0.896953642384106	-0.0962119205298013	0.413139072847682	-7.40609271523179	7.58781456953643	-0.30596026490066				0.981827814569536	-0.113271523178808	-0.0879470198675496	-0.832582781456954	1.26649006622517	-0.48026490066225				0.800529801324503	-0.176529801324503	-0.501721854304636	0.522913907284768	3.5435761589404	2.46437086092715				0.932026490066225	-0.0285033112582781	0.245933774834437	-4.5282119205298	-3.30807947019868	2.18251655629139				0.415788079470199	-0.510834437086093	-0.644238410596026	3.94039735099338	4.63761589403974	3.16529801324503			
151	3020	0.967841059602649	-0.0132450331125828	-0.023523178807947	-2.20662251655629	-1.5446357615894	-0.904900662251656				0.896953642384106	-0.0802119205298013	0.461139072847682	-4.88609271523179	8.98781456953643	-0.30596026490066				0.981827814569536	-0.0972715231788079	-0.0719470198675496	-1.39258278145695	0.426490066225167	-0.76026490066225				0.816529801324503	-0.192529801324503	-0.517721854304636	0.802913907284768	8.0235761589404	1.34437086092715				0.932026490066225	-0.0285033112582781	0.229933774834437	-3.6882119205298	-1.34807947019868	1.34251655629139				0.431788079470199	-0.526834437086093	-0.660238410596027	4.50039735099338	4.91761589403974	3.16529801324503			
152	3040	0.967841059602649	0.0187549668874172	0.00847682119205304	-5.00662251655629	-0.144635761589404	-0.344900662251656				0.896953642384106	-0.0802119205298013	0.445139072847682	-2.92609271523179	9.26781456953642	0.25403973509934				0.981827814569536	-0.113271523178808	-0.0719470198675496	0.567417218543046	-0.693509933774834	-0.20026490066225				0.816529801324503	-0.192529801324503	-0.501721854304636	-0.597086092715232	8.3035761589404	-0.0556291390728476				0.932026490066225	-0.0445033112582781	0.261933774834437	-2.0082119205298	0.891920529801325	-0.337483443708608				0.447788079470199	-0.558834437086093	-0.692238410596026	5.06039735099338	2.95761589403974	3.72529801324503			
153	3060	0.967841059602649	0.0187549668874172	0.024476821192053	-1.64662251655629	2.3753642384106	-0.0649006622516557				0.896953642384106	-0.0962119205298013	0.461139072847682	-2.36609271523179	8.42781456953642	2.21403973509934				0.965827814569536	-0.113271523178808	-0.0879470198675496	1.12741721854305	-0.973509933774833	-0.20026490066225				0.800529801324503	-0.160529801324503	-0.501721854304636	-1.99708609271523	6.0635761589404	0.784370860927152				0.932026490066225	-0.0445033112582781	0.261933774834437	-2.2882119205298	1.73192052980133	0.782516556291392				0.431788079470199	-0.558834437086093	-0.676238410596026	1.14039735099338	-0.402384105960265	4.84529801324503			
154	3080	0.967841059602649	0.0347549668874172	0.00847682119205304	-3.32662251655629	2.0953642384106	-0.344900662251656				0.896953642384106	-0.0802119205298013	0.461139072847682	-3.48609271523179	8.14781456953643	1.65403973509934				0.965827814569536	-0.113271523178808	-0.0879470198675496	1.68741721854305	-1.81350993377483	-0.20026490066225				0.816529801324503	-0.160529801324503	-0.501721854304636	-1.15708609271523	3.5435761589404	0.504370860927152				0.932026490066225	-0.0445033112582781	0.261933774834437	-1.4482119205298	4.53192052980133	1.06251655629139				0.431788079470199	-0.526834437086093	-0.660238410596027	-0.539602649006623	-0.682384105960265	4.00529801324503			
155	3100	0.967841059602649	0.0347549668874172	0.00847682119205304	-3.32662251655629	0.135364238410596	-1.46490066225166				0.896953642384106	-0.0962119205298013	0.461139072847682	-3.20609271523179	5.06781456953642	1.65403973509934				0.965827814569536	-0.0972715231788079	-0.0879470198675496	3.08741721854305	-1.53350993377483	-0.20026490066225				0.816529801324503	-0.176529801324503	-0.501721854304636	1.36291390728477	3.8235761589404	-0.615629139072848				0.948026490066225	-0.0445033112582781	0.261933774834437	-0.888211920529802	6.49192052980132	0.782516556291392				0.431788079470199	-0.510834437086093	-0.660238410596027	2.82039735099338	-0.682384105960265	0.645298013245032			
156	3120	0.983841059602649	0.0347549668874172	0.00847682119205304	0.0333774834437086	-0.704635761589404	-1.18490066225166				0.896953642384106	-0.0642119205298013	0.429139072847682	-0.406092715231788	3.94781456953642	1.93403973509934				0.965827814569536	-0.0972715231788079	-0.0879470198675496	4.48741721854305	-0.693509933774834	-0.20026490066225				0.816529801324503	-0.176529801324503	-0.517721854304636	1.36291390728477	4.6635761589404	-0.335629139072848				0.932026490066225	-0.0445033112582781	0.261933774834437	0.511788079470198	3.69192052980133	-0.617483443708608				0.415788079470199	-0.526834437086093	-0.660238410596027	6.18039735099338	0.157615894039735	-2.43470198675497			
157	3140	0.967841059602649	0.0187549668874172	-0.023523178807947	1.71337748344371	-1.8246357615894	-1.46490066225166				0.912953642384106	-0.0802119205298013	0.461139072847682	2.39390728476821	7.02781456953642	2.77403973509934				0.965827814569536	-0.0972715231788079	-0.10394701986755	6.16741721854305	-1.25350993377483	-0.76026490066225				0.816529801324503	-0.144529801324503	-0.501721854304636	-1.99708609271523	5.5035761589404	-1.73562913907285				0.932026490066225	-0.0445033112582781	0.261933774834437	0.791788079470198	1.45192052980132	0.222516556291392				0.415788079470199	-0.542834437086093	-0.676238410596026	1.70039735099338	1.27761589403974	-1.59470198675497			
158	3160	0.983841059602649	0.00275496688741723	-0.023523178807947	0.593377483443709	-1.8246357615894	-0.344900662251656				0.912953642384106	-0.0962119205298013	0.445139072847682	1.83390728476821	6.46781456953642	2.49403973509934				0.965827814569536	-0.0972715231788079	-0.10394701986755	6.44741721854305	-1.53350993377483	-0.20026490066225				0.816529801324503	-0.160529801324503	-0.485721854304636	0.802913907284768	4.9435761589404	-2.01562913907285				0.948026490066225	-0.0445033112582781	0.277933774834437	2.1917880794702	1.17192052980133	-0.897483443708608				0.431788079470199	-0.558834437086093	-0.660238410596027	1.70039735099338	0.997615894039735	-0.194701986754968			
159	3180	0.967841059602649	0.0347549668874172	0.00847682119205304	0.593377483443709	-1.5446357615894	-1.46490066225166				0.896953642384106	-0.0962119205298013	0.429139072847682	1.55390728476821	8.14781456953643	2.77403973509934				0.965827814569536	-0.0972715231788079	-0.10394701986755	7.00741721854305	0.146490066225167	-1.32026490066225				0.848529801324503	-0.160529801324503	-0.485721854304636	4.72291390728477	5.7835761589404	-2.01562913907285				0.948026490066225	-0.0445033112582781	0.261933774834437	2.1917880794702	1.73192052980133	-2.01748344370861				0.447788079470199	-0.558834437086093	-0.676238410596026	1.42039735099338	0.437615894039735	-2.43470198675497			
160	3200	0.967841059602649	0.0187549668874172	0.040476821192053	2.83337748344371	-0.144635761589404	-1.18490066225166				0.896953642384106	-0.0802119205298013	0.461139072847682	0.433907284768212	7.58781456953643	2.49403973509934				0.965827814569536	-0.0972715231788079	-0.0879470198675496	5.32741721854305	1.54649006622517	-1.04026490066225				0.832529801324503	-0.192529801324503	-0.501721854304636	5.28291390728477	3.2635761589404	-2.01562913907285				0.932026490066225	-0.0605033112582781	0.277933774834437	2.4717880794702	-0.508079470198675	-0.897483443708608				0.431788079470199	-0.558834437086093	-0.660238410596027	1.98039735099338	1.27761589403974	-2.99470198675497			
161	3220	0.967841059602649	0.0347549668874172	-0.039523178807947	2.27337748344371	0.415364238410596	-2.30490066225166				0.896953642384106	-0.0962119205298013	0.461139072847682	2.39390728476821	7.58781456953643	3.33403973509934				0.965827814569536	-0.0972715231788079	-0.0879470198675496	5.60741721854305	0.706490066225167	-1.32026490066225				0.816529801324503	-0.176529801324503	-0.501721854304636	-0.877086092715232	0.1835761589404	-3.41562913907285				0.948026490066225	-0.0445033112582781	0.277933774834437	2.7517880794702	-2.46807947019868	-0.897483443708608				0.447788079470199	-0.574834437086093	-0.660238410596027	5.06039735099338	-2.36238410596027	-2.15470198675497			
162	3240	0.967841059602649	0.0347549668874172	-0.055523178807947	1.43337748344371	-1.2646357615894	-2.30490066225166				0.912953642384106	-0.0802119205298013	0.445139072847682	3.23390728476821	5.62781456953642	3.05403973509934				0.965827814569536	-0.0972715231788079	-0.0879470198675496	5.60741721854305	0.426490066225167	-1.60026490066225				0.832529801324503	-0.160529801324503	-0.501721854304636	-0.317086092715232	-0.9364238410596	-2.85562913907285				0.948026490066225	-0.0605033112582781	0.261933774834437	3.3117880794702	-2.74807947019868	-0.337483443708608				0.447788079470199	-0.558834437086093	-0.644238410596026	2.54039735099338	-2.92238410596027	-0.474701986754968			
163	3260	0.967841059602649	0.0187549668874172	-0.055523178807947	1.99337748344371	-3.2246357615894	-2.02490066225166				0.896953642384106	-0.0962119205298013	0.461139072847682	1.83390728476821	6.46781456953642	2.21403973509934				0.965827814569536	-0.0972715231788079	-0.0879470198675496	5.04741721854305	0.426490066225167	-1.04026490066225				0.816529801324503	-0.160529801324503	-0.501721854304636	1.08291390728477	-0.3764238410596	-3.41562913907285				0.932026490066225	-0.0285033112582781	0.245933774834437	2.1917880794702	1.73192052980133	-1.45748344370861				0.447788079470199	-0.542834437086093	-0.644238410596026	0.300397350993377	-1.80238410596026	-1.87470198675497			
164	3280	0.967841059602649	0.0187549668874172	-0.055523178807947	3.39337748344371	-4.3446357615894	-2.02490066225166				0.896953642384106	-0.0962119205298013	0.477139072847682	2.39390728476821	5.34781456953642	1.93403973509934				0.949827814569536	-0.113271523178808	-0.10394701986755	3.92741721854305	-0.413509933774833	-1.32026490066225				0.816529801324503	-0.176529801324503	-0.485721854304636	2.76291390728477	1.3035761589404	-2.85562913907285				0.932026490066225	-0.0445033112582781	0.277933774834437	4.7117880794702	-0.788079470198675	-0.617483443708608				0.447788079470199	-0.542834437086093	-0.644238410596026	2.26039735099338	0.437615894039735	-3.55470198675497			
165	3300	0.967841059602649	0.0187549668874172	-0.039523178807947	2.27337748344371	-2.3846357615894	-1.74490066225166				0.912953642384106	-0.0962119205298013	0.477139072847682	1.55390728476821	4.50781456953642	0.25403973509934				0.965827814569536	-0.0972715231788079	-0.0879470198675496	2.80741721854305	-0.413509933774833	-1.60026490066225				0.816529801324503	-0.176529801324503	-0.485721854304636	2.20291390728477	-0.0964238410596001	-2.29562913907285				0.932026490066225	-0.0445033112582781	0.277933774834437	3.3117880794702	-0.228079470198675	-0.617483443708608				0.463788079470199	-0.558834437086093	-0.644238410596026	4.22039735099338	0.717615894039735	-4.11470198675497			
166	3320	0.967841059602649	0.0347549668874172	0.00847682119205304	0.313377483443709	0.135364238410596	-3.14490066225166				0.912953642384106	-0.112211920529801	0.461139072847682	1.83390728476821	3.38781456953642	1.37403973509934				0.965827814569536	-0.0972715231788079	-0.10394701986755	3.92741721854305	-0.693509933774834	-2.16026490066225				0.800529801324503	-0.160529801324503	-0.517721854304636	3.32291390728477	-0.0964238410596001	-3.41562913907285				0.948026490066225	-0.0285033112582781	0.261933774834437	2.7517880794702	1.45192052980132	-0.897483443708608				0.463788079470199	-0.574834437086093	-0.660238410596027	-0.539602649006623	0.717615894039735	-3.83470198675497			
167	3340	0.967841059602649	0.0507549668874172	0.00847682119205304	0.593377483443709	0.415364238410596	-3.42490066225166				0.880953642384106	-0.0962119205298013	0.461139072847682	0.993907284768212	3.10781456953642	1.37403973509934				0.981827814569536	-0.0972715231788079	-0.0879470198675496	2.24741721854305	-0.133509933774833	-1.88026490066225				0.816529801324503	-0.176529801324503	-0.517721854304636	3.04291390728477	0.4635761589404	-3.69562913907285				0.948026490066225	-0.0285033112582781	0.245933774834437	3.5917880794702	1.45192052980132	0.502516556291392				0.463788079470199	-0.558834437086093	-0.660238410596027	-3.05960264900662	0.437615894039735	-2.99470198675497			
168	3360	0.983841059602649	0.0507549668874172	0.00847682119205304	0.0333774834437086	-1.5446357615894	-1.74490066225166				0.880953642384106	-0.0802119205298013	0.477139072847682	1.83390728476821	4.22781456953642	-0.30596026490066				0.965827814569536	-0.0972715231788079	-0.0879470198675496	-0.272582781456954	-2.65350993377483	-2.72026490066225				0.816529801324503	-0.176529801324503	-0.517721854304636	1.92291390728477	-0.9364238410596	-3.13562913907285				0.932026490066225	-0.0285033112582781	0.277933774834437	4.4317880794702	1.45192052980132	-0.0574834437086077				0.447788079470199	-0.542834437086093	-0.660238410596027	-0.819602649006623	0.437615894039735	-3.55470198675497			
169	3380	0.967841059602649	0.0347549668874172	-0.055523178807947	0.593377483443709	-3.5046357615894	-2.02490066225166				0.896953642384106	-0.0642119205298013	0.493139072847682	3.79390728476821	2.26781456953642	0.81403973509934				0.965827814569536	-0.0972715231788079	-0.0879470198675496	1.12741721854305	-3.21350993377483	-2.44026490066225				0.800529801324503	-0.160529801324503	-0.501721854304636	-0.317086092715232	-2.8964238410596	-1.73562913907285				0.932026490066225	-0.0445033112582781	0.261933774834437	2.4717880794702	-0.228079470198675	0.222516556291392				0.463788079470199	-0.542834437086093	-0.660238410596027	-0.259602649006623	-0.402384105960265	-2.99470198675497			
170	3400	0.967841059602649	0.0347549668874172	-0.023523178807947	0.313377483443709	-2.6646357615894	-1.74490066225166				0.912953642384106	-0.0802119205298013	0.477139072847682	1.55390728476821	2.26781456953642	-0.30596026490066				0.965827814569536	-0.0972715231788079	-0.0879470198675496	3.64741721854305	-4.05350993377483	-2.72026490066225				0.784529801324503	-0.160529801324503	-0.485721854304636	1.08291390728477	-2.8964238410596	-1.45562913907285				0.932026490066225	-0.0285033112582781	0.277933774834437	2.7517880794702	0.331920529801325	0.222516556291392				0.463788079470199	-0.558834437086093	-0.628238410596026	-1.09960264900662	-0.122384105960265	-2.71470198675497			
171	3420	0.967841059602649	0.0347549668874172	0.00847682119205304	1.99337748344371	-0.144635761589404	-2.58490066225166				0.896953642384106	-0.0962119205298013	0.477139072847682	1.55390728476821	0.867814569536424	0.53403973509934				0.965827814569536	-0.0812715231788079	-0.0879470198675496	2.80741721854305	-1.81350993377483	-2.72026490066225				0.816529801324503	-0.192529801324503	-0.517721854304636	1.08291390728477	-0.3764238410596	-2.29562913907285				0.932026490066225	-0.0285033112582781	0.261933774834437	2.4717880794702	2.57192052980133	-0.0574834437086077				0.463788079470199	-0.542834437086093	-0.660238410596027	-1.37960264900662	-0.962384105960265	-2.43470198675497			
172	3440	0.967841059602649	0.0347549668874172	-0.00752317880794696	-0.246622516556291	0.135364238410596	-3.14490066225166				0.896953642384106	-0.0802119205298013	0.477139072847682	1.55390728476821	-0.532185430463576	0.53403973509934				0.965827814569536	-0.0972715231788079	-0.0879470198675496	0.567417218543046	-1.53350993377483	-2.72026490066225				0.800529801324503	-0.176529801324503	-0.517721854304636	1.08291390728477	1.0235761589404	-1.17562913907285				0.932026490066225	-0.0445033112582781	0.245933774834437	1.3517880794702	3.41192052980132	-0.0574834437086077				0.447788079470199	-0.542834437086093	-0.660238410596027	-0.819602649006623	-1.24238410596026	-1.87470198675497			
173	3460	0.983841059602649	0.0507549668874172	-0.039523178807947	-1.92662251655629	-2.1046357615894	-2.58490066225166				0.896953642384106	-0.0802119205298013	0.493139072847682	1.27390728476821	0.587814569536424	-0.0259602649006601				0.965827814569536	-0.0812715231788079	-0.10394701986755	0.00741721854304636	-0.413509933774833	-1.60026490066225				0.784529801324503	-0.160529801324503	-0.517721854304636	-0.877086092715232	0.1835761589404	-0.615629139072848				0.948026490066225	-0.0445033112582781	0.261933774834437	0.511788079470198	5.65192052980133	-0.897483443708608				0.447788079470199	-0.558834437086093	-0.660238410596027	0.860397350993377	-1.52238410596026	-2.43470198675497			
174	3480	0.967841059602649	0.0507549668874172	-0.055523178807947	0.313377483443709	-2.3846357615894	-2.30490066225166				0.896953642384106	-0.0802119205298013	0.477139072847682	1.83390728476821	0.0278145695364242	-0.0259602649006601				0.981827814569536	-0.0812715231788079	-0.0879470198675496	0.287417218543046	0.426490066225167	-1.60026490066225				0.768529801324503	-0.160529801324503	-0.517721854304636	-0.317086092715232	1.5835761589404	-0.335629139072848				0.948026490066225	-0.0445033112582781	0.277933774834437	0.231788079470198	4.25192052980133	-1.73748344370861				0.447788079470199	-0.558834437086093	-0.660238410596027	-1.09960264900662	0.157615894039735	-1.31470198675497			
175	3500	0.951841059602649	0.0347549668874172	-0.039523178807947	1.43337748344371	-2.6646357615894	-2.02490066225166				0.896953642384106	-0.0962119205298013	0.461139072847682	1.27390728476821	-0.252185430463576	-0.86596026490066				0.965827814569536	-0.0812715231788079	-0.0879470198675496	0.287417218543046	-0.413509933774833	-1.32026490066225				0.816529801324503	-0.176529801324503	-0.517721854304636	1.64291390728477	2.4235761589404	0.224370860927152				0.948026490066225	-0.0445033112582781	0.277933774834437	-0.608211920529802	0.611920529801325	-1.45748344370861				0.447788079470199	-0.542834437086093	-0.676238410596026	-1.65960264900662	-0.122384105960265	1.20529801324503			
176	3520	0.967841059602649	0.0347549668874172	-0.00752317880794696	0.313377483443709	-0.424635761589404	-2.86490066225166				0.896953642384106	-0.0962119205298013	0.461139072847682	-1.24609271523179	0.587814569536424	-0.86596026490066				0.981827814569536	-0.0812715231788079	-0.10394701986755	-0.272582781456954	-1.81350993377483	-1.32026490066225				0.832529801324503	-0.192529801324503	-0.533721854304636	3.88291390728477	1.3035761589404	1.06437086092715				0.932026490066225	-0.0285033112582781	0.245933774834437	-2.8482119205298	-1.62807947019868	-0.617483443708608				0.447788079470199	-0.542834437086093	-0.676238410596026	-0.819602649006623	-0.682384105960265	1.48529801324503			
177	3540	0.967841059602649	0.0507549668874172	0.00847682119205304	0.0333774834437086	1.8153642384106	-2.86490066225166				0.880953642384106	-0.0802119205298013	0.477139072847682	-4.32609271523179	1.14781456953642	-1.14596026490066				0.981827814569536	-0.0812715231788079	-0.0879470198675496	-1.95258278145695	-0.133509933774833	-2.16026490066225				0.800529801324503	-0.208529801324503	-0.533721854304636	0.802913907284768	-1.2164238410596	2.74437086092715				0.916026490066225	-0.0285033112582781	0.261933774834437	-1.7282119205298	-0.228079470198675	-0.617483443708608				0.447788079470199	-0.542834437086093	-0.660238410596027	-1.93960264900662	-0.962384105960265	3.16529801324503			
