No	Time	12-AccX	12-AccY	12-AccZ	12-GyroX	12-GyroY	12-GyroZ	13-AccX	13-AccY	13-AccZ	13-GyroX	13-GyroY	13-GyroZ	14-AccX	14-AccY	14-AccZ	14-GyroX	14-GyroY	14-GyroZ	15-AccX	15-AccY	15-AccZ	15-GyroX	15-GyroY	15-GyroZ	16-AccX	16-AccY	16-AccZ	16-GyroX	16-GyroY	16-GyroZ	17-AccX	17-AccY	17-AccZ	17-GyroX	17-GyroY	17-GyroZ
0	0	0	0	0	0	0	0				0	0	0	0	0	0				0	0	0	0	0	0				0.704529801324503	-0.240529801324503	-0.613721854304636	1.64291390728477	-1.7764238410596	1.90437086092715				0.948026490066225	0.0354966887417219	0.181933774834437	0.511788079470198	-2.46807947019868	2.74251655629139				0.575788079470199	-0.190834437086093	-0.724238410596026	-1.37960264900662	0.717615894039735	-0.474701986754968			
1	20	-0.264158940397351	0.114754966887417	-0.935523178807947	-0.246622516556291	-0.424635761589404	-0.904900662251656				0.880953642384106	0.0477880794701987	0.509139072847682	-0.686092715231788	0.587814569536424	2.49403973509934				-0.218172185430464	-0.193271523178808	-0.87194701986755	1.40741721854305	0.986490066225167	-0.48026490066225				0.688529801324503	-0.240529801324503	-0.629721854304636	2.48291390728477	-1.4964238410596	1.34437086092715				0.948026490066225	0.0354966887417219	0.181933774834437	2.4717880794702	-3.30807947019868	2.46251655629139				0.575788079470199	-0.190834437086093	-0.740238410596026	-0.259602649006623	-0.962384105960265	-1.59470198675497			
2	40	-0.264158940397351	0.114754966887417	-0.919523178807947	0.593377483443709	-0.144635761589404	-0.624900662251656				0.880953642384106	0.0477880794701987	0.509139072847682	-1.24609271523179	0.867814569536424	1.65403973509934				-0.202172185430464	-0.193271523178808	-0.87194701986755	0.567417218543046	0.146490066225167	-0.20026490066225				0.688529801324503	-0.240529801324503	-0.645721854304636	2.76291390728477	-0.0964238410596001	0.784370860927152				0.964026490066225	0.0354966887417219	0.181933774834437	0.231788079470198	-0.228079470198675	-0.337483443708608				0.575788079470199	-0.206834437086093	-0.740238410596026	1.14039735099338	-0.682384105960265	-2.99470198675497			
3	60	-0.264158940397351	0.114754966887417	-0.935523178807947	0.313377483443709	-0.984635761589404	-1.18490066225166				0.880953642384106	0.0477880794701987	0.509139072847682	-0.126092715231788	2.54781456953642	1.09403973509934				-0.218172185430464	-0.193271523178808	-0.87194701986755	0.567417218543046	-0.973509933774833	0.0797350993377501				0.688529801324503	-0.256529801324503	-0.645721854304636	2.76291390728477	-0.6564238410596	0.224370860927152				0.948026490066225	0.0354966887417219	0.181933774834437	1.3517880794702	-3.02807947019868	0.782516556291392				0.575788079470199	-0.206834437086093	-0.740238410596026	2.26039735099338	-1.80238410596026	-3.27470198675497			
4	80	-0.280158940397351	0.114754966887417	-0.919523178807947	0.313377483443709	-0.144635761589404	-0.624900662251656				0.880953642384106	0.0477880794701987	0.525139072847682	-0.406092715231788	0.867814569536424	1.65403973509934				-0.218172185430464	-0.193271523178808	-0.87194701986755	1.68741721854305	0.426490066225167	-0.20026490066225				0.688529801324503	-0.240529801324503	-0.645721854304636	2.76291390728477	-1.4964238410596	-0.615629139072848				0.948026490066225	0.0354966887417219	0.181933774834437	-2.0082119205298	-3.02807947019868	-0.0574834437086077				0.575788079470199	-0.222834437086093	-0.724238410596026	0.580397350993377	-2.92238410596027	-1.59470198675497			
5	100	-0.280158940397351	0.114754966887417	-0.935523178807947	0.593377483443709	-0.424635761589404	-0.624900662251656				0.880953642384106	0.0477880794701987	0.525139072847682	-1.52609271523179	1.14781456953642	0.81403973509934				-0.218172185430464	-0.193271523178808	-0.87194701986755	0.847417218543046	-0.133509933774833	-0.48026490066225				0.688529801324503	-0.240529801324503	-0.645721854304636	1.92291390728477	-0.9364238410596	-0.895629139072848				0.964026490066225	0.0354966887417219	0.165933774834437	-1.7282119205298	-1.34807947019868	-0.337483443708608				0.575788079470199	-0.206834437086093	-0.724238410596026	0.0203973509933773	-2.64238410596027	-1.31470198675497			
6	120	-0.280158940397351	0.114754966887417	-0.935523178807947	0.0333774834437086	-0.144635761589404	-0.904900662251656				0.880953642384106	0.0317880794701987	0.525139072847682	-2.64609271523179	0.0278145695364242	0.81403973509934				-0.218172185430464	-0.209271523178808	-0.87194701986755	0.567417218543046	-0.133509933774833	-0.48026490066225				0.688529801324503	-0.240529801324503	-0.629721854304636	-0.597086092715232	-2.0564238410596	-1.17562913907285				0.964026490066225	0.0514966887417219	0.181933774834437	0.511788079470198	-2.18807947019868	0.222516556291392				0.575788079470199	-0.206834437086093	-0.724238410596026	-1.37960264900662	-1.52238410596026	-2.71470198675497			
7	140	-0.280158940397351	0.114754966887417	-0.935523178807947	0.0333774834437086	-0.424635761589404	-0.624900662251656				0.896953642384106	0.0317880794701987	0.525139072847682	-0.406092715231788	0.587814569536424	0.81403973509934				-0.234172185430464	-0.193271523178808	-0.87194701986755	0.00741721854304636	0.706490066225167	-0.48026490066225				0.704529801324503	-0.240529801324503	-0.629721854304636	-0.597086092715232	-1.7764238410596	-0.895629139072848				0.964026490066225	0.0514966887417219	0.181933774834437	0.511788079470198	-1.34807947019868	0.502516556291392				0.591788079470199	-0.206834437086093	-0.756238410596026	-1.37960264900662	0.997615894039735	-2.71470198675497			
8	160	-0.280158940397351	0.114754966887417	-0.935523178807947	0.313377483443709	0.135364238410596	-1.18490066225166				0.880953642384106	0.0477880794701987	0.525139072847682	0.713907284768212	1.42781456953642	0.53403973509934				-0.218172185430464	-0.193271523178808	-0.88794701986755	-0.272582781456954	0.706490066225167	0.0797350993377501				0.672529801324503	-0.240529801324503	-0.629721854304636	1.36291390728477	-1.4964238410596	-1.17562913907285				0.948026490066225	0.0514966887417219	0.165933774834437	-0.0482119205298018	-2.46807947019868	0.222516556291392				0.575788079470199	-0.190834437086093	-0.740238410596026	-2.21960264900662	1.27761589403974	-2.99470198675497			
9	180	-0.280158940397351	0.0987549668874172	-0.919523178807947	0.593377483443709	0.135364238410596	-1.18490066225166				0.880953642384106	0.0477880794701987	0.525139072847682	0.713907284768212	0.307814569536424	1.37403973509934				-0.218172185430464	-0.193271523178808	-0.88794701986755	-0.832582781456954	0.146490066225167	-0.48026490066225				0.688529801324503	-0.224529801324503	-0.629721854304636	2.48291390728477	-1.7764238410596	-0.615629139072848				0.948026490066225	0.0514966887417219	0.165933774834437	1.3517880794702	-2.18807947019868	0.782516556291392				0.559788079470199	-0.174834437086093	-0.756238410596026	-0.539602649006623	1.27761589403974	-2.15470198675497			
10	200	-0.280158940397351	0.114754966887417	-0.935523178807947	0.0333774834437086	1.2553642384106	-1.18490066225166				0.864953642384106	0.0477880794701987	0.509139072847682	0.153907284768212	-0.252185430463576	0.81403973509934				-0.218172185430464	-0.209271523178808	-0.87194701986755	-0.832582781456954	-0.133509933774833	-0.48026490066225				0.672529801324503	-0.240529801324503	-0.629721854304636	1.64291390728477	-2.3364238410596	-2.01562913907285				0.948026490066225	0.0514966887417219	0.165933774834437	2.1917880794702	-1.90807947019868	1.06251655629139				0.575788079470199	-0.190834437086093	-0.756238410596026	0.0203973509933773	-0.402384105960265	-1.59470198675497			
11	220	-0.280158940397351	0.114754966887417	-0.935523178807947	0.313377483443709	0.135364238410596	-0.624900662251656				0.880953642384106	0.0477880794701987	0.509139072847682	0.153907284768212	-1.37218543046358	-0.30596026490066				-0.218172185430464	-0.177271523178808	-0.87194701986755	-0.272582781456954	-0.133509933774833	0.0797350993377501				0.672529801324503	-0.240529801324503	-0.645721854304636	2.20291390728477	-4.2964238410596	-2.29562913907285				0.948026490066225	0.0514966887417219	0.165933774834437	2.4717880794702	-1.06807947019868	0.502516556291392				0.575788079470199	-0.190834437086093	-0.756238410596026	1.70039735099338	-1.52238410596026	-2.15470198675497			
12	240	-0.264158940397351	0.114754966887417	-0.935523178807947	0.593377483443709	-0.144635761589404	-0.624900662251656				0.896953642384106	0.0477880794701987	0.493139072847682	2.11390728476821	-1.37218543046358	-0.0259602649006601				-0.218172185430464	-0.177271523178808	-0.87194701986755	0.567417218543046	-0.133509933774833	0.91973509933775				0.672529801324503	-0.256529801324503	-0.629721854304636	1.64291390728477	-5.4164238410596	-2.01562913907285				0.948026490066225	0.0354966887417219	0.165933774834437	2.1917880794702	-2.46807947019868	0.782516556291392				0.575788079470199	-0.190834437086093	-0.756238410596026	1.70039735099338	-3.20238410596026	-1.59470198675497			
13	260	-0.280158940397351	0.114754966887417	-0.919523178807947	-0.246622516556291	-0.144635761589404	-0.344900662251656				0.880953642384106	0.0477880794701987	0.509139072847682	1.83390728476821	-0.252185430463576	0.53403973509934				-0.218172185430464	-0.193271523178808	-0.87194701986755	1.12741721854305	-1.25350993377483	-0.20026490066225				0.672529801324503	-0.240529801324503	-0.661721854304636	-0.0370860927152318	-5.9764238410596	-3.13562913907285				0.948026490066225	0.0514966887417219	0.149933774834437	1.6317880794702	-2.18807947019868	0.782516556291392				0.559788079470199	-0.174834437086093	-0.740238410596026	1.70039735099338	-3.76238410596027	-1.03470198675497			
14	280	-0.264158940397351	0.0987549668874172	-0.935523178807947	0.873377483443709	-0.424635761589404	-0.624900662251656				0.864953642384106	0.0477880794701987	0.509139072847682	0.433907284768212	0.867814569536424	-0.0259602649006601				-0.218172185430464	-0.193271523178808	-0.87194701986755	0.567417218543046	-0.973509933774833	0.0797350993377501				0.672529801324503	-0.240529801324503	-0.645721854304636	-0.317086092715232	-5.9764238410596	-3.13562913907285				0.948026490066225	0.0354966887417219	0.165933774834437	1.3517880794702	-1.06807947019868	-0.337483443708608				0.559788079470199	-0.190834437086093	-0.740238410596026	3.66039735099338	-3.20238410596026	-0.754701986754968			
15	300	-0.280158940397351	0.0987549668874172	-0.919523178807947	0.0333774834437086	-0.704635761589404	-0.624900662251656				0.880953642384106	0.0637880794701987	0.509139072847682	-0.126092715231788	1.42781456953642	0.25403973509934				-0.218172185430464	-0.193271523178808	-0.87194701986755	1.12741721854305	0.706490066225167	-0.20026490066225				0.656529801324503	-0.224529801324503	-0.661721854304636	1.36291390728477	-4.0164238410596	-3.41562913907285				0.932026490066225	0.0514966887417219	0.149933774834437	1.0717880794702	-2.74807947019868	0.222516556291392				0.559788079470199	-0.190834437086093	-0.740238410596026	2.54039735099338	-1.80238410596026	-0.194701986754968			
16	320	-0.280158940397351	0.114754966887417	-0.935523178807947	-0.246622516556291	-0.144635761589404	-0.904900662251656				0.880953642384106	0.0637880794701987	0.493139072847682	1.83390728476821	1.70781456953642	2.21403973509934				-0.234172185430464	-0.193271523178808	-0.87194701986755	0.287417218543046	0.426490066225167	0.0797350993377501				0.640529801324503	-0.224529801324503	-0.645721854304636	0.242913907284768	-3.7364238410596	-3.41562913907285				0.932026490066225	0.0514966887417219	0.149933774834437	0.231788079470198	-0.228079470198675	-0.0574834437086077				0.543788079470199	-0.190834437086093	-0.740238410596026	2.54039735099338	-0.402384105960265	0.925298013245032			
17	340	-0.264158940397351	0.114754966887417	-0.919523178807947	0.593377483443709	-0.984635761589404	-0.0649006622516557				0.880953642384106	0.0637880794701987	0.477139072847682	4.91390728476821	1.42781456953642	2.77403973509934				-0.186172185430464	-0.193271523178808	-0.90394701986755	2.24741721854305	-0.133509933774833	0.0797350993377501				0.640529801324503	-0.240529801324503	-0.661721854304636	1.36291390728477	-4.0164238410596	-4.53562913907285				0.948026490066225	0.0514966887417219	0.133933774834437	0.791788079470198	0.611920529801325	0.222516556291392				0.543788079470199	-0.174834437086093	-0.740238410596026	0.300397350993377	2.11761589403974	-0.194701986754968			
18	360	-0.264158940397351	0.114754966887417	-0.935523178807947	0.313377483443709	-1.8246357615894	0.775099337748344				0.864953642384106	0.0317880794701987	0.493139072847682	2.39390728476821	0.587814569536424	1.09403973509934				-0.202172185430464	-0.177271523178808	-0.85594701986755	4.48741721854305	-1.25350993377483	-0.20026490066225				0.640529801324503	-0.240529801324503	-0.677721854304636	-0.597086092715232	-4.8564238410596	-3.97562913907285				0.948026490066225	0.0514966887417219	0.133933774834437	1.0717880794702	0.611920529801325	0.222516556291392				0.543788079470199	-0.190834437086093	-0.756238410596026	1.98039735099338	1.55761589403974	-0.474701986754968			
19	380	-0.280158940397351	0.114754966887417	-0.919523178807947	0.0333774834437086	-1.5446357615894	0.775099337748344				0.864953642384106	0.0317880794701987	0.509139072847682	-1.52609271523179	2.26781456953642	-0.30596026490066				-0.218172185430464	-0.193271523178808	-0.87194701986755	3.36741721854305	-1.25350993377483	-0.20026490066225				0.624529801324503	-0.256529801324503	-0.693721854304636	-2.55708609271523	-5.1364238410596	-4.53562913907285				0.948026490066225	0.0514966887417219	0.117933774834437	-1.7282119205298	0.0519205298013249	-0.0574834437086077				0.559788079470199	-0.206834437086093	-0.772238410596026	-0.259602649006623	3.79761589403974	0.925298013245032			
20	400	-0.264158940397351	0.0987549668874172	-0.935523178807947	0.873377483443709	-0.704635761589404	0.775099337748344				0.880953642384106	0.0317880794701987	0.525139072847682	-3.20609271523179	8.42781456953642	1.37403973509934				-0.234172185430464	-0.209271523178808	-0.90394701986755	1.68741721854305	0.706490066225167	-0.48026490066225				0.640529801324503	-0.240529801324503	-0.677721854304636	-0.877086092715232	-12.1364238410596	-6.77562913907285				0.932026490066225	0.0354966887417219	0.117933774834437	-0.608211920529802	1.73192052980133	-0.617483443708608				0.527788079470199	-0.190834437086093	-0.740238410596026	-5.85960264900662	5.75761589403974	6.52529801324503			
21	420	-0.280158940397351	0.0987549668874172	-0.919523178807947	0.313377483443709	-0.704635761589404	0.495099337748344				0.880953642384106	0.0477880794701987	0.509139072847682	-5.16609271523179	10.3878145695364	1.65403973509934				-0.218172185430464	-0.209271523178808	-0.87194701986755	1.68741721854305	-1.53350993377483	-2.16026490066225				0.624529801324503	-0.224529801324503	-0.773721854304636	-8.15708609271523	-16.8964238410596	-8.73562913907285				0.932026490066225	0.0514966887417219	0.149933774834437	0.511788079470198	6.77192052980133	-0.0574834437086077				0.527788079470199	-0.174834437086093	-0.772238410596026	-12.0196026490066	12.7576158940397	11.285298013245			
22	440	-0.280158940397351	0.114754966887417	-0.919523178807947	-1.08662251655629	-0.984635761589404	-0.344900662251656				0.880953642384106	0.0317880794701987	0.493139072847682	-3.76609271523179	9.26781456953642	1.65403973509934				-0.234172185430464	-0.193271523178808	-0.85594701986755	2.24741721854305	-0.973509933774833	-1.88026490066225				0.672529801324503	-0.256529801324503	-0.741721854304636	-16.2770860927152	-18.0164238410596	-9.85562913907285				0.948026490066225	0.0514966887417219	0.133933774834437	-1.7282119205298	7.33192052980133	-0.0574834437086077				0.527788079470199	-0.190834437086093	-0.772238410596026	-4.73960264900662	13.0376158940397	12.405298013245			
23	460	-0.296158940397351	0.114754966887417	-0.935523178807947	-1.08662251655629	-0.984635761589404	-0.0649006622516557				0.896953642384106	0.0637880794701987	0.493139072847682	-1.80609271523179	8.98781456953643	1.93403973509934				-0.250172185430464	-0.193271523178808	-0.87194701986755	1.12741721854305	-0.133509933774833	-1.60026490066225				0.672529801324503	-0.256529801324503	-0.741721854304636	-16.5570860927152	-21.6564238410596	-14.3356291390729				0.964026490066225	0.0354966887417219	0.117933774834437	-1.4482119205298	7.61192052980133	-1.17748344370861				0.543788079470199	-0.206834437086093	-0.756238410596026	2.54039735099338	8.55761589403974	14.645298013245			
24	480	-0.296158940397351	0.114754966887417	-0.919523178807947	-1.36662251655629	-0.424635761589404	0.495099337748344				0.896953642384106	0.0477880794701987	0.509139072847682	-1.52609271523179	9.54781456953642	2.49403973509934				-0.234172185430464	-0.193271523178808	-0.85594701986755	1.96741721854305	0.706490066225167	-0.20026490066225				0.640529801324503	-0.224529801324503	-0.741721854304636	-26.0770860927152	-22.7764238410596	-14.6156291390728				0.964026490066225	0.0514966887417219	0.117933774834437	-1.1682119205298	6.49192052980132	-2.01748344370861				0.543788079470199	-0.222834437086093	-0.756238410596026	1.70039735099338	8.27761589403974	17.445298013245			
25	500	-0.296158940397351	0.114754966887417	-0.935523178807947	-1.36662251655629	0.415364238410596	-0.624900662251656				0.896953642384106	0.0317880794701987	0.493139072847682	-2.36609271523179	13.1878145695364	3.05403973509934				-0.234172185430464	-0.209271523178808	-0.87194701986755	3.36741721854305	1.54649006622517	0.63973509933775				0.624529801324503	-0.208529801324503	-0.741721854304636	-26.9170860927152	-24.1764238410596	-15.7356291390728				0.964026490066225	0.0354966887417219	0.117933774834437	0.231788079470198	6.49192052980132	-0.617483443708608				0.543788079470199	-0.206834437086093	-0.788238410596027	-1.37960264900662	10.7976158940397	20.245298013245			
26	520	-0.296158940397351	0.114754966887417	-0.935523178807947	-2.48662251655629	0.975364238410596	-0.624900662251656				0.880953642384106	0.0157880794701987	0.509139072847682	-6.56609271523179	16.2678145695364	2.49403973509934				-0.250172185430464	-0.209271523178808	-0.88794701986755	0.287417218543046	0.426490066225167	0.91973509933775				0.640529801324503	-0.240529801324503	-0.725721854304636	-31.3970860927152	-30.0564238410596	-14.0556291390728				0.964026490066225	0.0194966887417219	0.133933774834437	2.4717880794702	9.01192052980133	-0.897483443708608				0.543788079470199	-0.190834437086093	-0.788238410596027	0.300397350993377	15.5576158940397	20.245298013245			
27	540	-0.280158940397351	0.114754966887417	-0.935523178807947	-2.20662251655629	1.5353642384106	-0.0649006622516557				0.864953642384106	0.0157880794701987	0.541139072847682	-8.80609271523179	16.2678145695364	0.81403973509934				-0.202172185430464	-0.209271523178808	-0.85594701986755	0.287417218543046	1.26649006622517	0.0797350993377501				0.592529801324503	-0.224529801324503	-0.725721854304636	-29.1570860927152	-23.8964238410596	-10.6956291390728				0.980026490066225	0.0194966887417219	0.133933774834437	2.4717880794702	10.9719205298013	-1.45748344370861				0.543788079470199	-0.206834437086093	-0.788238410596027	5.06039735099338	15.5576158940397	21.365298013245			
28	560	-0.280158940397351	0.114754966887417	-0.935523178807947	-2.76662251655629	1.8153642384106	-0.904900662251656				0.864953642384106	0.0317880794701987	0.557139072847682	-10.4860927152318	17.9478145695364	1.37403973509934				-0.234172185430464	-0.193271523178808	-0.88794701986755	-1.39258278145695	1.82649006622517	0.0797350993377501				0.576529801324503	-0.224529801324503	-0.725721854304636	-22.1570860927152	-15.4964238410596	-9.85562913907285				0.964026490066225	0.0354966887417219	0.117933774834437	2.1917880794702	10.6919205298013	-1.45748344370861				0.575788079470199	-0.238834437086093	-0.772238410596026	12.9003973509934	11.6376158940397	24.445298013245			
29	580	-0.280158940397351	0.114754966887417	-0.951523178807947	-2.76662251655629	1.8153642384106	-1.74490066225166				0.848953642384106	0.0317880794701987	0.557139072847682	-7.40609271523179	18.7878145695364	1.93403973509934				-0.218172185430464	-0.193271523178808	-0.88794701986755	3.08741721854305	2.38649006622517	-1.04026490066225				0.560529801324503	-0.192529801324503	-0.709721854304636	-18.2370860927152	-11.2964238410596	-6.21562913907285				0.964026490066225	0.0194966887417219	0.149933774834437	3.0317880794702	12.6519205298013	-1.17748344370861				0.591788079470199	-0.254834437086093	-0.772238410596026	13.7403973509934	9.39761589403974	29.765298013245			
30	600	-0.280158940397351	0.114754966887417	-0.935523178807947	-2.20662251655629	1.5353642384106	-0.344900662251656				0.848953642384106	0.0317880794701987	0.525139072847682	-8.24609271523179	21.0278145695364	0.81403973509934				-0.202172185430464	-0.209271523178808	-0.87194701986755	3.36741721854305	2.66649006622517	-2.16026490066225				0.560529801324503	-0.160529801324503	-0.709721854304636	-14.8770860927152	-10.4564238410596	-5.37562913907285				0.932026490066225	0.0194966887417219	0.181933774834437	4.1517880794702	13.7719205298013	-0.337483443708608				0.575788079470199	-0.286834437086093	-0.756238410596026	5.90039735099338	13.0376158940397	33.405298013245			
31	620	-0.264158940397351	0.114754966887417	-0.935523178807947	-1.64662251655629	2.0953642384106	-0.624900662251656				0.848953642384106	0.0157880794701987	0.525139072847682	-7.96609271523179	21.3078145695364	0.25403973509934				-0.202172185430464	-0.209271523178808	-0.87194701986755	1.40741721854305	1.82649006622517	-3.00026490066225				0.624529801324503	-0.208529801324503	-0.741721854304636	-12.3570860927152	-13.8164238410596	-3.97562913907285				0.932026490066225	0.0354966887417219	0.149933774834437	-1.7282119205298	14.3319205298013	-0.897483443708608				0.575788079470199	-0.254834437086093	-0.740238410596026	-3.05960264900662	18.6376158940397	37.325298013245			
32	640	-0.248158940397351	0.114754966887417	-0.919523178807947	-1.64662251655629	1.8153642384106	0.215099337748344				0.800953642384106	0.0317880794701987	0.573139072847682	-7.40609271523179	23.8278145695364	-0.0259602649006601				-0.186172185430464	-0.209271523178808	-0.83994701986755	3.64741721854305	2.10649006622517	-3.28026490066225				0.640529801324503	-0.192529801324503	-0.757721854304636	-15.1570860927152	-15.2164238410596	-0.895629139072848				0.932026490066225	0.0354966887417219	0.197933774834437	-4.8082119205298	18.8119205298013	-2.01748344370861				0.575788079470199	-0.270834437086093	-0.740238410596026	10.1003973509934	6.87761589403974	38.445298013245			
33	660	-0.264158940397351	0.114754966887417	-0.919523178807947	-1.64662251655629	-0.144635761589404	1.33509933774834				0.800953642384106	0.0477880794701987	0.557139072847682	-7.96609271523179	24.3878145695364	-0.86596026490066				-0.218172185430464	-0.193271523178808	-0.85594701986755	1.68741721854305	2.10649006622517	-1.60026490066225				0.624529801324503	-0.176529801324503	-0.773721854304636	-23.8370860927152	-17.7364238410596	-3.69562913907285				0.900026490066225	0.0354966887417219	0.181933774834437	-3.6882119205298	15.7319205298013	-2.57748344370861				0.575788079470199	-0.302834437086093	-0.708238410596026	16.5403973509934	1.83761589403974	41.805298013245			
34	680	-0.280158940397351	0.0987549668874172	-0.919523178807947	-2.20662251655629	0.135364238410596	1.05509933774834				0.800953642384106	0.0317880794701987	0.557139072847682	-7.96609271523179	30.2678145695364	0.53403973509934				-0.218172185430464	-0.209271523178808	-0.85594701986755	-0.552582781456954	0.426490066225167	0.63973509933775				0.592529801324503	-0.128529801324503	-0.741721854304636	-31.1170860927152	-21.0964238410596	-7.89562913907285				0.900026490066225	0.0354966887417219	0.181933774834437	-1.4482119205298	17.4119205298013	-2.85748344370861				0.543788079470199	-0.334834437086093	-0.692238410596026	17.1003973509934	-0.122384105960265	46.845298013245			
35	700	-0.280158940397351	0.114754966887417	-0.919523178807947	-2.48662251655629	-0.144635761589404	0.775099337748344				0.832953642384106	0.0317880794701987	0.573139072847682	-7.68609271523179	33.6278145695364	-0.30596026490066				-0.234172185430464	-0.225271523178808	-0.87194701986755	1.96741721854305	-2.37350993377483	1.75973509933775				0.640529801324503	-0.112529801324503	-0.741721854304636	-31.3970860927152	-26.1364238410596	-10.4156291390728				0.916026490066225	0.0354966887417219	0.229933774834437	3.0317880794702	20.2119205298013	-3.13748344370861				0.511788079470199	-0.334834437086093	-0.660238410596027	8.14039735099338	0.437615894039735	50.485298013245			
36	720	-0.280158940397351	0.0987549668874172	-0.935523178807947	-3.04662251655629	0.135364238410596	0.495099337748344				0.848953642384106	0.0317880794701987	0.589139072847682	-8.24609271523179	34.1878145695364	-1.14596026490066				-0.218172185430464	-0.225271523178808	-0.85594701986755	1.96741721854305	-1.25350993377483	2.03973509933775				0.656529801324503	-0.112529801324503	-0.725721854304636	-28.8770860927152	-27.5364238410596	-10.4156291390728				0.948026490066225	0.0674966887417219	0.245933774834437	2.1917880794702	18.8119205298013	-4.53748344370861				0.527788079470199	-0.302834437086093	-0.676238410596026	-2.77960264900662	4.63761589403974	51.045298013245			
37	740	-0.280158940397351	0.114754966887417	-0.919523178807947	-4.16662251655629	-0.144635761589404	0.775099337748344				0.832953642384106	0.0317880794701987	0.637139072847682	-6.84609271523179	29.4278145695364	0.25403973509934				-0.234172185430464	-0.209271523178808	-0.87194701986755	-1.39258278145695	-0.693509933774834	2.59973509933775				0.608529801324503	-0.112529801324503	-0.741721854304636	-27.1970860927152	-21.6564238410596	-12.3756291390728				0.964026490066225	0.0674966887417219	0.245933774834437	0.791788079470198	16.0119205298013	-4.81748344370861				0.543788079470199	-0.302834437086093	-0.676238410596026	5.06039735099338	4.35761589403974	48.525298013245			
38	760	-0.280158940397351	0.114754966887417	-0.919523178807947	-4.72662251655629	0.135364238410596	1.33509933774834				0.816953642384106	0.0157880794701987	0.637139072847682	-4.88609271523179	21.5878145695364	2.49403973509934				-0.234172185430464	-0.193271523178808	-0.87194701986755	-4.19258278145695	0.426490066225167	2.87973509933775				0.576529801324503	-0.0805298013245033	-0.709721854304636	-24.9570860927152	-12.9764238410596	-12.0956291390728				0.964026490066225	0.0514966887417219	0.245933774834437	3.8717880794702	15.7319205298013	-6.21748344370861				0.559788079470199	-0.302834437086093	-0.644238410596026	6.18039735099338	4.91761589403974	42.645298013245			
39	780	-0.296158940397351	0.114754966887417	-0.919523178807947	-5.84662251655629	0.695364238410596	1.05509933774834				0.848953642384106	0.0317880794701987	0.605139072847682	-5.16609271523179	16.5478145695364	1.93403973509934				-0.250172185430464	-0.177271523178808	-0.87194701986755	-1.95258278145695	0.426490066225167	3.15973509933775				0.592529801324503	-0.112529801324503	-0.725721854304636	-25.2370860927152	-10.1764238410596	-11.2556291390728				0.964026490066225	0.0514966887417219	0.245933774834437	4.9917880794702	15.4519205298013	-7.05748344370861				0.527788079470199	-0.302834437086093	-0.676238410596026	7.02039735099338	10.5176158940397	35.365298013245			
40	800	-0.296158940397351	0.114754966887417	-0.935523178807947	-6.68662251655629	1.8153642384106	1.89509933774834				0.864953642384106	0.0797880794701987	0.573139072847682	-1.80609271523179	10.3878145695364	3.33403973509934				-0.266172185430464	-0.177271523178808	-0.88794701986755	1.68741721854305	2.94649006622517	2.59973509933775				0.560529801324503	-0.0965298013245033	-0.709721854304636	-23.2770860927152	-3.1764238410596	-7.33562913907285				0.964026490066225	0.0674966887417219	0.245933774834437	4.1517880794702	14.6119205298013	-7.05748344370861				0.543788079470199	-0.302834437086093	-0.708238410596026	2.82039735099338	16.1176158940397	29.765298013245			
41	820	-0.296158940397351	0.130754966887417	-0.919523178807947	-6.96662251655629	2.3753642384106	2.45509933774835				0.864953642384106	0.0957880794701987	0.589139072847682	3.79390728476821	2.82781456953642	5.29403973509934				-0.250172185430464	-0.177271523178808	-0.87194701986755	5.60741721854305	-0.973509933774833	1.75973509933775				0.464529801324503	-0.0645298013245033	-0.725721854304636	-12.6370860927152	2.7035761589404	-3.13562913907285				0.964026490066225	0.0674966887417219	0.229933774834437	4.7117880794702	15.4519205298013	-5.93748344370861				0.559788079470199	-0.302834437086093	-0.708238410596026	4.22039735099338	18.6376158940397	26.685298013245			
42	840	-0.296158940397351	0.130754966887417	-0.903523178807947	-8.36662251655629	2.3753642384106	4.69509933774834				0.848953642384106	0.0797880794701987	0.605139072847682	12.1939072847682	-7.25218543046358	8.65403973509934				-0.282172185430464	-0.161271523178808	-0.85594701986755	4.20741721854305	1.82649006622517	2.59973509933775				0.464529801324503	-0.0165298013245033	-0.773721854304636	-4.23708609271523	10.2635761589404	-1.17562913907285				0.948026490066225	0.0674966887417219	0.261933774834437	5.5517880794702	14.3319205298013	-4.81748344370861				0.559788079470199	-0.318834437086093	-0.708238410596026	6.74039735099338	19.1976158940397	21.085298013245			
43	860	-0.312158940397351	0.146754966887417	-0.919523178807947	-9.76662251655629	1.5353642384106	5.81509933774834				0.832953642384106	0.0157880794701987	0.557139072847682	16.6739072847682	-13.1321854304636	8.93403973509934				-0.282172185430464	-0.177271523178808	-0.83994701986755	6.44741721854305	2.10649006622517	3.15973509933775				0.512529801324503	-0.0325298013245033	-0.757721854304636	1.64291390728477	14.7435761589404	0.504370860927152				0.948026490066225	0.0834966887417219	0.181933774834437	3.5917880794702	10.9719205298013	-3.97748344370861				0.543788079470199	-0.350834437086093	-0.708238410596026	7.02039735099338	17.5176158940397	19.125298013245			
44	880	-0.296158940397351	0.130754966887417	-0.919523178807947	-12.5666225165563	2.0953642384106	6.09509933774834				0.880953642384106	-0.0162119205298013	0.605139072847682	21.1539072847682	-8.37218543046358	10.6140397350993				-0.298172185430464	-0.177271523178808	-0.87194701986755	4.48741721854305	-0.133509933774833	0.91973509933775				0.512529801324503	-0.0805298013245033	-0.773721854304636	4.44291390728477	18.3835761589404	-0.335629139072848				0.948026490066225	0.0834966887417219	0.213933774834437	3.0317880794702	12.9319205298013	-3.97748344370861				0.543788079470199	-0.334834437086093	-0.724238410596026	-7.25960264900662	20.8776158940397	24.445298013245			
45	900	-0.296158940397351	0.146754966887417	-0.919523178807947	-13.1266225165563	2.9353642384106	6.37509933774834				0.864953642384106	0.0477880794701987	0.541139072847682	23.6739072847682	-6.41218543046358	10.6140397350993				-0.234172185430464	-0.161271523178808	-0.90394701986755	7.00741721854305	-4.05350993377483	0.63973509933775				0.464529801324503	-0.0645298013245033	-0.773721854304636	3.04291390728477	25.3835761589404	-0.335629139072848				0.948026490066225	0.0834966887417219	0.197933774834437	2.4717880794702	13.4919205298013	-4.53748344370861				0.527788079470199	-0.334834437086093	-0.740238410596026	1.42039735099338	16.3976158940397	24.445298013245			
46	920	-0.296158940397351	0.130754966887417	-0.919523178807947	-14.2466225165563	4.0553642384106	6.93509933774835				0.848953642384106	-0.0162119205298013	0.525139072847682	22.5539072847682	-19.0121854304636	12.2940397350993				-0.250172185430464	-0.161271523178808	-0.90394701986755	15.407417218543	5.18649006622517	-2.44026490066225				0.480529801324503	-0.0485298013245033	-0.741721854304636	4.44291390728477	24.8235761589404	1.90437086092715				0.948026490066225	0.0514966887417219	0.165933774834437	2.4717880794702	14.3319205298013	-2.29748344370861				0.543788079470199	-0.334834437086093	-0.740238410596026	6.46039735099338	13.5976158940397	25.565298013245			
47	940	-0.280158940397351	0.130754966887417	-0.903523178807947	-17.0466225165563	3.2153642384106	6.09509933774834				0.800953642384106	-0.0482119205298013	0.541139072847682	10.7939072847682	-17.3321854304636	6.69403973509934				-0.234172185430464	-0.225271523178808	-0.87194701986755	20.1674172185431	1.54649006622517	-3.84026490066225				0.560529801324503	-0.0965298013245033	-0.773721854304636	12.5629139072848	25.1035761589404	1.62437086092715				0.932026490066225	0.0834966887417219	0.133933774834437	2.7517880794702	16.5719205298013	-0.617483443708608				0.479788079470199	-0.334834437086093	-0.756238410596026	6.74039735099338	19.4776158940397	26.405298013245			
48	960	-0.280158940397351	0.114754966887417	-0.903523178807947	-20.9666225165563	-0.144635761589404	5.25509933774834				0.800953642384106	0.0157880794701987	0.573139072847682	7.99390728476821	-6.69218543046358	7.53403973509934				-0.234172185430464	-0.241271523178808	-0.83994701986755	18.2074172185431	1.54649006622517	-6.92026490066225				0	0	0	0	0	0				0	0	0	0	0	0				0	0	0	0	0	0			
49	980	-0.280158940397351	0.162754966887417	-0.935523178807947	-22.3666225165563	0.695364238410596	8.05509933774835				0.800953642384106	0.0797880794701987	0.509139072847682	1.55390728476821	-1.37218543046358	3.33403973509934				-0.234172185430464	-0.193271523178808	-0.87194701986755	14.007417218543	-2.37350993377483	-8.88026490066225				0.496529801324503	-0.0965298013245033	-0.821721854304636	7.24291390728477	20.6235761589404	-3.13562913907285				0.948026490066225	0.0674966887417219	0.165933774834437	4.1517880794702	12.6519205298013	-2.57748344370861				0.415788079470199	-0.334834437086093	-0.708238410596026	15.9803973509934	2.11761589403974	25.285298013245			
50	1000	-0.296158940397351	0.162754966887417	-0.951523178807947	-25.4466225165563	0.695364238410596	12.2550993377483				0.864953642384106	0.0637880794701987	0.477139072847682	-0.126092715231788	10.3878145695364	7.81403973509934				-0.266172185430464	-0.177271523178808	-0.87194701986755	20.727417218543	0.986490066225167	-7.48026490066225				0.480529801324503	-0.112529801324503	-0.869721854304636	11.4429139072848	19.5035761589404	-9.29562913907285				0.932026490066225	0.0674966887417219	0.117933774834437	8.0717880794702	13.4919205298013	-3.41748344370861				0.415788079470199	-0.366834437086093	-0.740238410596026	4.50039735099338	1.55761589403974	24.445298013245			
51	1020	-0.296158940397351	0.146754966887417	-0.903523178807947	-23.2066225165563	2.3753642384106	14.2150993377483				0.880953642384106	0.0477880794701987	0.477139072847682	3.51390728476821	9.54781456953642	8.37403973509934				-0.266172185430464	-0.257271523178808	-0.88794701986755	21.8474172185431	1.26649006622517	-8.32026490066225				0.560529801324503	-0.192529801324503	-0.885721854304636	14.5229139072848	21.1835761589404	-11.5356291390728				0.948026490066225	0.0674966887417219	0.149933774834437	6.9517880794702	17.6919205298013	-6.49748344370861				0.431788079470199	-0.334834437086093	-0.804238410596027	-11.7396026490066	10.2376158940397	26.405298013245			
52	1040	-0.296158940397351	0.162754966887417	-0.919523178807947	-21.2466225165563	3.4953642384106	16.1750993377483				0.864953642384106	0.127788079470199	0.541139072847682	11.0739072847682	9.54781456953642	10.3340397350993				-0.282172185430464	-0.225271523178808	-0.82394701986755	28.8474172185431	0.426490066225167	-4.12026490066225				0.560529801324503	-0.192529801324503	-0.853721854304636	-3.11708609271523	23.7035761589404	-13.2156291390728				0.980026490066225	0.0674966887417219	0.0859337748344371	4.9917880794702	18.5319205298013	-8.45748344370861				0.431788079470199	-0.302834437086093	-0.772238410596026	-14.5396026490066	16.9576158940397	28.925298013245			
53	1060	-0.312158940397351	0.210754966887417	-0.903523178807947	-20.6866225165563	0.135364238410596	24.0150993377483				0.864953642384106	0.0317880794701987	0.621139072847682	14.4339072847682	10.1078145695364	12.5740397350993				-0.330172185430464	-0.193271523178808	-0.82394701986755	22.407417218543	5.74649006622517	-6.36026490066225				0.576529801324503	-0.160529801324503	-0.805721854304636	-22.1570860927152	15.0235761589404	-9.01562913907285				0.964026490066225	0.131496688741722	0.133933774834437	10.0317880794702	22.1719205298013	-9.85748344370861				0.431788079470199	-0.254834437086093	-0.756238410596026	-12.0196026490066	22.2776158940397	28.645298013245			
54	1080	-0.392158940397351	0.274754966887417	-1.01552317880795	-30.7666225165563	1.8153642384106	29.8950993377483				0.848953642384106	0.127788079470199	0.605139072847682	7.15390728476821	30.2678145695364	14.5340397350993				-0.314172185430464	-0.225271523178808	-0.80794701986755	29.9674172185431	3.50649006622517	-3.56026490066225				0.592529801324503	-0.128529801324503	-0.805721854304636	-17.9570860927152	24.2635761589404	-8.17562913907285				0.932026490066225	0.179496688741722	0.165933774834437	11.9917880794702	21.6119205298013	-11.5374834437086				0.415788079470199	-0.222834437086093	-0.772238410596026	-0.539602649006623	34.8776158940397	30.605298013245			
55	1100	-0.392158940397351	0.306754966887417	-1.14352317880795	-32.1666225165563	9.9353642384106	32.6950993377484				0.880953642384106	0.0477880794701987	0.573139072847682	1.83390728476821	22.1478145695364	17.6140397350993				-0.346172185430464	-0.305271523178808	-0.83994701986755	28.567417218543	18.9064900662252	-5.52026490066225				0.624529801324503	-0.128529801324503	-0.805721854304636	-6.75708609271523	35.1835761589404	-6.21562913907285				0.932026490066225	0.147496688741722	0.197933774834437	21.2317880794702	27.4919205298013	-12.6574834437086				0.415788079470199	-0.254834437086093	-0.772238410596026	22.4203973509934	33.7576158940397	28.365298013245			
56	1120	-0.360158940397351	0.274754966887417	-0.967523178807947	-47.8466225165563	22.8153642384106	38.0150993377484				0.880953642384106	0.0797880794701987	0.589139072847682	9.95390728476821	47.0678145695364	22.3740397350993				-0.314172185430464	-0.337271523178808	-0.91994701986755	14.847417218543	42.9864900662252	-15.0402649006623				0.704529801324503	-0.112529801324503	-0.805721854304636	3.04291390728477	44.7035761589404	-4.81562913907285				0.964026490066225	0.147496688741722	0.245933774834437	27.1117880794702	31.9719205298013	-14.3374834437086				0.463788079470199	-0.302834437086093	-0.724238410596026	30.8203973509934	31.5176158940397	19.405298013245			
57	1140	-0.296158940397351	0.226754966887417	-0.759523178807947	-50.0866225165563	24.7753642384106	30.1750993377483				0.912953642384106	0.0797880794701987	0.669139072847682	17.5139072847682	38.6678145695364	23.4940397350993				-0.282172185430464	-0.353271523178808	-1.01594701986755	19.607417218543	34.8664900662252	-9.44026490066225				0.768529801324503	-0.0805298013245033	-0.821721854304636	-1.71708609271523	41.6235761589404	-7.61562913907285				1.01202649006623	0.115496688741722	0.293933774834437	31.5917880794702	34.2119205298013	-16.2974834437086				0.543788079470199	-0.318834437086093	-0.756238410596026	18.2203973509934	38.5176158940397	17.725298013245			
58	1160	-0.408158940397351	0.306754966887417	-1.07952317880795	-49.2466225165563	33.7353642384106	31.5750993377483				0.848953642384106	0.0317880794701987	0.797139072847682	4.07390728476821	49.5878145695364	20.9740397350993				-0.282172185430464	-0.289271523178808	-1.01594701986755	33.607417218543	25.9064900662252	0.0797350993377501				0.864529801324503	-0.0645298013245033	-0.821721854304636	-3.39708609271523	36.8635761589404	-10.9756291390728				1.02802649006623	0.163496688741722	0.357933774834437	34.9517880794702	34.4919205298013	-17.6974834437086				0.607788079470199	-0.334834437086093	-0.740238410596026	20.1803973509934	36.5576158940397	10.165298013245			
59	1180	-0.328158940397351	0.386754966887417	-0.935523178807947	-33.8466225165563	33.4553642384106	33.5350993377483				0.928953642384106	-0.0322119205298013	0.925139072847682	-1.80609271523179	61.6278145695364	19.2940397350993				-0.202172185430464	-0.369271523178808	-1.01594701986755	46.2074172185431	16.1064900662252	1.19973509933775				0.864529801324503	-0.0325298013245033	-0.853721854304636	-2.55708609271523	32.9435761589404	-18.2556291390728				1.01202649006623	0.179496688741722	0.469933774834437	46.4317880794702	37.8519205298013	-19.6574834437086				0.591788079470199	-0.414834437086093	-0.724238410596026	18.5003973509934	39.0776158940397	-1.31470198675497			
60	1200	-0.296158940397351	0.418754966887417	-1.03152317880795	-24.0466225165563	40.4553642384106	32.4150993377484				0.976953642384106	-0.0482119205298013	0.925139072847682	13.0339072847682	60.7878145695364	24.8940397350993				-0.266172185430464	-0.417271523178808	-0.88794701986755	36.1274172185431	23.6664900662252	0.63973509933775				0.896529801324503	-0.0805298013245033	-0.853721854304636	-5.35708609271523	27.9035761589404	-23.2956291390729				1.04402649006623	0.195496688741722	0.485933774834437	48.9517880794702	47.6519205298013	-23.2974834437086				0.687788079470199	-0.478834437086093	-0.692238410596026	10.1003973509934	41.8776158940397	-2.43470198675497			
61	1220	-0.296158940397351	0.338754966887417	-0.967523178807947	-16.7666225165563	41.2953642384106	32.6950993377484				0.928953642384106	-0.0642119205298013	1.06913907284768	23.6739072847682	40.0678145695364	24.3340397350993				-0.250172185430464	-0.433271523178808	-0.96794701986755	7.28741721854305	44.3864900662252	-7.20026490066225				1.0085298013245	-0.0805298013245033	-0.805721854304636	-17.3970860927152	28.1835761589404	-26.3756291390728				1.10802649006623	0.179496688741722	0.549933774834437	51.4717880794702	54.6519205298013	-25.5374834437086				0.799788079470199	-0.526834437086093	-0.708238410596026	15.9803973509934	48.3176158940397	-9.15470198675497			
62	1240	-0.344158940397351	0.434754966887417	-0.951523178807947	-7.24662251655629	48.5753642384106	32.4150993377484				0.896953642384106	-0.0962119205298013	0.941139072847682	11.9139072847682	29.1478145695364	16.7740397350993				-0.234172185430464	-0.385271523178808	-0.88794701986755	-9.23258278145695	55.3064900662252	-6.64026490066225				1.0085298013245	-0.000529801324503289	-0.741721854304636	-16.2770860927152	25.6635761589404	-21.6156291390729				1.10802649006623	0.195496688741722	0.613933774834437	50.6317880794702	48.7719205298013	-24.1374834437086				0.895788079470199	-0.606834437086093	-0.612238410596026	21.5803973509934	52.2376158940397	-14.754701986755			
63	1260	-0.376158940397351	0.434754966887417	-0.903523178807947	0.593377483443709	60.8953642384106	29.8950993377483				0.960953642384106	-0.0642119205298013	0.941139072847682	6.59390728476821	47.3478145695364	12.0140397350993				-0.250172185430464	-0.449271523178808	-0.87194701986755	-11.752582781457	63.1464900662252	-4.12026490066225				0.960529801324503	0.111470198675497	-0.725721854304636	6.40291390728477	28.4635761589404	-17.4156291390728				1.09202649006623	0.227496688741722	0.629933774834437	44.7517880794702	38.6919205298013	-23.5774834437086				0.991788079470199	-0.734834437086093	-0.580238410596026	28.3003973509934	49.7176158940397	-24.554701986755			
64	1280	-0.328158940397351	0.402754966887417	-0.823523178807947	8.71337748344371	65.3753642384106	28.2150993377483				1.00895364238411	0.0317880794701987	0.941139072847682	17.5139072847682	25.7878145695364	15.3740397350993				-0.250172185430464	-0.433271523178808	-0.80794701986755	-15.112582781457	69.5864900662252	-1.32026490066225				0.896529801324503	0.0314701986754967	-0.741721854304636	20.1229139072848	22.0235761589404	-21.3356291390729				1.07602649006623	0.259496688741722	0.661933774834437	38.8717880794702	31.6919205298013	-22.1774834437086				1.0397880794702	-0.814834437086093	-0.612238410596026	36.1403973509934	34.5976158940397	-26.514701986755			
65	1300	-0.328158940397351	0.402754966887417	-0.887523178807947	20.4733774834437	67.3353642384106	26.5350993377483				1.02495364238411	-0.0802119205298013	0.861139072847682	30.3939072847682	-12.5721854304636	15.3740397350993				-0.250172185430464	-0.337271523178808	-0.80794701986755	-25.752582781457	70.4264900662252	3.15973509933775				0.912529801324503	0.0314701986754967	-0.741721854304636	6.96291390728477	5.2235761589404	-28.3356291390729				1.10802649006623	0.243496688741722	0.661933774834437	30.7517880794702	29.7319205298013	-18.2574834437086				1.0557880794702	-0.942834437086093	-0.580238410596026	49.0203973509934	24.5176158940397	-22.874701986755			
66	1320	-0.264158940397351	0.354754966887417	-0.871523178807947	28.8733774834437	72.6553642384106	22.6150993377483				0.928953642384106	-0.0642119205298013	0.797139072847682	32.6339072847682	-29.0921854304636	5.01403973509934				-0.186172185430464	-0.289271523178808	-0.85594701986755	-25.192582781457	74.9064900662252	6.23973509933775				1.0085298013245	0.0634701986754967	-0.709721854304636	-4.79708609271523	-10.7364238410596	-29.7356291390729				1.14002649006623	0.195496688741722	0.629933774834437	23.1917880794702	21.3319205298013	-16.5774834437086				0.975788079470199	-1.00683443708609	-0.548238410596027	32.2203973509934	19.1976158940397	-6.35470198675497			
67	1340	-0.200158940397351	0.322754966887417	-0.871523178807947	32.2333774834437	77.9753642384106	19.2550993377483				0.864953642384106	-0.000211920529801304	0.733139072847682	22.8339072847682	-23.7721854304636	0.53403973509934				-0.0901721854304636	-0.241271523178808	-0.88794701986755	-22.392582781457	81.0664900662252	6.51973509933775				1.0245298013245	0.0954701986754967	-0.693721854304636	12.0029139072848	-12.4164238410596	-27.7756291390729				1.10802649006623	0.259496688741722	0.613933774834437	8.9117880794702	0.891920529801325	-14.3374834437086				0.927788079470199	-0.878834437086093	-0.564238410596026	8.98039735099338	15.8376158940397	13.525298013245			
68	1360	-0.072158940397351	0.370754966887417	-0.919523178807947	34.7533774834437	80.7753642384106	17.5750993377483				0.896953642384106	0.0317880794701987	0.813139072847682	20.3139072847682	-9.21218543046358	-2.54596026490066				-0.0421721854304636	-0.225271523178808	-0.96794701986755	-12.312582781457	84.7064900662252	6.79973509933775				0.992529801324503	0.0474701986754967	-0.645721854304636	25.4429139072848	-9.0564238410596	-27.7756291390729				1.01202649006623	0.355496688741722	0.597933774834437	4.1517880794702	-18.7080794701987	-8.73748344370861				0.863788079470199	-0.702834437086093	-0.580238410596026	-1.37960264900662	9.39761589403974	26.685298013245			
69	1380	0.087841059602649	0.322754966887417	-0.919523178807947	43.4333774834437	82.7353642384106	15.0550993377483				0.912953642384106	0.0477880794701987	0.877139072847682	27.8739072847682	-20.1321854304636	-3.38596026490066				0.0858278145695364	-0.257271523178808	-0.93594701986755	-13.432582781457	88.6264900662252	4.27973509933775				0.848529801324503	-0.000529801324503289	-0.613721854304636	27.4029139072848	-12.1364238410596	-26.6556291390729				0.964026490066225	0.371496688741722	0.533933774834437	13.3917880794702	-17.0280794701987	-5.37748344370861				0.831788079470199	-0.574834437086093	-0.580238410596026	-1.65960264900662	4.63761589403974	27.525298013245			
70	1400	0.135841059602649	0.258754966887417	-0.983523178807947	45.3933774834437	83.8553642384106	16.7350993377483				0.896953642384106	0.0797880794701987	0.941139072847682	27.3139072847682	-31.6121854304636	0.81403973509934				0.165827814569536	-0.241271523178808	-0.88794701986755	-9.51258278145695	88.3464900662252	-2.16026490066225				0.944529801324503	0.127470198675497	-0.661721854304636	25.1629139072848	-14.9364238410596	-21.6156291390729				0.980026490066225	0.355496688741722	0.517933774834437	22.6317880794702	-7.50807947019868	-5.65748344370861				0.815788079470199	-0.510834437086093	-0.628238410596026	3.38039735099338	-0.962384105960265	20.805298013245			
71	1420	0.183841059602649	0.226754966887417	-0.983523178807947	46.5133774834437	85.5353642384106	17.5750993377483				0.880953642384106	0.0477880794701987	0.813139072847682	29.5539072847682	-31.3321854304636	0.25403973509934				0.229827814569536	-0.209271523178808	-0.93594701986755	-6.71258278145695	88.9064900662252	-6.92026490066225				1.0245298013245	0.0634701986754967	-0.725721854304636	30.2029139072848	-19.4164238410596	-14.8956291390728				0.996026490066225	0.371496688741722	0.517933774834437	24.0317880794702	-10.0280794701987	-2.57748344370861				0.831788079470199	-0.542834437086093	-0.596238410596026	8.42039735099338	-10.4823841059603	12.405298013245			
72	1440	0.247841059602649	0.274754966887417	-0.967523178807947	41.7533774834437	93.6553642384106	15.6150993377483				0.800953642384106	0.0957880794701987	0.829139072847682	34.8739072847682	-22.9321854304636	-5.90596026490066				0.277827814569536	-0.193271523178808	-0.93594701986755	-3.63258278145695	95.0664900662252	-10.8402649006623				0.928529801324503	-0.0325298013245033	-0.773721854304636	23.7629139072848	-25.0164238410596	-14.0556291390728				0.980026490066225	0.371496688741722	0.501933774834437	25.7117880794702	-17.8680794701987	-0.897483443708608				0.847788079470199	-0.558834437086093	-0.580238410596026	-7.81960264900662	-12.4423841059603	8.76529801324503			
73	1460	0.375841059602649	0.194754966887417	-0.983523178807947	46.2333774834437	94.7753642384106	17.2950993377483				0.800953642384106	0.127788079470199	0.781139072847682	32.9139072847682	-11.1721854304636	-0.86596026490066				0.325827814569536	-0.209271523178808	-0.91994701986755	3.36741721854305	98.1464900662252	-15.6002649006622				0.736529801324503	0.0154701986754967	-0.789721854304636	17.0429139072848	-24.1764238410596	-16.2956291390729				0.948026490066225	0.371496688741722	0.437933774834437	33.5517880794702	-19.5480794701987	-1.17748344370861				0.767788079470199	-0.574834437086093	-0.548238410596027	-20.1396026490066	-16.0823841059603	5.68529801324503			
74	1480	0.375841059602649	0.226754966887417	-0.935523178807947	41.4733774834437	95.8953642384106	18.1350993377483				0.816953642384106	0.0797880794701987	0.829139072847682	28.4339072847682	6.46781456953642	-0.86596026490066				0.357827814569536	-0.209271523178808	-0.90394701986755	4.20741721854305	99.5464900662252	-18.9602649006623				0.608529801324503	0.0634701986754967	-0.773721854304636	17.3229139072848	-22.7764238410596	-18.5356291390728				0.900026490066225	0.339496688741722	0.469933774834437	35.7917880794702	-11.9880794701987	-3.13748344370861				0.719788079470199	-0.606834437086093	-0.500238410596026	-21.8196026490066	-17.7623841059603	-0.194701986754968			
75	1500	0.359841059602649	0.242754966887417	-0.919523178807947	47.9133774834437	99.8153642384106	16.4550993377483				0.864953642384106	0.0797880794701987	0.989139072847682	27.8739072847682	15.9878145695364	-2.26596026490066				0.405827814569536	-0.257271523178808	-0.87194701986755	3.08741721854305	102.066490066225	-20.0802649006623				0.592529801324503	0.0474701986754967	-0.709721854304636	20.1229139072848	-24.1764238410596	-16.5756291390728				0.900026490066225	0.307496688741722	0.405933774834437	22.6317880794702	-10.0280794701987	-4.81748344370861				0.751788079470199	-0.622834437086093	-0.516238410596026	-26.5796026490066	-20.2823841059603	-1.59470198675497			
76	1520	0.391841059602649	0.226754966887417	-0.903523178807947	56.0333774834437	102.335364238411	14.2150993377483				0.864953642384106	0.0637880794701987	0.957139072847682	19.7539072847682	-6.13218543046358	1.09403973509934				0.469827814569536	-0.289271523178808	-0.85594701986755	6.72741721854305	103.466490066225	-24.0002649006623				0.656529801324503	0.111470198675497	-0.693721854304636	18.1629139072848	-23.3364238410596	-13.4956291390728				0.900026490066225	0.323496688741722	0.453933774834437	14.5117880794702	-1.90807947019868	-5.65748344370861				0.783788079470199	-0.622834437086093	-0.532238410596027	-35.5396026490066	-20.8423841059603	8.48529801324503			
77	1540	0.439841059602649	0.178754966887417	-0.935523178807947	56.3133774834437	105.695364238411	12.8150993377483				0.800953642384106	0.0477880794701987	0.797139072847682	15.5539072847682	-13.6921854304636	-0.585960264900661				0.501827814569536	-0.273271523178808	-0.82394701986755	7.28741721854305	105.986490066225	-26.2402649006623				0.784529801324503	0.143470198675497	-0.741721854304636	22.9229139072848	-14.3764238410596	-11.2556291390728				0.948026490066225	0.339496688741722	0.549933774834437	8.0717880794702	0.611920529801325	-4.81748344370861				0.783788079470199	-0.622834437086093	-0.500238410596026	-41.4196026490066	-18.0423841059603	18.845298013245			
78	1560	0.439841059602649	0.0827549668874172	-0.919523178807947	48.7533774834437	105.135364238411	12.8150993377483				0.848953642384106	0.0157880794701987	0.797139072847682	15.2739072847682	-10.6121854304636	-0.30596026490066				0.485827814569536	-0.289271523178808	-0.79194701986755	7.28741721854305	104.026490066225	-25.9602649006623				0.832529801324503	0.0634701986754967	-0.773721854304636	18.4429139072848	-9.6164238410596	-7.33562913907285				0.996026490066225	0.371496688741722	0.549933774834437	3.0317880794702	-5.54807947019868	-1.73748344370861				0.863788079470199	-0.654834437086093	-0.500238410596026	-21.5396026490066	-18.0423841059603	19.125298013245			
79	1580	0.439841059602649	0.0507549668874172	-0.903523178807947	45.3933774834437	103.455364238411	10.8550993377483				0.816953642384106	-0.000211920529801304	0.797139072847682	7.71390728476821	-6.69218543046358	-0.30596026490066				0.485827814569536	-0.305271523178808	-0.77594701986755	7.28741721854305	105.986490066225	-24.0002649006623				0.768529801324503	-0.000529801324503289	-0.741721854304636	6.68291390728477	-12.6964238410596	2.46437086092715				0.932026490066225	0.371496688741722	0.549933774834437	0.511788079470198	-11.7080794701987	1.06251655629139				0.975788079470199	-0.654834437086093	-0.532238410596027	-21.5396026490066	-27.5623841059603	19.685298013245			
80	1600	0.439841059602649	0.0827549668874172	-0.855523178807947	43.9933774834437	106.255364238411	8.05509933774835				0.784953642384106	0.0157880794701987	0.829139072847682	-6.00609271523179	1.14781456953642	-1.14596026490066				0.517827814569536	-0.321271523178808	-0.74394701986755	2.24741721854305	107.946490066225	-24.2802649006623				0.720529801324503	0.0634701986754967	-0.725721854304636	6.40291390728477	-9.3364238410596	8.62437086092715				0.900026490066225	0.307496688741722	0.565933774834437	1.0717880794702	-3.58807947019868	6.10251655629139				0.927788079470199	-0.638834437086093	-0.580238410596026	-1.37960264900662	-22.8023841059603	18.005298013245			
81	1620	0.471841059602649	0.0347549668874172	-0.855523178807947	42.8733774834437	109.335364238411	6.65509933774834				0.864953642384106	-0.000211920529801304	0.957139072847682	-13.8460927152318	-3.05218543046358	0.25403973509934				0.549827814569536	-0.321271523178808	-0.75994701986755	3.64741721854305	112.986490066225	-23.7202649006623				0.704529801324503	0.0634701986754967	-0.725721854304636	6.68291390728477	-4.8564238410596	11.7043708609272				0.932026490066225	0.307496688741722	0.565933774834437	-6.7682119205298	1.73192052980133	9.46251655629139				0.767788079470199	-0.638834437086093	-0.548238410596027	9.54039735099338	-12.7223841059603	12.405298013245			
82	1640	0.503841059602649	-0.0132450331125828	-0.791523178807947	44.5533774834437	111.575364238411	6.37509933774834				0.832953642384106	0.0477880794701987	0.861139072847682	-12.7260927152318	-9.21218543046358	-1.98596026490066				0.549827814569536	-0.337271523178808	-0.77594701986755	10.647417218543	119.146490066225	-27.0802649006623				0.672529801324503	0.0474701986754967	-0.741721854304636	2.20291390728477	-0.6564238410596	14.7843708609272				0.900026490066225	0.291496688741722	0.549933774834437	-14.3282119205298	0.891920529801325	10.5825165562914				0.735788079470199	-0.718834437086093	-0.532238410596027	22.7003973509934	-12.1623841059603	4.00529801324503			
83	1660	0.599841059602649	-0.0932450331125828	-0.743523178807947	35.0333774834437	114.935364238411	7.77509933774834				0.752953642384106	0.0797880794701987	0.797139072847682	-9.08609271523179	-12.2921854304636	-5.06596026490066				0.629827814569536	-0.337271523178808	-0.64794701986755	-5.87258278145695	124.186490066225	-30.7202649006623				0.704529801324503	-0.000529801324503289	-0.677721854304636	-5.35708609271523	2.7035761589404	20.9443708609272				0.884026490066225	0.291496688741722	0.549933774834437	-21.8882119205298	3.97192052980133	11.7025165562914				0.783788079470199	-0.782834437086093	-0.516238410596026	16.2603973509934	-18.6023841059603	0.925298013245032			
84	1680	0.727841059602649	-0.109245033112583	-0.679523178807947	27.4733774834437	115.775364238411	7.49509933774834				0.768953642384106	0.0637880794701987	0.813139072847682	-5.72609271523179	-16.7721854304636	-5.06596026490066				0.693827814569536	-0.289271523178808	-0.53594701986755	-3.35258278145695	120.266490066225	-28.7602649006623				0.752529801324503	0.0154701986754967	-0.613721854304636	-3.39708609271523	4.9435761589404	26.8243708609272				0.884026490066225	0.307496688741722	0.517933774834437	-29.7282119205298	5.09192052980133	13.1025165562914				0.767788079470199	-0.718834437086093	-0.532238410596027	-8.09960264900662	-25.0423841059603	10.165298013245			
85	1700	0.823841059602649	-0.109245033112583	-0.615523178807947	16.8333774834437	117.455364238411	7.21509933774835				0.768953642384106	0.0637880794701987	0.685139072847682	-8.52609271523179	-29.0921854304636	-4.22596026490066				0.773827814569536	-0.241271523178808	-0.61594701986755	-20.712582781457	114.106490066225	-22.0402649006623				0.768529801324503	0.0314701986754967	-0.597721854304636	4.16291390728477	14.1835761589404	28.7843708609272				0.852026490066225	0.291496688741722	0.469933774834437	-30.2882119205298	1.45192052980132	15.0625165562914				0.655788079470199	-0.590834437086093	-0.532238410596027	0.300397350993377	-29.2423841059603	19.125298013245			
86	1720	0.839841059602649	-0.0932450331125828	-0.583523178807947	14.8733774834437	120.535364238411	4.69509933774834				0.736953642384106	0.0317880794701987	0.637139072847682	-7.96609271523179	-24.3321854304636	-0.585960264900661				0.773827814569536	-0.193271523178808	-0.47194701986755	-4.19258278145695	117.466490066225	-20.6402649006623				0.752529801324503	0.0154701986754967	-0.565721854304636	2.20291390728477	15.8635761589404	29.6243708609272				0.804026490066225	0.275496688741722	0.437933774834437	-30.2882119205298	0.611920529801325	17.0225165562914				0.591788079470199	-0.510834437086093	-0.500238410596026	0.300397350993377	-32.8823841059603	21.085298013245			
87	1740	0.775841059602649	-0.0132450331125828	-0.503523178807947	8.43337748344371	122.775364238411	-0.344900662251656				0.672953642384106	0.0317880794701987	0.653139072847682	-4.88609271523179	-23.2121854304636	3.61403973509934				0.789827814569536	-0.225271523178808	-0.47194701986755	5.04741721854305	113.826490066225	-18.4002649006623				0.752529801324503	-0.0165298013245033	-0.581721854304636	-3.39708609271523	9.1435761589404	34.3843708609272				0.772026490066225	0.275496688741722	0.421933774834437	-28.8882119205298	1.45192052980132	17.8625165562914				0.527788079470199	-0.462834437086093	-0.500238410596026	-4.17960264900662	-32.3223841059603	17.725298013245			
88	1760	0.743841059602649	0.0187549668874172	-0.503523178807947	5.07337748344371	127.535364238411	-2.58490066225166				0.704953642384106	0.0637880794701987	0.605139072847682	-0.686092715231788	-27.1321854304636	10.6140397350993				0.773827814569536	-0.289271523178808	-0.45594701986755	15.687417218543	111.306490066225	-19.2402649006623				0.720529801324503	-0.0485298013245033	-0.597721854304636	-11.7970860927152	6.9035761589404	38.8643708609272				0.756026490066225	0.259496688741722	0.421933774834437	-22.4482119205298	2.57192052980133	19.2625165562914				0.479788079470199	-0.430834437086093	-0.484238410596026	-2.21960264900662	-28.1223841059603	11.565298013245			
89	1780	0.743841059602649	0.00275496688741723	-0.439523178807947	13.7533774834437	134.255364238411	-9.30490066225166				0.720953642384106	0.0637880794701987	0.573139072847682	6.03390728476821	-28.8121854304636	12.5740397350993				0.757827814569536	-0.273271523178808	-0.37594701986755	19.607417218543	114.386490066225	-22.8802649006623				0.672529801324503	-0.0485298013245033	-0.565721854304636	-8.43708609271523	12.5035761589404	38.5843708609272				0.756026490066225	0.211496688741722	0.421933774834437	-15.4482119205298	8.45192052980133	17.5825165562914				0.447788079470199	-0.430834437086093	-0.436238410596026	0.580397350993377	-24.2023841059603	5.96529801324503			
90	1800	0.775841059602649	0.0347549668874172	-0.455523178807947	24.6733774834437	135.375364238411	-14.9049006622517				0.656953642384106	-0.000211920529801304	0.541139072847682	4.35390728476821	-35.5321854304636	13.6940397350993				0.725827814569536	-0.241271523178808	-0.35994701986755	15.407417218543	117.746490066225	-27.3602649006623				0.672529801324503	-0.0645298013245033	-0.533721854304636	-2.83708609271523	11.6635761589404	36.0643708609272				0.708026490066225	0.179496688741722	0.389933774834437	-17.6882119205298	2.57192052980133	16.1825165562914				0.447788079470199	-0.462834437086093	-0.420238410596026	1.98039735099338	-21.9623841059603	0.0852980132450323			
91	1820	0.807841059602649	0.00275496688741723	-0.359523178807947	25.2333774834437	135.095364238411	-18.2649006622517				0.624953642384106	-0.0162119205298013	0.461139072847682	-4.04609271523179	-32.7321854304636	17.0540397350993				0.677827814569536	-0.225271523178808	-0.29594701986755	9.52741721854305	119.706490066225	-26.8002649006623				0.656529801324503	-0.0965298013245033	-0.485721854304636	-6.75708609271523	3.5435761589404	33.2643708609272				0.692026490066225	0.163496688741722	0.373933774834437	-17.4082119205298	-1.62807947019868	15.6225165562914				0.447788079470199	-0.430834437086093	-0.388238410596026	4.78039735099338	-18.3223841059603	-4.11470198675497			
92	1840	0.775841059602649	-0.0132450331125828	-0.375523178807947	28.5933774834437	139.855364238411	-19.1049006622517				0.624953642384106	0.0317880794701987	0.493139072847682	-4.60609271523179	-22.0921854304636	13.6940397350993				0.757827814569536	-0.161271523178808	-0.27994701986755	8.68741721854305	122.506490066225	-21.2002649006623				0.656529801324503	-0.0165298013245033	-0.453721854304636	-12.6370860927152	-1.4964238410596	31.0243708609272				0.644026490066225	0.131496688741722	0.373933774834437	-15.4482119205298	-3.30807947019868	14.5025165562914				0.399788079470199	-0.414834437086093	-0.372238410596026	9.54039735099338	-18.0423841059603	-3.55470198675497			
93	1860	0.791841059602649	-0.109245033112583	-0.343523178807947	27.4733774834437	144.895364238411	-18.8249006622517				0.592953642384106	0.0157880794701987	0.541139072847682	-2.92609271523179	-21.8121854304636	13.4140397350993				0.821827814569536	-0.161271523178808	-0.26394701986755	5.88741721854305	121.106490066225	-15.6002649006622				0.624529801324503	-0.000529801324503289	-0.405721854304636	-8.43708609271523	-5.1364238410596	32.4243708609272				0.628026490066225	0.147496688741722	0.421933774834437	-11.2482119205298	-6.10807947019868	15.0625165562914				0.319788079470199	-0.398834437086093	-0.340238410596026	15.1403973509934	-15.5223841059603	-2.71470198675497			
94	1880	0.679841059602649	-0.109245033112583	-0.311523178807947	35.3133774834437	143.215364238411	-15.4649006622517				0.560953642384106	-0.0162119205298013	0.493139072847682	-3.76609271523179	-29.0921854304636	15.9340397350993				0.837827814569536	-0.161271523178808	-0.24794701986755	19.8874172185431	122.226490066225	-17.0002649006623				0.608529801324503	-0.0325298013245033	-0.389721854304636	-0.597086092715232	0.4635761589404	29.0643708609272				0.612026490066225	0.179496688741722	0.389933774834437	-9.8482119205298	-15.0680794701987	16.1825165562914				0.303788079470199	-0.398834437086093	-0.324238410596026	9.54039735099338	-7.40238410596027	-2.71470198675497			
95	1900	0.631841059602649	-0.0292450331125828	-0.279523178807947	37.8333774834437	136.775364238411	-14.3449006622517				0.592953642384106	0.0317880794701987	0.509139072847682	-17.4860927152318	-27.4121854304636	12.8540397350993				0.789827814569536	-0.145271523178808	-0.19994701986755	22.407417218543	117.466490066225	-18.4002649006623				0.592529801324503	-0.0645298013245033	-0.389721854304636	6.40291390728477	6.3435761589404	27.6643708609272				0.612026490066225	0.131496688741722	0.325933774834437	-5.0882119205298	-16.7480794701987	15.6225165562914				0.335788079470199	-0.398834437086093	-0.324238410596026	7.86039735099338	3.23761589403974	-6.07470198675497			
96	1920	0.647841059602649	-0.0292450331125828	-0.311523178807947	44.5533774834437	147.135364238411	-18.8249006622517				0.544953642384106	0.0317880794701987	0.445139072847682	-28.4060927152318	-31.8921854304636	8.93403973509934				0.789827814569536	-0.193271523178808	-0.16794701986755	8.68741721854305	111.306490066225	-18.1202649006623				0.528529801324503	-0.0485298013245033	-0.373721854304636	2.20291390728477	3.5435761589404	24.3043708609272				0.580026490066225	0.0674966887417219	0.341933774834437	-0.888211920529802	-14.2280794701987	14.2225165562914				0.383788079470199	-0.398834437086093	-0.340238410596026	2.54039735099338	1.83761589403974	-10.274701986755			
97	1940	0.743841059602649	-0.0612450331125828	-0.311523178807947	41.4733774834437	140.975364238411	-20.5049006622517				0.512953642384106	0.0157880794701987	0.429139072847682	-29.8060927152318	-27.9721854304636	8.93403973509934				0.741827814569536	-0.225271523178808	-0.11994701986755	0.00741721854304636	114.666490066225	-14.7602649006622				0.496529801324503	-0.000529801324503289	-0.373721854304636	-5.07708609271523	0.1835761589404	22.6243708609272				0	0	0	0	0	0				0	0	0	0	0	0			
98	1960	0	0	0	0	0	0				0.512953642384106	0.0157880794701987	0.493139072847682	-28.6860927152318	-24.0521854304636	8.09403973509934				0.709827814569536	-0.241271523178808	-0.11994701986755	-11.752582781457	108.506490066225	-13.9202649006623				0.448529801324503	-0.0325298013245033	-0.373721854304636	6.40291390728477	8.8635761589404	19.8243708609272				0.548026490066225	0.131496688741722	0.341933774834437	-12.9282119205298	-25.4280794701987	11.9825165562914				0.415788079470199	-0.446834437086093	-0.308238410596026	-5.57960264900662	-2.92238410596027	-12.794701986755			
99	1980	0.759841059602649	-0.0612450331125828	-0.263523178807947	10.1133774834437	123.615364238411	-11.2649006622517				0.496953642384106	-0.000211920529801304	0.461139072847682	-21.4060927152318	-27.4121854304636	8.37403973509934				0.709827814569536	-0.241271523178808	-0.0559470198675496	-11.472582781457	104.026490066225	-10.0002649006623				0.464529801324503	-0.0325298013245033	-0.309721854304636	20.9629139072848	15.5835761589404	13.6643708609272				0.548026490066225	0.0994966887417219	0.277933774834437	-12.9282119205298	-25.1480794701987	14.2225165562914				0.431788079470199	-0.446834437086093	-0.324238410596026	-13.4196026490066	-8.24238410596027	-14.754701986755			
100	2000	0.791841059602649	0.0667549668874172	-0.151523178807947	-4.16662251655629	114.655364238411	-7.62490066225166				0.448953642384106	-0.0322119205298013	0.429139072847682	-18.6060927152318	-29.6521854304636	8.37403973509934				0.757827814569536	-0.241271523178808	-0.0559470198675496	-15.112582781457	95.9064900662252	-4.68026490066225				0.448529801324503	-0.0325298013245033	-0.341721854304636	18.4429139072848	9.1435761589404	12.8243708609272				0.548026490066225	0.0674966887417219	0.309933774834437	-12.6482119205298	-22.9080794701987	13.9425165562914				0.399788079470199	-0.382834437086093	-0.308238410596026	-8.93960264900662	-14.6823841059603	-15.314701986755			
101	2020	0.855841059602649	0.146754966887417	-0.039523178807947	-1.92662251655629	98.1353642384106	-9.02490066225166				0.480953642384106	-0.0802119205298013	0.397139072847682	-23.0860927152318	-28.2521854304636	6.69403973509934				0.805827814569536	-0.273271523178808	-0.0239470198675496	-28.552582781457	84.4264900662252	3.43973509933775				0.464529801324503	-0.000529801324503289	-0.357721854304636	15.9229139072848	4.1035761589404	10.5843708609272				0.516026490066225	0.0674966887417219	0.357933774834437	-22.4482119205298	-25.9880794701987	14.7825165562914				0.335788079470199	-0.334834437086093	-0.324238410596026	-1.93960264900662	-16.0823841059603	-17.274701986755			
102	2040	0.983841059602649	0.162754966887417	-0.103523178807947	-1.36662251655629	83.5753642384106	-12.6649006622517				0.496953642384106	-0.0482119205298013	0.445139072847682	-39.8860927152318	-10.8921854304636	1.65403973509934				0.837827814569536	-0.289271523178808	-0.00794701986754963	-39.752582781457	66.5064900662252	9.59973509933775				0.560529801324503	-0.0165298013245033	-0.373721854304636	19.0029139072848	1.5835761589404	9.46437086092715				0.596026490066225	0.0514966887417219	0.373933774834437	-20.7682119205298	-30.1880794701987	16.1825165562914				0.351788079470199	-0.366834437086093	-0.372238410596026	-0.259602649006623	-16.0823841059603	-24.834701986755			
103	2060	0.999841059602649	0.114754966887417	-0.231523178807947	-13.9666225165563	63.9753642384106	-13.5049006622517				0.528953642384106	0.0317880794701987	0.557139072847682	-36.2460927152318	-4.45218543046358	-1.70596026490066				0.869827814569536	-0.225271523178808	-0.00794701986754963	-48.992582781457	45.7864900662252	15.7597350993378				0.480529801324503	-0.128529801324503	-0.421721854304636	17.6029139072848	3.5435761589404	4.98437086092715				0.612026490066225	0.115496688741722	0.325933774834437	-24.4082119205298	-36.0680794701987	14.5025165562914				0.399788079470199	-0.398834437086093	-0.436238410596026	4.78039735099338	-17.7623841059603	-31.834701986755			
104	2080	0.999841059602649	0.0667549668874172	-0.215523178807947	-25.4466225165563	41.0153642384106	-5.94490066225166				0.576953642384106	-0.0162119205298013	0.525139072847682	-22.8060927152318	-9.49218543046358	1.09403973509934				0.901827814569536	-0.145271523178808	0.00805298013245037	-52.632582781457	27.8664900662252	15.4797350993378				0.480529801324503	-0.0805298013245033	-0.533721854304636	18.1629139072848	4.1035761589404	-0.895629139072848				0.644026490066225	0.115496688741722	0.293933774834437	-26.6482119205298	-25.7080794701987	12.5425165562914				0.415788079470199	-0.414834437086093	-0.484238410596026	4.50039735099338	-15.5223841059603	-29.874701986755			
105	2100	1.11184105960265	-0.0292450331125828	-0.151523178807947	-24.3266225165563	26.1753642384106	-1.46490066225166				0.656953642384106	-0.0162119205298013	0.573139072847682	-13.5660927152318	-5.57218543046358	-2.82596026490066				1.01382781456954	-0.0652715231788079	0.00805298013245037	-43.672582781457	14.4264900662252	7.91973509933775				0.704529801324503	-0.0645298013245033	-0.549721854304636	29.6429139072848	12.5035761589404	-4.53562913907285				0.756026490066225	0.0834966887417219	0.389933774834437	-19.9282119205298	-10.8680794701987	11.1425165562914				0.399788079470199	-0.430834437086093	-0.532238410596027	10.1003973509934	-10.2023841059603	-22.874701986755			
106	2120	1.09584105960265	-0.0612450331125828	-0.151523178807947	-36.0866225165563	8.8153642384106	1.05509933774834				0.832953642384106	-0.0642119205298013	0.637139072847682	-14.1260927152318	-0.532185430463576	-2.54596026490066				1.14182781456954	0.0467284768211921	0.00805298013245037	-22.672582781457	-4.05350993377483	-4.12026490066225				0.848529801324503	-0.176529801324503	-0.565721854304636	26.8429139072848	11.6635761589404	-3.13562913907285				0.868026490066225	0.115496688741722	0.437933774834437	-13.2082119205298	-12.8280794701987	8.34251655629139				0.383788079470199	-0.446834437086093	-0.548238410596027	21.5803973509934	-7.40238410596027	-20.354701986755			
107	2140	0.999841059602649	-0.0292450331125828	-0.103523178807947	-24.3266225165563	-3.2246357615894	1.89509933774834				0.928953642384106	-0.0162119205298013	0.701139072847682	-16.0860927152318	0.307814569536424	-4.78596026490066				1.10982781456954	0.0627284768211921	0.00805298013245037	2.80741721854305	-14.4135099337748	-11.4002649006623				0.816529801324503	-0.224529801324503	-0.661721854304636	8.08291390728477	0.7435761589404	-6.77562913907285				0.900026490066225	0.147496688741722	0.373933774834437	-16.2882119205298	-17.8680794701987	6.10251655629139				0.447788079470199	-0.478834437086093	-0.580238410596026	12.0603973509934	-3.76238410596027	-24.274701986755			
108	2160	0.919841059602649	-0.0772450331125828	-0.00752317880794696	-9.76662251655629	-6.3046357615894	1.89509933774834				0.912953642384106	-0.0162119205298013	0.685139072847682	-21.6860927152318	1.70781456953642	-7.86596026490066				0.965827814569536	-0.0652715231788079	-0.10394701986755	5.60741721854305	-15.2535099337748	-10.0002649006623				0.720529801324503	-0.176529801324503	-0.677721854304636	5.84291390728477	6.0635761589404	-18.2556291390728				0.900026490066225	0.163496688741722	0.309933774834437	-6.7682119205298	1.73192052980133	1.90251655629139				0.543788079470199	-0.494834437086093	-0.596238410596026	5.34039735099338	4.07761589403974	-22.314701986755			
109	2180	0.967841059602649	-0.0932450331125828	0.040476821192053	-10.6066225165563	4.3353642384106	0.495099337748344				0.944953642384106	-0.000211920529801304	0.605139072847682	-28.6860927152318	-5.85218543046358	-9.26596026490066				0.901827814569536	-0.193271523178808	-0.15194701986755	-4.47258278145695	-9.65350993377483	-2.72026490066225				0.736529801324503	-0.144529801324503	-0.629721854304636	19.5629139072848	16.4235761589404	-20.4956291390729				0.948026490066225	0.115496688741722	0.389933774834437	2.7517880794702	9.01192052980133	-0.0574834437086077				0.623788079470199	-0.542834437086093	-0.628238410596026	10.3803973509934	10.5176158940397	-17.274701986755			
110	2200	1.03184105960265	0.00275496688741723	0.088476821192053	-24.6066225165563	11.6153642384106	-0.904900662251656				0.944953642384106	-0.0802119205298013	0.589139072847682	-25.8860927152318	-15.9321854304636	-2.54596026490066				0.901827814569536	-0.225271523178808	-0.15194701986755	-21.552582781457	-0.133509933774833	0.35973509933775				0.816529801324503	-0.160529801324503	-0.597721854304636	21.8029139072848	17.2635761589404	-12.6556291390728				0.996026490066225	0.0994966887417219	0.373933774834437	-6.2082119205298	-3.86807947019868	0.782516556291392				0.687788079470199	-0.670834437086093	-0.612238410596026	21.8603973509934	4.07761589403974	-19.514701986755			
111	2220	0.999841059602649	0.130754966887417	0.088476821192053	-25.4466225165563	6.8553642384106	-0.624900662251656				0.960953642384106	-0.0642119205298013	0.509139072847682	-18.0460927152318	-25.1721854304636	-1.42596026490066				0.965827814569536	-0.209271523178808	-0.13594701986755	-33.592582781457	5.46649006622517	-1.04026490066225				0.784529801324503	-0.192529801324503	-0.629721854304636	7.52291390728477	6.9035761589404	-3.13562913907285				0.996026490066225	0.0994966887417219	0.325933774834437	-15.7282119205298	-13.9480794701987	3.02251655629139				0.751788079470199	-0.654834437086093	-0.660238410596027	-2.21960264900662	-9.36238410596027	-21.194701986755			
112	2240	0.919841059602649	0.146754966887417	0.056476821192053	-15.0866225165563	6.8553642384106	-2.02490066225166				0.944953642384106	-0.000211920529801304	0.461139072847682	-12.1660927152318	-27.4121854304636	-3.38596026490066				0.981827814569536	-0.177271523178808	-0.0719470198675496	-28.832582781457	11.6264900662252	-3.28026490066225				0.720529801324503	-0.176529801324503	-0.677721854304636	2.76291390728477	4.1035761589404	-2.01562913907285				0.996026490066225	0.0994966887417219	0.325933774834437	-16.0082119205298	-14.2280794701987	5.54251655629139				0.751788079470199	-0.558834437086093	-0.708238410596026	-5.01960264900662	-13.8423841059603	-13.074701986755			
113	2260	0.967841059602649	0.0667549668874172	0.024476821192053	-10.6066225165563	8.8153642384106	-3.42490066225166				0.912953642384106	0.0317880794701987	0.429139072847682	-11.8860927152318	-22.9321854304636	-7.02596026490066				0.965827814569536	-0.145271523178808	-0.0719470198675496	-20.992582781457	7.42649006622517	-3.00026490066225				0.720529801324503	-0.144529801324503	-0.677721854304636	16.2029139072848	8.0235761589404	4.42437086092715				0.980026490066225	0.0994966887417219	0.373933774834437	-15.7282119205298	-18.7080794701987	8.06251655629139				0.655788079470199	-0.542834437086093	-0.676238410596026	7.30039735099338	-17.7623841059603	-11.674701986755			
114	2280	0.999841059602649	0.00275496688741723	-0.023523178807947	-6.12662251655629	4.8953642384106	-1.46490066225166				0.864953642384106	0.0157880794701987	0.461139072847682	-9.92609271523179	-16.4921854304636	-7.86596026490066				0.965827814569536	-0.129271523178808	-0.10394701986755	-13.712582781457	7.14649006622517	-1.32026490066225				0.752529801324503	-0.192529801324503	-0.661721854304636	18.1629139072848	3.8235761589404	12.8243708609272				0.932026490066225	0.0994966887417219	0.277933774834437	-19.6482119205298	-23.1880794701987	10.0225165562914				0.575788079470199	-0.494834437086093	-0.644238410596026	-5.85960264900662	-18.8823841059603	-9.15470198675497			
115	2300	1.01584105960265	-0.0292450331125828	-0.087523178807947	4.51337748344371	2.3753642384106	0.495099337748344				0.848953642384106	-0.000211920529801304	0.509139072847682	-8.52609271523179	-11.7321854304636	-8.14596026490066				0.965827814569536	-0.129271523178808	-0.11994701986755	-10.072582781457	3.78649006622517	1.75973509933775				0.736529801324503	-0.192529801324503	-0.661721854304636	6.12291390728477	-7.0964238410596	17.0243708609272				0.884026490066225	0.115496688741722	0.245933774834437	-15.7282119205298	-18.7080794701987	10.8625165562914				0.495788079470199	-0.446834437086093	-0.628238410596026	-15.9396026490066	-15.5223841059603	-4.11470198675497			
116	2320	0.999841059602649	-0.0292450331125828	-0.071523178807947	7.31337748344371	-0.704635761589404	2.17509933774834				0.912953642384106	-0.0162119205298013	0.525139072847682	-5.44609271523179	-11.7321854304636	-6.46596026490066				0.981827814569536	-0.129271523178808	-0.11994701986755	-1.39258278145695	4.90649006622517	3.15973509933775				0.736529801324503	-0.192529801324503	-0.661721854304636	-1.15708609271523	-9.3364238410596	15.9043708609272				0.900026490066225	0.115496688741722	0.277933774834437	-12.0882119205298	-17.5880794701987	9.18251655629139				0.447788079470199	-0.382834437086093	-0.596238410596026	-17.6196026490066	-10.4823841059603	-2.99470198675497			
117	2340	0.983841059602649	0.00275496688741723	-0.023523178807947	5.63337748344371	-2.1046357615894	1.61509933774834				0.912953642384106	-0.000211920529801304	0.493139072847682	-0.686092715231788	-11.1721854304636	-3.38596026490066				1.01382781456954	-0.145271523178808	-0.0879470198675496	5.04741721854305	7.42649006622517	3.15973509933775				0.768529801324503	-0.192529801324503	-0.645721854304636	-3.39708609271523	-10.7364238410596	16.1843708609272				0.916026490066225	0.0994966887417219	0.245933774834437	-8.4482119205298	-16.4680794701987	8.06251655629139				0.415788079470199	-0.398834437086093	-0.596238410596026	-11.1796026490066	-4.60238410596027	-7.19470198675497			
118	2360	0.967841059602649	0.0187549668874172	0.024476821192053	2.27337748344371	-0.424635761589404	0.775099337748344				0.880953642384106	-0.0162119205298013	0.477139072847682	1.27390728476821	-6.69218543046358	-2.82596026490066				1.01382781456954	-0.193271523178808	-0.0719470198675496	7.00741721854305	6.58649006622517	1.75973509933775				0.816529801324503	-0.224529801324503	-0.645721854304636	-2.83708609271523	-12.1364238410596	17.3043708609272				0.932026490066225	0.131496688741722	0.261933774834437	-6.7682119205298	-10.5880794701987	5.82251655629139				0.463788079470199	-0.430834437086093	-0.644238410596026	-5.29960264900662	-0.122384105960265	-11.954701986755			
119	2380	0.967841059602649	0.0187549668874172	0.040476821192053	0.0333774834437086	-0.424635761589404	0.215099337748344				0.896953642384106	-0.0322119205298013	0.493139072847682	-0.126092715231788	0.307814569536424	1.09403973509934				0.997827814569536	-0.209271523178808	-0.0719470198675496	4.20741721854305	1.26649006622517	2.03973509933775				0.768529801324503	-0.224529801324503	-0.677721854304636	-8.43708609271523	-12.1364238410596	13.1043708609272				0.916026490066225	0.0834966887417219	0.261933774834437	-2.0082119205298	-13.3880794701987	3.30251655629139				0.495788079470199	-0.446834437086093	-0.676238410596026	-8.09960264900662	1.83761589403974	-12.794701986755			
120	2400	0.967841059602649	0.0187549668874172	0.056476821192053	4.23337748344371	1.5353642384106	-0.0649006622516557				0.880953642384106	-0.0482119205298013	0.557139072847682	-6.84609271523179	0.867814569536424	3.61403973509934				0.981827814569536	-0.209271523178808	-0.0559470198675496	0.00741721854304636	-0.413509933774833	2.31973509933775				0.704529801324503	-0.208529801324503	-0.645721854304636	-7.03708609271523	-7.0964238410596	7.78437086092715				0.900026490066225	0.0674966887417219	0.277933774834437	-1.4482119205298	-10.3080794701987	1.34251655629139				0.495788079470199	-0.478834437086093	-0.660238410596027	-5.57960264900662	2.39761589403974	-8.87470198675497			
121	2420	0.967841059602649	0.00275496688741723	0.024476821192053	8.15337748344371	1.8153642384106	0.775099337748344				0.864953642384106	-0.0322119205298013	0.557139072847682	-8.52609271523179	-3.33218543046358	2.49403973509934				0.981827814569536	-0.193271523178808	-0.0399470198675496	-6.71258278145695	-2.65350993377483	2.31973509933775				0.704529801324503	-0.176529801324503	-0.629721854304636	-1.71708609271523	-5.4164238410596	4.98437086092715				0.900026490066225	0.0514966887417219	0.277933774834437	2.1917880794702	-8.06807947019868	0.222516556291392				0.495788079470199	-0.494834437086093	-0.596238410596026	-7.53960264900662	3.51761589403974	-5.51470198675497			
122	2440	0.983841059602649	0.00275496688741723	0.024476821192053	5.07337748344371	-0.424635761589404	-0.0649006622516557				0.864953642384106	-0.0162119205298013	0.509139072847682	-6.56609271523179	-8.09218543046358	1.65403973509934				0.981827814569536	-0.193271523178808	-0.0399470198675496	-8.11258278145695	-6.57350993377483	0.91973509933775				0.736529801324503	-0.176529801324503	-0.613721854304636	-5.07708609271523	-8.4964238410596	1.90437086092715				0.900026490066225	0.0514966887417219	0.277933774834437	4.1517880794702	-5.26807947019868	-0.897483443708608				0.511788079470199	-0.494834437086093	-0.628238410596026	-13.1396026490066	3.51761589403974	-1.03470198675497			
123	2460	0.983841059602649	0.0187549668874172	0.00847682119205304	1.71337748344371	-3.5046357615894	0.495099337748344				0.864953642384106	-0.0482119205298013	0.445139072847682	-2.92609271523179	-7.81218543046358	2.77403973509934				0.965827814569536	-0.161271523178808	-0.0399470198675496	-2.79258278145695	-10.4935099337748	0.91973509933775				0.720529801324503	-0.176529801324503	-0.597721854304636	-10.1170860927152	-13.8164238410596	-2.85562913907285				0.900026490066225	0.0514966887417219	0.293933774834437	2.4717880794702	-6.38807947019868	-0.897483443708608				0.559788079470199	-0.462834437086093	-0.660238410596027	-11.4596026490066	-0.122384105960265	0.645298013245032			
124	2480	0.951841059602649	0.0347549668874172	0.00847682119205304	4.23337748344371	-4.9046357615894	-0.0649006622516557				0.880953642384106	-0.0482119205298013	0.445139072847682	-0.686092715231788	-2.21218543046358	3.33403973509934				0.965827814569536	-0.145271523178808	-0.0399470198675496	2.24741721854305	-10.2135099337748	0.63973509933775				0.672529801324503	-0.160529801324503	-0.597721854304636	-10.9570860927152	-14.3764238410596	-7.05562913907285				0.900026490066225	0.0674966887417219	0.293933774834437	2.7517880794702	-5.82807947019868	-1.17748344370861				0.559788079470199	-0.446834437086093	-0.660238410596027	-2.49960264900662	-0.682384105960265	0.645298013245032			
125	2500	0.951841059602649	0.00275496688741723	0.024476821192053	6.19337748344371	-3.2246357615894	-0.344900662251656				0.896953642384106	-0.0642119205298013	0.461139072847682	0.993907284768212	-3.61218543046358	2.49403973509934				0.949827814569536	-0.161271523178808	-0.0399470198675496	2.80741721854305	-10.7735099337748	0.91973509933775				0.608529801324503	-0.128529801324503	-0.597721854304636	-3.67708609271523	-6.5364238410596	-7.89562913907285				0.916026490066225	0.0514966887417219	0.293933774834437	3.0317880794702	-5.54807947019868	-0.897483443708608				0.559788079470199	-0.478834437086093	-0.644238410596026	4.22039735099338	-0.122384105960265	1.48529801324503			
126	2520	0.967841059602649	-0.0132450331125828	0.040476821192053	3.67337748344371	-0.424635761589404	0.215099337748344				0.896953642384106	-0.0802119205298013	0.493139072847682	-2.08609271523179	-3.61218543046358	2.21403973509934				0.933827814569536	-0.177271523178808	-0.0399470198675496	3.64741721854305	-11.0535099337748	0.0797350993377501				0.608529801324503	-0.144529801324503	-0.581721854304636	7.52291390728477	3.5435761589404	-4.81562913907285				0.916026490066225	0.0354966887417219	0.261933774834437	2.7517880794702	-4.42807947019868	1.62251655629139				0.591788079470199	-0.478834437086093	-0.644238410596026	-0.819602649006623	-4.60238410596027	1.76529801324503			
127	2540	0.983841059602649	0.00275496688741723	0.00847682119205304	1.71337748344371	-0.144635761589404	0.495099337748344				0.896953642384106	-0.0642119205298013	0.477139072847682	-5.16609271523179	-4.45218543046358	0.25403973509934				0.933827814569536	-0.193271523178808	-0.0559470198675496	5.88741721854305	-8.53350993377483	-0.20026490066225				0.592529801324503	-0.160529801324503	-0.581721854304636	13.1229139072848	8.5835761589404	-3.13562913907285				0.932026490066225	0.0194966887417219	0.277933774834437	-0.328211920529802	-3.30807947019868	1.90251655629139				0.575788079470199	-0.462834437086093	-0.660238410596027	0.300397350993377	-5.16238410596027	-1.31470198675497			
128	2560	0.967841059602649	0.00275496688741723	-0.00752317880794696	0.593377483443709	-2.1046357615894	0.495099337748344				0.896953642384106	-0.0642119205298013	0.461139072847682	-4.32609271523179	-7.25218543046358	-1.14596026490066				0.917827814569536	-0.177271523178808	-0.0559470198675496	3.92741721854305	-6.29350993377483	0.0797350993377501				0.656529801324503	-0.176529801324503	-0.613721854304636	14.5229139072848	9.7035761589404	-1.17562913907285				0.932026490066225	0.0354966887417219	0.261933774834437	-5.0882119205298	-4.98807947019868	2.74251655629139				0.543788079470199	-0.430834437086093	-0.644238410596026	4.78039735099338	-3.48238410596027	-5.51470198675497			
129	2580	0.967841059602649	0.00275496688741723	-0.023523178807947	1.71337748344371	-0.984635761589404	-0.344900662251656				0.880953642384106	-0.0802119205298013	0.429139072847682	-2.92609271523179	-7.25218543046358	-0.86596026490066				0.933827814569536	-0.193271523178808	-0.0399470198675496	1.68741721854305	-4.33350993377483	0.0797350993377501				0.720529801324503	-0.192529801324503	-0.661721854304636	15.6429139072848	9.9835761589404	1.06437086092715				0.932026490066225	0.0514966887417219	0.245933774834437	-5.3682119205298	-6.38807947019868	3.58251655629139				0.543788079470199	-0.430834437086093	-0.644238410596026	6.74039735099338	-2.64238410596027	-8.31470198675497			
130	2600	0.983841059602649	0.00275496688741723	-0.055523178807947	0.313377483443709	0.695364238410596	-1.18490066225166				0.896953642384106	-0.0802119205298013	0.445139072847682	0.713907284768212	-4.45218543046358	-1.14596026490066				0.933827814569536	-0.193271523178808	-0.0559470198675496	-1.67258278145695	-3.49350993377483	0.63973509933775				0.736529801324503	-0.224529801324503	-0.677721854304636	15.0829139072848	7.7435761589404	2.18437086092715				0.932026490066225	0.0674966887417219	0.245933774834437	-3.9682119205298	-6.10807947019868	4.42251655629139				0.559788079470199	-0.478834437086093	-0.660238410596027	12.9003973509934	-4.60238410596027	-11.114701986755			
131	2620	0.967841059602649	-0.0292450331125828	-0.055523178807947	-3.04662251655629	-1.5446357615894	-0.624900662251656				0.912953642384106	-0.0482119205298013	0.461139072847682	-0.686092715231788	-3.33218543046358	-0.30596026490066				0.917827814569536	-0.177271523178808	-0.0719470198675496	-1.95258278145695	-1.53350993377483	0.0797350993377501				0.752529801324503	-0.240529801324503	-0.677721854304636	9.20291390728477	3.2635761589404	0.224370860927152				0.948026490066225	0.0514966887417219	0.245933774834437	-3.6882119205298	-7.78807947019868	4.14251655629139				0.543788079470199	-0.478834437086093	-0.676238410596026	7.02039735099338	-7.40238410596027	-9.99470198675497			
132	2640	0.983841059602649	0.00275496688741723	-0.00752317880794696	-2.20662251655629	0.975364238410596	-0.904900662251656				0.896953642384106	-0.0802119205298013	0.461139072847682	-1.24609271523179	-3.33218543046358	1.93403973509934				0.933827814569536	-0.161271523178808	-0.0559470198675496	-3.07258278145695	0.426490066225167	-0.48026490066225				0.720529801324503	-0.224529801324503	-0.645721854304636	0.522913907284768	-2.6164238410596	-1.45562913907285				0.932026490066225	0.0514966887417219	0.229933774834437	-5.3682119205298	-5.82807947019868	4.42251655629139				0.511788079470199	-0.478834437086093	-0.692238410596026	1.14039735099338	-6.84238410596027	-3.55470198675497			
133	2660	0.983841059602649	0.00275496688741723	-0.023523178807947	-0.526622516556291	0.135364238410596	-0.0649006622516557				0.896953642384106	-0.0482119205298013	0.509139072847682	-1.80609271523179	-0.532185430463576	1.37403973509934				0.965827814569536	-0.177271523178808	-0.0719470198675496	-2.51258278145695	0.706490066225167	-1.32026490066225				0.720529801324503	-0.208529801324503	-0.645721854304636	-1.71708609271523	-6.5364238410596	-0.335629139072848				0.948026490066225	0.0514966887417219	0.229933774834437	-1.7282119205298	-5.54807947019868	3.58251655629139				0.495788079470199	-0.446834437086093	-0.676238410596026	-3.05960264900662	-6.28238410596027	-2.43470198675497			
134	2680	0.967841059602649	-0.0132450331125828	-0.00752317880794696	-0.526622516556291	-0.704635761589404	0.215099337748344				0.928953642384106	-0.0482119205298013	0.477139072847682	1.27390728476821	-2.77218543046358	3.05403973509934				0.965827814569536	-0.177271523178808	-0.0719470198675496	0.567417218543046	2.10649006622517	-1.32026490066225				0.736529801324503	-0.208529801324503	-0.629721854304636	-1.43708609271523	-5.9764238410596	1.62437086092715				0.948026490066225	0.0514966887417219	0.245933774834437	-0.608211920529802	-5.54807947019868	3.30251655629139				0.511788079470199	-0.430834437086093	-0.676238410596026	-1.09960264900662	-4.60238410596027	-2.43470198675497			
135	2700	0.983841059602649	0.00275496688741723	-0.00752317880794696	-0.526622516556291	-0.984635761589404	-0.904900662251656				0.928953642384106	-0.0482119205298013	0.477139072847682	8.27390728476821	-3.61218543046358	3.05403973509934				0.965827814569536	-0.177271523178808	-0.0719470198675496	0.847417218543046	2.94649006622517	-1.60026490066225				0.720529801324503	-0.208529801324503	-0.629721854304636	2.76291390728477	-3.1764238410596	1.34437086092715				0.964026490066225	0.0354966887417219	0.245933774834437	0.511788079470198	-5.82807947019868	4.42251655629139				0.527788079470199	-0.462834437086093	-0.676238410596026	4.50039735099338	-3.48238410596027	-2.99470198675497			
136	2720	0.983841059602649	0.0187549668874172	-0.00752317880794696	2.83337748344371	-0.144635761589404	-1.46490066225166				0.944953642384106	-0.0482119205298013	0.509139072847682	8.27390728476821	0.307814569536424	5.01403973509934				0.981827814569536	-0.193271523178808	-0.0879470198675496	-1.11258278145695	5.74649006622517	-0.76026490066225				0.704529801324503	-0.192529801324503	-0.629721854304636	8.36291390728477	-2.0564238410596	-1.45562913907285				0.980026490066225	0.0354966887417219	0.213933774834437	1.9117880794702	-6.38807947019868	3.58251655629139				0.543788079470199	-0.526834437086093	-0.644238410596026	6.74039735099338	-3.76238410596027	-2.43470198675497			
137	2740	0.967841059602649	0.00275496688741723	-0.00752317880794696	2.83337748344371	-0.704635761589404	-1.18490066225166				0.944953642384106	-0.0642119205298013	0.493139072847682	7.71390728476821	-0.812185430463576	2.49403973509934				0.965827814569536	-0.177271523178808	-0.10394701986755	-3.91258278145695	5.18649006622517	-0.20026490066225				0.704529801324503	-0.192529801324503	-0.645721854304636	9.48291390728477	0.4635761589404	-2.01562913907285				0.948026490066225	0.0354966887417219	0.245933774834437	2.4717880794702	-6.94807947019868	3.30251655629139				0.543788079470199	-0.526834437086093	-0.644238410596026	0.300397350993377	-6.56238410596027	1.76529801324503			
138	2760	0.967841059602649	-0.0132450331125828	-0.023523178807947	1.15337748344371	-0.424635761589404	-0.624900662251656				0.880953642384106	-0.0322119205298013	0.381139072847682	6.03390728476821	-10.3321854304636	1.93403973509934				0.965827814569536	-0.177271523178808	-0.0879470198675496	-4.75258278145695	5.74649006622517	-0.48026490066225				0.672529801324503	-0.208529801324503	-0.645721854304636	8.64291390728477	1.0235761589404	-4.53562913907285				0.932026490066225	0.0514966887417219	0.261933774834437	0.791788079470198	-6.94807947019868	3.30251655629139				0.543788079470199	-0.462834437086093	-0.676238410596026	-6.97960264900662	-4.88238410596027	3.16529801324503			
139	2780	0.967841059602649	0.00275496688741723	-0.00752317880794696	0.313377483443709	0.975364238410596	0.495099337748344				0.896953642384106	-0.0482119205298013	0.365139072847682	0.433907284768212	-7.25218543046358	2.49403973509934				0.981827814569536	-0.177271523178808	-0.0879470198675496	-3.07258278145695	3.50649006622517	-0.20026490066225				0.656529801324503	-0.192529801324503	-0.629721854304636	4.16291390728477	-1.4964238410596	-3.69562913907285				0.932026490066225	0.0354966887417219	0.245933774834437	-0.328211920529802	-5.26807947019868	4.42251655629139				0.527788079470199	-0.414834437086093	-0.660238410596027	-4.73960264900662	-3.20238410596026	3.16529801324503			
140	2800	0.967841059602649	0.00275496688741723	-0.00752317880794696	-1.36662251655629	1.2553642384106	-0.344900662251656				0.912953642384106	-0.0642119205298013	0.477139072847682	-0.686092715231788	1.14781456953642	3.05403973509934				0.949827814569536	-0.161271523178808	-0.10394701986755	-1.39258278145695	1.82649006622517	-0.20026490066225				0.640529801324503	-0.176529801324503	-0.629721854304636	6.12291390728477	1.8635761589404	-2.57562913907285				0.916026490066225	0.0514966887417219	0.213933774834437	-1.7282119205298	-7.22807947019868	3.86251655629139				0.527788079470199	-0.398834437086093	-0.644238410596026	3.94039735099338	-2.08238410596027	1.20529801324503			
141	2820	0.983841059602649	0.0347549668874172	-0.023523178807947	-0.806622516556291	2.0953642384106	-1.74490066225166				0.912953642384106	-0.0642119205298013	0.461139072847682	-1.52609271523179	-0.812185430463576	3.33403973509934				0.965827814569536	-0.161271523178808	-0.10394701986755	-3.07258278145695	1.54649006622517	0.35973509933775				0.656529801324503	-0.176529801324503	-0.645721854304636	11.4429139072848	2.4235761589404	0.504370860927152				0.932026490066225	0.0354966887417219	0.229933774834437	-0.608211920529802	-6.66807947019868	4.14251655629139				0.527788079470199	-0.430834437086093	-0.628238410596026	10.9403973509934	0.997615894039735	-2.99470198675497			
142	2840	0.983841059602649	0.0187549668874172	-0.00752317880794696	-1.36662251655629	1.2553642384106	-2.30490066225166				0.880953642384106	-0.0482119205298013	0.365139072847682	-1.52609271523179	-6.69218543046358	1.93403973509934				0.965827814569536	-0.161271523178808	-0.0879470198675496	-4.75258278145695	1.82649006622517	0.35973509933775				0.704529801324503	-0.224529801324503	-0.661721854304636	14.2429139072848	0.7435761589404	3.86437086092715				0.932026490066225	0.0354966887417219	0.213933774834437	-0.328211920529802	-5.26807947019868	5.26251655629139				0.543788079470199	-0.462834437086093	-0.660238410596027	8.70039735099338	2.39761589403974	-4.95470198675497			
143	2860	0.983841059602649	0.0187549668874172	-0.039523178807947	-1.92662251655629	1.5353642384106	-0.904900662251656				0.880953642384106	-0.0322119205298013	0.397139072847682	-3.76609271523179	1.14781456953642	0.53403973509934				0.949827814569536	-0.145271523178808	-0.0719470198675496	-3.91258278145695	-0.133509933774833	0.0797350993377501				0.704529801324503	-0.240529801324503	-0.677721854304636	6.40291390728477	-1.7764238410596	4.14437086092715				0.932026490066225	0.0354966887417219	0.229933774834437	-0.0482119205298018	-3.02807947019868	4.70251655629139				0.559788079470199	-0.478834437086093	-0.660238410596027	6.46039735099338	1.55761589403974	-4.39470198675497			
144	2880	0.967841059602649	0.0187549668874172	-0.00752317880794696	1.71337748344371	0.975364238410596	-0.0649006622516557				0.880953642384106	-0.0162119205298013	0.477139072847682	1.55390728476821	5.62781456953642	1.37403973509934				0.949827814569536	-0.145271523178808	-0.0719470198675496	-2.23258278145695	-1.25350993377483	-0.76026490066225				0.720529801324503	-0.240529801324503	-0.661721854304636	0.522913907284768	-0.3764238410596	5.26437086092715				0.948026490066225	0.0514966887417219	0.229933774834437	-0.888211920529802	-1.90807947019868	4.98251655629139				0.543788079470199	-0.494834437086093	-0.676238410596026	1.14039735099338	-0.682384105960265	0.645298013245032			
145	2900	0.967841059602649	0.0187549668874172	0.024476821192053	2.83337748344371	0.975364238410596	-0.344900662251656				0.928953642384106	-0.0482119205298013	0.493139072847682	6.03390728476821	5.62781456953642	3.33403973509934				0.965827814569536	-0.145271523178808	-0.0879470198675496	0.847417218543046	-0.693509933774834	-0.20026490066225				0.704529801324503	-0.240529801324503	-0.629721854304636	-1.15708609271523	1.5835761589404	8.06437086092715				0.964026490066225	0.0674966887417219	0.213933774834437	-0.608211920529802	-2.18807947019868	4.42251655629139				0.543788079470199	-0.494834437086093	-0.676238410596026	-7.53960264900662	-0.122384105960265	5.68529801324503			
146	2920	0.967841059602649	0.00275496688741723	0.024476821192053	2.27337748344371	-0.704635761589404	-0.624900662251656				0.944953642384106	-0.0642119205298013	0.477139072847682	4.91390728476821	1.42781456953642	4.73403973509934				0.965827814569536	-0.161271523178808	-0.0879470198675496	2.24741721854305	-1.25350993377483	-1.32026490066225				0.704529801324503	-0.208529801324503	-0.629721854304636	-0.877086092715232	-0.9364238410596	11.1443708609272				0.948026490066225	0.0354966887417219	0.261933774834437	3.5917880794702	2.01192052980133	3.58251655629139				0.527788079470199	-0.478834437086093	-0.660238410596027	-4.17960264900662	-2.08238410596027	8.20529801324503			
147	2940	0.967841059602649	-0.0132450331125828	0.024476821192053	0.873377483443709	-0.424635761589404	-1.74490066225166				0.896953642384106	-0.0642119205298013	0.461139072847682	0.153907284768212	0.0278145695364242	3.89403973509934				0.965827814569536	-0.161271523178808	-0.0879470198675496	0.847417218543046	-0.693509933774834	-1.88026490066225				0.656529801324503	-0.208529801324503	-0.645721854304636	-1.99708609271523	-2.0564238410596	11.1443708609272				0.932026490066225	0.00349668874172187	0.213933774834437	0.231788079470198	-2.46807947019868	4.42251655629139				0.511788079470199	-0.462834437086093	-0.644238410596026	-5.01960264900662	-1.24238410596026	9.60529801324503			
148	2960	0.967841059602649	0.00275496688741723	0.00847682119205304	1.43337748344371	0.415364238410596	-1.18490066225166				0.880953642384106	-0.0482119205298013	0.429139072847682	-0.686092715231788	3.66781456953642	3.05403973509934				0.981827814569536	-0.177271523178808	-0.0559470198675496	0.287417218543046	-0.693509933774834	-1.32026490066225				0.608529801324503	-0.224529801324503	-0.645721854304636	-0.877086092715232	0.4635761589404	9.18437086092715				0.932026490066225	0.0194966887417219	0.229933774834437	-0.608211920529802	1.17192052980133	4.42251655629139				0.527788079470199	-0.446834437086093	-0.644238410596026	-3.33960264900662	-1.80238410596026	8.20529801324503			
149	2980	0.983841059602649	0.00275496688741723	-0.023523178807947	1.43337748344371	1.5353642384106	-1.18490066225166				0	0	0	0	0	0				0	0	0	0	0	0				0.640529801324503	-0.224529801324503	-0.661721854304636	1.92291390728477	5.7835761589404	7.78437086092715				0.932026490066225	0.0194966887417219	0.213933774834437	-3.9682119205298	8.45192052980133	3.02251655629139				0.511788079470199	-0.430834437086093	-0.644238410596026	-1.65960264900662	-0.962384105960265	5.40529801324503			
150	3000	0.967841059602649	0.00275496688741723	-0.023523178807947	-0.806622516556291	-0.144635761589404	-0.624900662251656				0.912953642384106	-0.0482119205298013	0.477139072847682	6.31390728476821	1.42781456953642	3.33403973509934				0.965827814569536	-0.193271523178808	-0.0559470198675496	-0.272582781456954	-3.77350993377483	-0.20026490066225				0.736529801324503	-0.224529801324503	-0.645721854304636	0.522913907284768	6.6235761589404	6.94437086092715				0.932026490066225	0.0194966887417219	0.181933774834437	-0.888211920529802	5.93192052980133	1.62251655629139				0.495788079470199	-0.430834437086093	-0.660238410596027	5.62039735099338	1.55761589403974	0.925298013245032			
151	3020	0.967841059602649	0.0187549668874172	-0.00752317880794696	-0.246622516556291	0.695364238410596	-0.624900662251656				0.896953642384106	-0.0802119205298013	0.445139072847682	1.83390728476821	1.42781456953642	3.05403973509934				0.965827814569536	-0.177271523178808	-0.0719470198675496	0.847417218543046	-4.05350993377483	0.35973509933775				0.784529801324503	-0.240529801324503	-0.661721854304636	-5.07708609271523	-0.9364238410596	5.54437086092715				0.948026490066225	0.0354966887417219	0.229933774834437	-0.608211920529802	5.09192052980133	1.62251655629139				0.495788079470199	-0.478834437086093	-0.644238410596026	8.14039735099338	2.95761589403974	-0.754701986754968			
152	3040	0.983841059602649	0.00275496688741723	0.00847682119205304	-0.806622516556291	0.135364238410596	-0.904900662251656				0.896953642384106	-0.0642119205298013	0.477139072847682	-1.52609271523179	4.50781456953642	2.21403973509934				0.949827814569536	-0.161271523178808	-0.0719470198675496	-0.272582781456954	-2.09350993377483	0.91973509933775				0.768529801324503	-0.256529801324503	-0.661721854304636	-11.5170860927152	-8.7764238410596	5.54437086092715				0.964026490066225	0.0354966887417219	0.229933774834437	-0.608211920529802	1.17192052980133	0.502516556291392				0.511788079470199	-0.510834437086093	-0.644238410596026	3.38039735099338	1.27761589403974	2.32529801324503			
153	3060	0.967841059602649	-0.0132450331125828	-0.00752317880794696	-1.64662251655629	0.135364238410596	-0.344900662251656				0.896953642384106	-0.0482119205298013	0.445139072847682	2.95390728476821	3.94781456953642	3.33403973509934				0.965827814569536	-0.161271523178808	-0.0719470198675496	-0.832582781456954	-0.973509933774833	0.0797350993377501				0.688529801324503	-0.224529801324503	-0.661721854304636	-12.3570860927152	-6.8164238410596	5.26437086092715				0.948026490066225	0.0194966887417219	0.261933774834437	0.791788079470198	0.611920529801325	0.222516556291392				0.543788079470199	-0.526834437086093	-0.676238410596026	-8.09960264900662	0.157615894039735	7.64529801324503			
154	3080	0.967841059602649	0.0187549668874172	-0.023523178807947	-3.60662251655629	-0.144635761589404	-1.46490066225166				0.912953642384106	-0.0482119205298013	0.397139072847682	2.39390728476821	2.26781456953642	3.61403973509934				0.965827814569536	-0.161271523178808	-0.0719470198675496	-0.272582781456954	-1.25350993377483	0.0797350993377501				0.640529801324503	-0.224529801324503	-0.597721854304636	-10.9570860927152	-3.7364238410596	5.54437086092715				0.932026490066225	0.0194966887417219	0.245933774834437	1.6317880794702	1.17192052980133	0.782516556291392				0.527788079470199	-0.478834437086093	-0.660238410596027	-10.8996026490066	1.55761589403974	9.04529801324503			
155	3100	0.967841059602649	0.00275496688741723	-0.039523178807947	-3.60662251655629	-0.424635761589404	-0.904900662251656				0.928953642384106	-0.0642119205298013	0.493139072847682	-0.126092715231788	11.2278145695364	3.33403973509934				0.949827814569536	-0.161271523178808	-0.0719470198675496	0.567417218543046	-0.973509933774833	-0.48026490066225				0.624529801324503	-0.192529801324503	-0.581721854304636	-7.03708609271523	0.7435761589404	5.26437086092715				0.948026490066225	0.00349668874172187	0.213933774834437	-0.328211920529802	-1.62807947019868	1.90251655629139				0.543788079470199	-0.430834437086093	-0.660238410596027	-3.61960264900662	2.39761589403974	5.68529801324503			
156	3120	0.967841059602649	0.00275496688741723	-0.023523178807947	-1.64662251655629	0.975364238410596	-0.904900662251656				0.912953642384106	-0.0642119205298013	0.525139072847682	4.63390728476821	10.6678145695364	2.21403973509934				0.933827814569536	-0.161271523178808	-0.0879470198675496	-0.272582781456954	0.706490066225167	-0.20026490066225				0.672529801324503	-0.192529801324503	-0.613721854304636	1.36291390728477	3.8235761589404	7.22437086092715				0.932026490066225	0.00349668874172187	0.229933774834437	-0.888211920529802	0.891920529801325	0.502516556291392				0.495788079470199	-0.446834437086093	-0.660238410596027	6.46039735099338	-0.402384105960265	1.48529801324503			
157	3140	0.951841059602649	0.00275496688741723	-0.023523178807947	-1.92662251655629	2.3753642384106	-0.0649006622516557				0.880953642384106	-0.0802119205298013	0.413139072847682	4.91390728476821	0.587814569536424	2.49403973509934				0.949827814569536	-0.161271523178808	-0.0719470198675496	-2.79258278145695	2.94649006622517	-0.48026490066225				0.688529801324503	-0.240529801324503	-0.645721854304636	0.802913907284768	5.2235761589404	6.66437086092715				0.916026490066225	0.0194966887417219	0.245933774834437	1.0717880794702	3.97192052980133	1.34251655629139				0.495788079470199	-0.462834437086093	-0.660238410596027	6.74039735099338	0.997615894039735	-1.87470198675497			
158	3160	0.967841059602649	0.0187549668874172	-0.00752317880794696	-3.04662251655629	3.4953642384106	-0.904900662251656				0.880953642384106	-0.0482119205298013	0.381139072847682	2.11390728476821	1.70781456953642	1.65403973509934				0.949827814569536	-0.177271523178808	-0.0719470198675496	-5.03258278145695	3.22649006622517	-0.48026490066225				0.672529801324503	-0.240529801324503	-0.661721854304636	-3.11708609271523	4.6635761589404	7.22437086092715				0.932026490066225	0.0194966887417219	0.245933774834437	1.3517880794702	5.09192052980133	-0.337483443708608				0.495788079470199	-0.494834437086093	-0.644238410596026	4.78039735099338	2.39761589403974	-0.474701986754968			
159	3180	0.983841059602649	0.0187549668874172	-0.00752317880794696	-3.32662251655629	3.4953642384106	-0.624900662251656				0.912953642384106	-0.0482119205298013	0.413139072847682	-0.126092715231788	5.90781456953642	-0.30596026490066				0.949827814569536	-0.177271523178808	-0.0719470198675496	-5.87258278145695	2.10649006622517	0.0797350993377501				0.656529801324503	-0.224529801324503	-0.661721854304636	-3.39708609271523	6.3435761589404	6.10437086092715				0.948026490066225	-0.0125033112582781	0.229933774834437	-1.1682119205298	5.37192052980133	-0.617483443708608				0.511788079470199	-0.510834437086093	-0.644238410596026	-1.09960264900662	1.83761589403974	1.76529801324503			
160	3200	0.983841059602649	0.0347549668874172	-0.023523178807947	-3.60662251655629	2.9353642384106	-0.904900662251656				0.912953642384106	-0.0482119205298013	0.477139072847682	-2.36609271523179	3.10781456953642	-2.26596026490066				0.949827814569536	-0.161271523178808	-0.0879470198675496	-4.75258278145695	2.38649006622517	0.63973509933775				0.672529801324503	-0.240529801324503	-0.645721854304636	-0.0370860927152318	8.8635761589404	4.70437086092715				0.948026490066225	0.00349668874172187	0.229933774834437	-4.2482119205298	7.89192052980133	-1.17748344370861				0.511788079470199	-0.494834437086093	-0.676238410596026	-3.61960264900662	2.39761589403974	3.44529801324503			
161	3220	0.983841059602649	0.0187549668874172	-0.023523178807947	-3.32662251655629	1.2553642384106	-0.904900662251656				0.896953642384106	-0.0642119205298013	0.445139072847682	0.153907284768212	-6.69218543046358	-1.42596026490066				0.965827814569536	-0.145271523178808	-0.0719470198675496	-5.03258278145695	1.82649006622517	0.63973509933775				0.736529801324503	-0.240529801324503	-0.629721854304636	-1.15708609271523	6.3435761589404	5.26437086092715				0.948026490066225	0.0194966887417219	0.229933774834437	-6.7682119205298	9.01192052980133	-2.01748344370861				0.527788079470199	-0.478834437086093	-0.676238410596026	-1.37960264900662	0.997615894039735	2.60529801324503			
162	3240	0.967841059602649	0.00275496688741723	-0.00752317880794696	-5.00662251655629	0.695364238410596	-0.0649006622516557				0.880953642384106	-0.0642119205298013	0.397139072847682	-4.32609271523179	-8.93218543046358	-3.94596026490066				0.965827814569536	-0.161271523178808	-0.0879470198675496	-3.91258278145695	1.26649006622517	0.0797350993377501				0.704529801324503	-0.240529801324503	-0.629721854304636	-8.99708609271523	0.4635761589404	4.98437086092715				0.948026490066225	0.0194966887417219	0.229933774834437	-5.6482119205298	5.65192052980133	-1.73748344370861				0.511788079470199	-0.478834437086093	-0.660238410596027	0.580397350993377	-0.682384105960265	4.84529801324503			
163	3260	0.967841059602649	-0.0132450331125828	0.024476821192053	-5.56662251655629	2.9353642384106	-0.0649006622516557				0.880953642384106	-0.0482119205298013	0.397139072847682	-6.84609271523179	-0.252185430463576	-2.82596026490066				0.965827814569536	-0.161271523178808	-0.0879470198675496	-2.23258278145695	0.706490066225167	0.63973509933775				0.688529801324503	-0.224529801324503	-0.629721854304636	-8.43708609271523	-1.4964238410596	2.18437086092715				0.932026490066225	0.00349668874172187	0.245933774834437	-3.6882119205298	5.93192052980133	-0.897483443708608				0.511788079470199	-0.494834437086093	-0.660238410596027	2.26039735099338	-1.52238410596026	5.12529801324503			
164	3280	0.967841059602649	-0.0132450331125828	0.024476821192053	-6.40662251655629	4.6153642384106	-0.624900662251656				0.880953642384106	-0.0802119205298013	0.461139072847682	-7.12609271523179	9.54781456953642	-1.42596026490066				0.965827814569536	-0.177271523178808	-0.0879470198675496	-0.832582781456954	1.54649006622517	0.0797350993377501				0.736529801324503	-0.224529801324503	-0.645721854304636	-4.51708609271523	-1.7764238410596	0.784370860927152				0.948026490066225	0.0194966887417219	0.245933774834437	-1.7282119205298	5.65192052980133	-0.617483443708608				0.511788079470199	-0.478834437086093	-0.660238410596027	0.580397350993377	-0.402384105960265	4.28529801324503			
165	3300	0.983841059602649	0.00275496688741723	0.024476821192053	-5.56662251655629	4.8953642384106	-0.624900662251656				0.912953642384106	-0.0802119205298013	0.541139072847682	-4.60609271523179	14.3078145695364	-0.585960264900661				0.949827814569536	-0.161271523178808	-0.10394701986755	-1.39258278145695	2.66649006622517	-0.20026490066225				0.784529801324503	-0.224529801324503	-0.645721854304636	-5.35708609271523	-4.0164238410596	0.784370860927152				0.964026490066225	0.0514966887417219	0.213933774834437	-3.1282119205298	-3.02807947019868	0.222516556291392				0.511788079470199	-0.462834437086093	-0.644238410596026	1.98039735099338	-0.402384105960265	3.16529801324503			
166	3320	0.983841059602649	0.0187549668874172	-0.00752317880794696	-4.44662251655629	4.3353642384106	-1.46490066225166				0.944953642384106	-0.0322119205298013	0.605139072847682	2.39390728476821	11.7878145695364	1.09403973509934				0.965827814569536	-0.161271523178808	-0.0879470198675496	-1.67258278145695	3.78649006622517	0.0797350993377501				0.768529801324503	-0.208529801324503	-0.677721854304636	-8.15708609271523	-6.5364238410596	-0.615629139072848				0.964026490066225	0.0834966887417219	0.245933774834437	-0.888211920529802	-1.90807947019868	-1.17748344370861				0.479788079470199	-0.462834437086093	-0.660238410596027	4.22039735099338	-0.122384105960265	3.44529801324503			
167	3340	0.983841059602649	0.0347549668874172	-0.023523178807947	-5.00662251655629	2.6553642384106	-1.18490066225166				0.912953642384106	-0.0322119205298013	0.493139072847682	6.31390728476821	-2.77218543046358	1.93403973509934				0.981827814569536	-0.161271523178808	-0.0879470198675496	-1.39258278145695	3.50649006622517	0.0797350993377501				0.736529801324503	-0.208529801324503	-0.661721854304636	-7.31708609271523	-8.2164238410596	-3.97562913907285				0.948026490066225	0.0674966887417219	0.277933774834437	6.6717880794702	1.17192052980133	-3.13748344370861				0.479788079470199	-0.478834437086093	-0.660238410596027	1.70039735099338	1.27761589403974	3.72529801324503			
168	3360	0.967841059602649	0.0187549668874172	-0.00752317880794696	-1.64662251655629	1.2553642384106	-0.344900662251656				0.880953642384106	-0.0482119205298013	0.429139072847682	4.07390728476821	-0.532185430463576	2.77403973509934				0.981827814569536	-0.161271523178808	-0.0879470198675496	0.567417218543046	3.22649006622517	0.35973509933775				0.688529801324503	-0.208529801324503	-0.645721854304636	-8.43708609271523	-7.6564238410596	-5.37562913907285				0.932026490066225	0.0354966887417219	0.261933774834437	7.2317880794702	1.17192052980133	-3.69748344370861				0.511788079470199	-0.478834437086093	-0.644238410596026	-5.01960264900662	2.39761589403974	5.40529801324503			
169	3380	0.951841059602649	-0.0132450331125828	0.024476821192053	1.71337748344371	1.8153642384106	0.215099337748344				0.880953642384106	-0.0322119205298013	0.477139072847682	4.35390728476821	8.14781456953643	2.49403973509934				0.981827814569536	-0.161271523178808	-0.0719470198675496	2.52741721854305	1.82649006622517	0.35973509933775				0.688529801324503	-0.208529801324503	-0.613721854304636	-9.83708609271523	-5.1364238410596	-7.05562913907285				0.916026490066225	0.0194966887417219	0.261933774834437	7.5117880794702	5.37192052980133	-4.81748344370861				0.543788079470199	-0.478834437086093	-0.644238410596026	-3.05960264900662	2.67761589403974	3.16529801324503			
170	3400	0.967841059602649	0.00275496688741723	0.024476821192053	2.55337748344371	2.6553642384106	-0.344900662251656				0.912953642384106	-0.0322119205298013	0.541139072847682	4.91390728476821	5.34781456953642	2.49403973509934				0.965827814569536	-0.161271523178808	-0.0879470198675496	2.52741721854305	1.82649006622517	1.19973509933775				0.624529801324503	-0.176529801324503	-0.581721854304636	-7.31708609271523	0.1835761589404	-5.93562913907285				0.932026490066225	0.0194966887417219	0.293933774834437	6.9517880794702	7.33192052980133	-4.81748344370861				0.575788079470199	-0.478834437086093	-0.644238410596026	1.42039735099338	1.27761589403974	-0.474701986754968			
171	3420	0.983841059602649	0.00275496688741723	0.024476821192053	1.71337748344371	3.2153642384106	0.215099337748344				0.912953642384106	-0.0482119205298013	0.461139072847682	3.79390728476821	-4.45218543046358	2.21403973509934				0.949827814569536	-0.161271523178808	-0.0879470198675496	2.24741721854305	0.986490066225167	0.91973509933775				0.576529801324503	-0.160529801324503	-0.597721854304636	-1.43708609271523	6.3435761589404	-3.97562913907285				0.932026490066225	0.0194966887417219	0.261933774834437	1.0717880794702	4.81192052980133	-4.81748344370861				0.575788079470199	-0.494834437086093	-0.628238410596026	1.42039735099338	-3.20238410596026	-2.43470198675497			
172	3440	0.983841059602649	0.0347549668874172	0.00847682119205304	0.593377483443709	2.6553642384106	-0.624900662251656				0.880953642384106	-0.0482119205298013	0.413139072847682	0.153907284768212	-6.97218543046358	1.37403973509934				0.949827814569536	-0.161271523178808	-0.0719470198675496	1.40741721854305	0.986490066225167	1.19973509933775				0.624529801324503	-0.160529801324503	-0.597721854304636	6.96291390728477	12.7835761589404	-2.29562913907285				0.916026490066225	0.0194966887417219	0.261933774834437	-0.888211920529802	6.21192052980133	-2.57748344370861				0.559788079470199	-0.478834437086093	-0.644238410596026	1.42039735099338	-3.76238410596027	-3.83470198675497			
173	3460	0.967841059602649	0.0187549668874172	-0.023523178807947	1.15337748344371	0.415364238410596	-0.344900662251656				0.864953642384106	-0.0642119205298013	0.429139072847682	-0.126092715231788	-2.49218543046358	1.37403973509934				0.949827814569536	-0.177271523178808	-0.0719470198675496	2.24741721854305	0.986490066225167	0.91973509933775				0.704529801324503	-0.160529801324503	-0.597721854304636	13.1229139072848	14.1835761589404	1.62437086092715				0.916026490066225	0.0354966887417219	0.261933774834437	-1.4482119205298	6.49192052980132	-1.17748344370861				0.543788079470199	-0.478834437086093	-0.644238410596026	4.22039735099338	-1.80238410596026	-5.51470198675497			
174	3480	0.967841059602649	0.00275496688741723	0.040476821192053	0.313377483443709	-0.144635761589404	-0.0649006622516557				0.880953642384106	-0.0482119205298013	0.429139072847682	-0.406092715231788	3.94781456953642	-0.86596026490066				0.949827814569536	-0.145271523178808	-0.0719470198675496	3.92741721854305	0.426490066225167	0.35973509933775				0.720529801324503	-0.192529801324503	-0.629721854304636	7.80291390728477	8.8635761589404	1.34437086092715				0.916026490066225	0.0514966887417219	0.293933774834437	-1.7282119205298	2.57192052980133	0.222516556291392				0.543788079470199	-0.494834437086093	-0.644238410596026	9.54039735099338	-0.962384105960265	-6.91470198675497			
175	3500	0.951841059602649	0.00275496688741723	0.00847682119205304	-0.246622516556291	2.0953642384106	0.215099337748344				0.864953642384106	-0.0322119205298013	0.477139072847682	-0.686092715231788	8.70781456953642	-0.30596026490066				0.949827814569536	-0.145271523178808	-0.0559470198675496	4.48741721854305	-1.53350993377483	0.35973509933775				0.704529801324503	-0.208529801324503	-0.661721854304636	2.48291390728477	3.2635761589404	-0.895629139072848				0.948026490066225	0.0514966887417219	0.245933774834437	-1.7282119205298	2.01192052980133	1.34251655629139				0.511788079470199	-0.510834437086093	-0.628238410596026	8.98039735099338	-2.64238410596027	-4.39470198675497			
176	3520	0.967841059602649	-0.0132450331125828	0.024476821192053	0.873377483443709	4.3353642384106	-0.0649006622516557				0.912953642384106	-0.0962119205298013	0.525139072847682	1.83390728476821	12.6278145695364	0.81403973509934				0.949827814569536	-0.161271523178808	-0.0719470198675496	4.76741721854305	-0.413509933774833	0.63973509933775				0.736529801324503	-0.208529801324503	-0.661721854304636	4.72291390728477	4.9435761589404	-1.45562913907285				0.964026490066225	0.0514966887417219	0.245933774834437	0.231788079470198	-1.34807947019868	2.74251655629139				0.495788079470199	-0.510834437086093	-0.644238410596026	-0.259602649006623	-1.52238410596026	0.365298013245032			
177	3540	0	0	0	0	0	0				0.928953642384106	-0.0642119205298013	0.573139072847682	0.993907284768212	6.74781456953642	0.25403973509934				0.965827814569536	-0.177271523178808	-0.0719470198675496	4.76741721854305	0.146490066225167	-0.20026490066225				0.688529801324503	-0.208529801324503	-0.661721854304636	1.92291390728477	6.3435761589404	-3.97562913907285				0.948026490066225	0.0354966887417219	0.293933774834437	1.0717880794702	0.331920529801325	1.06251655629139				0.479788079470199	-0.478834437086093	-0.692238410596026	-0.819602649006623	-0.122384105960265	-0.194701986754968			
