No	Time	12-AccX	12-AccY	12-AccZ	12-GyroX	12-GyroY	12-GyroZ	13-AccX	13-AccY	13-AccZ	13-GyroX	13-GyroY	13-GyroZ	14-AccX	14-AccY	14-AccZ	14-GyroX	14-GyroY	14-GyroZ	15-AccX	15-AccY	15-AccZ	15-GyroX	15-GyroY	15-GyroZ	16-AccX	16-AccY	16-AccZ	16-GyroX	16-GyroY	16-GyroZ	17-AccX	17-AccY	17-AccZ	17-GyroX	17-GyroY	17-GyroZ
0	0	0	0	0	0	0	0				0	0	0	0	0	0				0	0	0	0	0	0				0	0	0	0	0	0				0	0	0	0	0	0				0.607788079470199	-0.0788344370860927	-0.740238410596026	0.860397350993377	-2.64238410596027	0.0852980132450323			
1	20	0	0	0	0	0	0				0	0	0	0	0	0				-0.234172185430464	-0.209271523178808	-0.87194701986755	0.567417218543046	0.706490066225167	-1.04026490066225				0.784529801324503	-0.144529801324503	-0.565721854304636	-1.15708609271523	-2.6164238410596	1.06437086092715				0.932026490066225	0.0354966887417219	0.245933774834437	4.1517880794702	1.73192052980133	-0.337483443708608				0.607788079470199	-0.0788344370860927	-0.724238410596026	0.580397350993377	-2.08238410596027	0.0852980132450323			
2	40	-0.216158940397351	0.130754966887417	-0.935523178807947	-0.806622516556291	0.695364238410596	-0.904900662251656				0.960953642384106	0.0797880794701987	0.301139072847682	0.993907284768212	-3.33218543046358	-0.585960264900661				-0.234172185430464	-0.209271523178808	-0.87194701986755	-0.832582781456954	-0.133509933774833	-1.04026490066225				0.784529801324503	-0.144529801324503	-0.549721854304636	-1.99708609271523	-1.7764238410596	1.06437086092715				0.948026490066225	0.0354966887417219	0.165933774834437	0.231788079470198	-2.46807947019868	-0.617483443708608				0.607788079470199	-0.0948344370860927	-0.724238410596026	-1.09960264900662	-2.36238410596027	0.365298013245032			
3	60	-0.216158940397351	0.130754966887417	-0.951523178807947	-0.526622516556291	0.415364238410596	-0.904900662251656				0.944953642384106	0.0797880794701987	0.301139072847682	1.83390728476821	-1.93218543046358	0.25403973509934				-0.234172185430464	-0.193271523178808	-0.85594701986755	-1.11258278145695	0.986490066225167	-0.20026490066225				0.784529801324503	-0.160529801324503	-0.533721854304636	-1.71708609271523	-2.8964238410596	1.62437086092715				0.932026490066225	0.0514966887417219	0.229933774834437	-2.8482119205298	2.01192052980133	-2.01748344370861				0.623788079470199	-0.0788344370860927	-0.708238410596026	0.300397350993377	-2.92238410596027	0.365298013245032			
4	80	-0.232158940397351	0.130754966887417	-0.951523178807947	-0.246622516556291	0.415364238410596	-1.46490066225166				0.944953642384106	0.0637880794701987	0.269139072847682	0.153907284768212	0.867814569536424	-0.0259602649006601				-0.234172185430464	-0.209271523178808	-0.85594701986755	0.567417218543046	0.706490066225167	0.0797350993377501				0.784529801324503	-0.144529801324503	-0.549721854304636	-3.95708609271523	-3.7364238410596	1.34437086092715				0.916026490066225	0.0354966887417219	0.245933774834437	-2.5682119205298	2.01192052980133	-2.01748344370861				0.623788079470199	-0.0948344370860927	-0.724238410596026	0.860397350993377	-2.36238410596027	0.645298013245032			
5	100	-0.232158940397351	0.130754966887417	-0.919523178807947	-0.246622516556291	0.695364238410596	-0.624900662251656				0.944953642384106	0.0797880794701987	0.317139072847682	-4.04609271523179	2.82781456953642	-1.14596026490066				-0.234172185430464	-0.209271523178808	-0.87194701986755	0.847417218543046	0.146490066225167	-0.20026490066225				0.784529801324503	-0.144529801324503	-0.549721854304636	-3.11708609271523	-2.3364238410596	1.62437086092715				0.932026490066225	0.0354966887417219	0.213933774834437	-0.888211920529802	2.01192052980133	-1.73748344370861				0.623788079470199	-0.0948344370860927	-0.724238410596026	0.860397350993377	-1.80238410596026	0.645298013245032			
6	120	-0.232158940397351	0.130754966887417	-0.935523178807947	-0.526622516556291	-0.144635761589404	-0.904900662251656				0.960953642384106	0.0797880794701987	0.317139072847682	-3.48609271523179	-0.812185430463576	-0.86596026490066				-0.234172185430464	-0.209271523178808	-0.85594701986755	-0.272582781456954	0.146490066225167	-0.48026490066225				0.784529801324503	-0.144529801324503	-0.533721854304636	-3.67708609271523	-1.4964238410596	1.34437086092715				0.948026490066225	0.0354966887417219	0.229933774834437	0.791788079470198	2.29192052980133	-0.897483443708608				0.623788079470199	-0.0788344370860927	-0.724238410596026	0.580397350993377	-1.24238410596026	0.365298013245032			
7	140	-0.232158940397351	0.130754966887417	-0.951523178807947	-0.526622516556291	-0.144635761589404	-1.18490066225166				0.960953642384106	0.0637880794701987	0.301139072847682	-2.08609271523179	-2.77218543046358	-1.14596026490066				-0.250172185430464	-0.209271523178808	-0.85594701986755	-1.11258278145695	0.706490066225167	0.0797350993377501				0.768529801324503	-0.128529801324503	-0.533721854304636	-3.95708609271523	-2.3364238410596	0.784370860927152				0.948026490066225	0.0514966887417219	0.229933774834437	-0.888211920529802	2.29192052980133	-1.17748344370861				0.623788079470199	-0.0948344370860927	-0.724238410596026	0.0203973509933773	-0.402384105960265	0.365298013245032			
8	160	-0.248158940397351	0.130754966887417	-0.935523178807947	-0.246622516556291	0.975364238410596	-1.18490066225166				0.944953642384106	0.0797880794701987	0.301139072847682	0.153907284768212	-2.21218543046358	-1.14596026490066				-0.234172185430464	-0.209271523178808	-0.87194701986755	-0.552582781456954	0.426490066225167	-0.20026490066225				0.784529801324503	-0.144529801324503	-0.533721854304636	-2.83708609271523	-2.3364238410596	1.06437086092715				0.948026490066225	0.0514966887417219	0.245933774834437	-2.0082119205298	0.611920529801325	-1.17748344370861				0.623788079470199	-0.0948344370860927	-0.724238410596026	0.300397350993377	-1.52238410596026	0.0852980132450323			
9	180	-0.232158940397351	0.130754966887417	-0.935523178807947	-0.526622516556291	0.135364238410596	-0.904900662251656				0.944953642384106	0.0637880794701987	0.285139072847682	1.83390728476821	-3.05218543046358	0.25403973509934				-0.250172185430464	-0.193271523178808	-0.87194701986755	0.00741721854304636	0.706490066225167	-0.20026490066225				0.784529801324503	-0.144529801324503	-0.533721854304636	-1.15708609271523	-1.7764238410596	0.784370860927152				0.932026490066225	0.0354966887417219	0.245933774834437	-1.7282119205298	0.611920529801325	-0.617483443708608				0.623788079470199	-0.0948344370860927	-0.708238410596026	-0.259602649006623	-1.24238410596026	0.925298013245032			
10	200	-0.232158940397351	0.130754966887417	-0.935523178807947	-0.526622516556291	-0.144635761589404	-0.904900662251656				0.944953642384106	0.0637880794701987	0.301139072847682	1.83390728476821	-3.33218543046358	0.25403973509934				-0.234172185430464	-0.193271523178808	-0.87194701986755	-0.552582781456954	0.986490066225167	0.0797350993377501				0.800529801324503	-0.128529801324503	-0.517721854304636	-1.43708609271523	-1.2164238410596	0.504370860927152				0.948026490066225	0.0354966887417219	0.229933774834437	-0.328211920529802	0.0519205298013249	-0.617483443708608				0.623788079470199	-0.0948344370860927	-0.724238410596026	0.0203973509933773	-0.962384105960265	0.925298013245032			
11	220	-0.232158940397351	0.130754966887417	-0.935523178807947	-1.36662251655629	0.415364238410596	-1.18490066225166				0.944953642384106	0.0797880794701987	0.301139072847682	-0.126092715231788	-2.49218543046358	-0.86596026490066				-0.234172185430464	-0.193271523178808	-0.87194701986755	0.287417218543046	0.426490066225167	-0.48026490066225				0.784529801324503	-0.144529801324503	-0.533721854304636	-0.317086092715232	-1.2164238410596	-0.335629139072848				0.948026490066225	0.0514966887417219	0.245933774834437	-0.0482119205298018	-0.228079470198675	-0.617483443708608				0.623788079470199	-0.0948344370860927	-0.724238410596026	-0.819602649006623	-1.24238410596026	0.645298013245032			
12	240	-0.232158940397351	0.114754966887417	-0.951523178807947	-0.806622516556291	0.415364238410596	-0.624900662251656				0.944953642384106	0.0637880794701987	0.285139072847682	-2.08609271523179	-0.812185430463576	-0.86596026490066				-0.234172185430464	-0.209271523178808	-0.85594701986755	-1.11258278145695	0.146490066225167	-0.76026490066225				0.784529801324503	-0.144529801324503	-0.549721854304636	2.48291390728477	-0.3764238410596	-0.0556291390728476				0.932026490066225	0.0354966887417219	0.229933774834437	1.0717880794702	-0.228079470198675	-0.617483443708608				0.591788079470199	-0.0788344370860927	-0.708238410596026	0.300397350993377	-0.682384105960265	0.645298013245032			
13	260	-0.232158940397351	0.130754966887417	-0.935523178807947	-0.246622516556291	0.135364238410596	-0.624900662251656				0.944953642384106	0.0637880794701987	0.285139072847682	-2.36609271523179	0.0278145695364242	-1.42596026490066				-0.234172185430464	-0.209271523178808	-0.87194701986755	-0.272582781456954	-0.413509933774833	-0.48026490066225				0.800529801324503	-0.160529801324503	-0.549721854304636	0.802913907284768	-1.7764238410596	-1.73562913907285				0.948026490066225	0.0194966887417219	0.229933774834437	-0.888211920529802	-0.508079470198675	-1.73748344370861				0.607788079470199	-0.110834437086093	-0.708238410596026	0.300397350993377	-0.402384105960265	-0.754701986754968			
14	280	-0.232158940397351	0.130754966887417	-0.887523178807947	-0.526622516556291	-0.144635761589404	-0.344900662251656				0.944953642384106	0.0797880794701987	0.301139072847682	-0.966092715231788	0.307814569536424	-1.98596026490066				-0.234172185430464	-0.193271523178808	-0.85594701986755	-1.67258278145695	-0.413509933774833	-0.76026490066225				0.800529801324503	-0.144529801324503	-0.533721854304636	-2.27708609271523	-3.4564238410596	-3.41562913907285				0.948026490066225	0.0194966887417219	0.229933774834437	-2.2882119205298	-0.788079470198675	-3.13748344370861				0.607788079470199	-0.126834437086093	-0.708238410596026	-1.65960264900662	0.157615894039735	-0.754701986754968			
15	300	-0.232158940397351	0.114754966887417	-0.919523178807947	-0.246622516556291	-0.704635761589404	-0.904900662251656				0.944953642384106	0.0797880794701987	0.269139072847682	-2.36609271523179	0.0278145695364242	-1.42596026490066				-0.250172185430464	-0.193271523178808	-0.87194701986755	-0.552582781456954	-0.973509933774833	-0.48026490066225				0.784529801324503	-0.144529801324503	-0.533721854304636	-1.15708609271523	-4.2964238410596	-2.57562913907285				0.948026490066225	0.0354966887417219	0.245933774834437	-1.7282119205298	-2.46807947019868	-2.57748344370861				0.607788079470199	-0.0948344370860927	-0.724238410596026	-5.01960264900662	0.997615894039735	0.0852980132450323			
16	320	-0.232158940397351	0.114754966887417	-0.951523178807947	-0.246622516556291	-0.424635761589404	-0.904900662251656				0.944953642384106	0.0637880794701987	0.269139072847682	-3.48609271523179	0.867814569536424	-2.54596026490066				-0.234172185430464	-0.209271523178808	-0.85594701986755	0.287417218543046	-0.973509933774833	-0.20026490066225				0.800529801324503	-0.144529801324503	-0.549721854304636	0.522913907284768	-3.7364238410596	-1.17562913907285				0.948026490066225	0.0514966887417219	0.229933774834437	-1.1682119205298	-3.86807947019868	-3.13748344370861				0.607788079470199	-0.0948344370860927	-0.724238410596026	-4.45960264900662	1.55761589403974	-0.194701986754968			
17	340	-0.232158940397351	0.130754966887417	-0.935523178807947	-1.64662251655629	-0.424635761589404	-0.904900662251656				0.960953642384106	0.0797880794701987	0.301139072847682	-2.36609271523179	2.54781456953642	-2.26596026490066				-0.234172185430464	-0.193271523178808	-0.85594701986755	-0.832582781456954	-0.413509933774833	-0.20026490066225				0.784529801324503	-0.160529801324503	-0.549721854304636	1.36291390728477	-2.3364238410596	0.784370860927152				0.932026490066225	0.0514966887417219	0.229933774834437	0.231788079470198	-3.30807947019868	-2.01748344370861				0.607788079470199	-0.0788344370860927	-0.740238410596026	-1.09960264900662	3.23761589403974	-0.754701986754968			
18	360	-0.232158940397351	0.130754966887417	-0.935523178807947	-1.08662251655629	-0.424635761589404	-0.344900662251656				0.976953642384106	0.0797880794701987	0.301139072847682	-0.966092715231788	1.42781456953642	-2.82596026490066				-0.250172185430464	-0.193271523178808	-0.87194701986755	-0.832582781456954	0.146490066225167	0.0797350993377501				0.784529801324503	-0.144529801324503	-0.549721854304636	-0.597086092715232	-2.8964238410596	-0.0556291390728476				0.948026490066225	0.0354966887417219	0.229933774834437	1.3517880794702	-2.18807947019868	-2.01748344370861				0.607788079470199	-0.0948344370860927	-0.724238410596026	-1.37960264900662	2.11761589403974	0.0852980132450323			
19	380	-0.232158940397351	0.130754966887417	-0.935523178807947	-0.806622516556291	0.135364238410596	-0.624900662251656				0.960953642384106	0.0797880794701987	0.285139072847682	0.993907284768212	-0.532185430463576	-1.70596026490066				-0.250172185430464	-0.193271523178808	-0.87194701986755	-1.95258278145695	-0.133509933774833	0.0797350993377501				0.784529801324503	-0.128529801324503	-0.549721854304636	-1.15708609271523	-2.3364238410596	0.504370860927152				0.964026490066225	0.0674966887417219	0.213933774834437	0.791788079470198	-1.34807947019868	-2.85748344370861				0.607788079470199	-0.0788344370860927	-0.756238410596026	-1.93960264900662	1.27761589403974	0.645298013245032			
20	400	-0.232158940397351	0.130754966887417	-0.935523178807947	-1.36662251655629	0.135364238410596	-0.0649006622516557				0.960953642384106	0.0797880794701987	0.301139072847682	1.27390728476821	-1.37218543046358	-1.70596026490066				-0.250172185430464	-0.193271523178808	-0.87194701986755	0.00741721854304636	-0.413509933774833	-0.48026490066225				0.784529801324503	-0.144529801324503	-0.549721854304636	0.802913907284768	0.7435761589404	1.62437086092715				0.964026490066225	0.0514966887417219	0.213933774834437	0.511788079470198	-1.90807947019868	-2.01748344370861				0.623788079470199	-0.0628344370860927	-0.756238410596026	-1.65960264900662	0.717615894039735	0.0852980132450323			
21	420	-0.232158940397351	0.130754966887417	-0.935523178807947	-1.64662251655629	0.135364238410596	-0.624900662251656				0.960953642384106	0.0797880794701987	0.285139072847682	0.153907284768212	-1.93218543046358	-1.42596026490066				-0.250172185430464	-0.193271523178808	-0.87194701986755	-0.272582781456954	0.986490066225167	0.0797350993377501				0.784529801324503	-0.128529801324503	-0.565721854304636	3.04291390728477	1.0235761589404	2.46437086092715				0.964026490066225	0.0514966887417219	0.197933774834437	1.9117880794702	-1.90807947019868	-0.897483443708608				0.623788079470199	-0.0628344370860927	-0.756238410596026	-1.37960264900662	1.27761589403974	0.365298013245032			
22	440	-0.232158940397351	0.130754966887417	-0.935523178807947	-1.36662251655629	0.135364238410596	-0.344900662251656				0.960953642384106	0.0957880794701987	0.269139072847682	-0.126092715231788	-1.09218543046358	-1.42596026490066				-0.250172185430464	-0.193271523178808	-0.87194701986755	-1.39258278145695	-0.133509933774833	0.0797350993377501				0.768529801324503	-0.144529801324503	-0.565721854304636	3.04291390728477	1.3035761589404	2.74437086092715				0.948026490066225	0.0514966887417219	0.197933774834437	2.4717880794702	-2.46807947019868	-0.0574834437086077				0.623788079470199	-0.0628344370860927	-0.740238410596026	1.98039735099338	-1.24238410596026	-0.194701986754968			
23	460	-0.232158940397351	0.130754966887417	-0.935523178807947	-0.806622516556291	0.695364238410596	-0.904900662251656				0.960953642384106	0.0797880794701987	0.285139072847682	0.713907284768212	-0.532185430463576	-2.26596026490066				-0.250172185430464	-0.193271523178808	-0.87194701986755	-1.39258278145695	0.706490066225167	-0.20026490066225				0.752529801324503	-0.160529801324503	-0.581721854304636	3.60291390728477	1.0235761589404	2.18437086092715				0.948026490066225	0.0514966887417219	0.197933774834437	2.7517880794702	-1.62807947019868	0.502516556291392				0.623788079470199	-0.0788344370860927	-0.708238410596026	1.14039735099338	-1.52238410596026	-0.194701986754968			
24	480	-0.232158940397351	0.146754966887417	-0.935523178807947	-1.64662251655629	0.975364238410596	-0.624900662251656				0.960953642384106	0.0957880794701987	0.301139072847682	2.67390728476821	-0.812185430463576	-1.14596026490066				-0.250172185430464	-0.193271523178808	-0.87194701986755	-1.67258278145695	-0.413509933774833	-0.76026490066225				0.768529801324503	-0.160529801324503	-0.565721854304636	1.64291390728477	1.0235761589404	2.18437086092715				0.948026490066225	0.0514966887417219	0.213933774834437	1.0717880794702	-0.788079470198675	0.502516556291392				0.623788079470199	-0.0788344370860927	-0.724238410596026	0.580397350993377	-1.80238410596026	0.0852980132450323			
25	500	-0.232158940397351	0.130754966887417	-0.919523178807947	-0.526622516556291	0.975364238410596	-0.624900662251656				0.944953642384106	0.111788079470199	0.285139072847682	3.51390728476821	-1.65218543046358	-0.30596026490066				-0.250172185430464	-0.177271523178808	-0.87194701986755	-0.832582781456954	-0.133509933774833	0.35973509933775				0.784529801324503	-0.144529801324503	-0.565721854304636	-0.317086092715232	0.1835761589404	2.46437086092715				0.948026490066225	0.0514966887417219	0.197933774834437	1.6317880794702	-1.62807947019868	-0.337483443708608				0.607788079470199	-0.0788344370860927	-0.724238410596026	-0.819602649006623	-0.682384105960265	1.76529801324503			
26	520	-0.216158940397351	0.130754966887417	-0.919523178807947	-0.806622516556291	0.695364238410596	-0.344900662251656				0.944953642384106	0.0957880794701987	0.285139072847682	2.39390728476821	0.867814569536424	-0.86596026490066				-0.234172185430464	-0.177271523178808	-0.87194701986755	0.00741721854304636	0.426490066225167	0.0797350993377501				0.768529801324503	-0.144529801324503	-0.581721854304636	1.36291390728477	0.4635761589404	2.46437086092715				0.932026490066225	0.0674966887417219	0.197933774834437	1.3517880794702	-1.06807947019868	1.06251655629139				0.607788079470199	-0.0628344370860927	-0.740238410596026	-0.259602649006623	-0.682384105960265	0.925298013245032			
27	540	-0.232158940397351	0.146754966887417	-0.935523178807947	-0.526622516556291	0.135364238410596	-0.624900662251656				0.944953642384106	0.0957880794701987	0.285139072847682	1.27390728476821	0.867814569536424	-0.585960264900661				-0.250172185430464	-0.177271523178808	-0.87194701986755	-0.272582781456954	0.146490066225167	0.0797350993377501				0.768529801324503	-0.160529801324503	-0.581721854304636	0.802913907284768	0.7435761589404	1.90437086092715				0.932026490066225	0.0514966887417219	0.197933774834437	1.9117880794702	-0.228079470198675	-0.0574834437086077				0.591788079470199	-0.0788344370860927	-0.724238410596026	0.580397350993377	-1.52238410596026	-0.194701986754968			
28	560	-0.216158940397351	0.146754966887417	-0.935523178807947	-0.526622516556291	0.695364238410596	-0.344900662251656				0.960953642384106	0.111788079470199	0.285139072847682	-0.126092715231788	2.54781456953642	-1.14596026490066				-0.250172185430464	-0.193271523178808	-0.87194701986755	0.00741721854304636	0.706490066225167	0.35973509933775				0.768529801324503	-0.160529801324503	-0.565721854304636	-2.27708609271523	-0.9364238410596	1.62437086092715				0.948026490066225	0.0514966887417219	0.213933774834437	0.791788079470198	-0.508079470198675	-1.45748344370861				0.607788079470199	-0.0788344370860927	-0.724238410596026	0.0203973509933773	-0.962384105960265	-0.194701986754968			
29	580	-0.232158940397351	0.130754966887417	-0.935523178807947	-0.246622516556291	0.415364238410596	-0.904900662251656				0.960953642384106	0.0957880794701987	0.285139072847682	-0.126092715231788	1.14781456953642	0.53403973509934				-0.234172185430464	-0.177271523178808	-0.87194701986755	0.567417218543046	0.426490066225167	-0.76026490066225				0.784529801324503	-0.144529801324503	-0.565721854304636	-2.27708609271523	-2.0564238410596	2.18437086092715				0.948026490066225	0.0514966887417219	0.197933774834437	0.231788079470198	-1.06807947019868	-1.45748344370861				0.607788079470199	-0.0628344370860927	-0.740238410596026	-0.539602649006623	-0.122384105960265	0.925298013245032			
30	600	-0.232158940397351	0.146754966887417	-0.935523178807947	-0.806622516556291	0.415364238410596	-1.46490066225166				0.960953642384106	0.0957880794701987	0.285139072847682	0.153907284768212	0.0278145695364242	0.25403973509934				-0.250172185430464	-0.193271523178808	-0.85594701986755	1.12741721854305	-1.25350993377483	-1.04026490066225				0.784529801324503	-0.128529801324503	-0.565721854304636	-2.27708609271523	-2.3364238410596	2.74437086092715				0.948026490066225	0.0674966887417219	0.213933774834437	0.791788079470198	2.57192052980133	-0.897483443708608				0.607788079470199	-0.0468344370860927	-0.740238410596026	1.42039735099338	1.27761589403974	0.0852980132450323			
31	620	-0.232158940397351	0.146754966887417	-0.935523178807947	-0.526622516556291	0.415364238410596	-0.904900662251656				0.960953642384106	0.111788079470199	0.285139072847682	1.83390728476821	1.14781456953642	-0.0259602649006601				-0.250172185430464	-0.177271523178808	-0.87194701986755	2.24741721854305	-0.413509933774833	-0.48026490066225				0.784529801324503	-0.144529801324503	-0.581721854304636	-2.55708609271523	-2.3364238410596	2.46437086092715				0.948026490066225	0.0834966887417219	0.213933774834437	1.9117880794702	1.17192052980133	-1.17748344370861				0.607788079470199	-0.0628344370860927	-0.724238410596026	1.42039735099338	0.157615894039735	-0.194701986754968			
32	640	-0.216158940397351	0.130754966887417	-0.951523178807947	0.873377483443709	-0.144635761589404	-1.18490066225166				0.944953642384106	0.111788079470199	0.285139072847682	2.11390728476821	3.10781456953642	1.37403973509934				-0.250172185430464	-0.193271523178808	-0.87194701986755	1.96741721854305	0.706490066225167	0.0797350993377501				0.784529801324503	-0.160529801324503	-0.565721854304636	-2.27708609271523	-2.8964238410596	3.30437086092715				0.932026490066225	0.0674966887417219	0.213933774834437	-0.0482119205298018	0.0519205298013249	-1.17748344370861				0.623788079470199	-0.0788344370860927	-0.724238410596026	1.42039735099338	-1.52238410596026	-0.194701986754968			
33	660	-0.232158940397351	0.130754966887417	-0.951523178807947	0.593377483443709	-0.144635761589404	-1.18490066225166				0.944953642384106	0.0957880794701987	0.285139072847682	-1.24609271523179	5.06781456953642	1.37403973509934				-0.250172185430464	-0.193271523178808	-0.87194701986755	3.08741721854305	1.82649006622517	-0.76026490066225				0.768529801324503	-0.144529801324503	-0.581721854304636	-2.83708609271523	-2.0564238410596	4.14437086092715				0.948026490066225	0.0674966887417219	0.213933774834437	-0.888211920529802	2.29192052980133	-2.01748344370861				0.607788079470199	-0.0948344370860927	-0.724238410596026	0.300397350993377	-2.36238410596027	-0.194701986754968			
34	680	-0.232158940397351	0.130754966887417	-0.935523178807947	1.15337748344371	0.135364238410596	-1.18490066225166				0.960953642384106	0.0797880794701987	0.317139072847682	-2.64609271523179	1.98781456953642	1.09403973509934				-0.234172185430464	-0.193271523178808	-0.87194701986755	3.08741721854305	0.146490066225167	-0.76026490066225				0.784529801324503	-0.144529801324503	-0.565721854304636	-3.11708609271523	-1.7764238410596	5.26437086092715				0.964026490066225	0.0674966887417219	0.229933774834437	0.791788079470198	1.45192052980132	-2.01748344370861				0.623788079470199	-0.0788344370860927	-0.740238410596026	-2.49960264900662	-2.36238410596027	0.925298013245032			
35	700	-0.232158940397351	0.146754966887417	-0.935523178807947	0.593377483443709	-0.424635761589404	-1.18490066225166				0.960953642384106	0.0637880794701987	0.301139072847682	-4.32609271523179	-0.812185430463576	1.09403973509934				-0.250172185430464	-0.193271523178808	-0.87194701986755	1.12741721854305	1.26649006622517	-0.76026490066225				0.784529801324503	-0.144529801324503	-0.565721854304636	-3.39708609271523	-3.1764238410596	5.82437086092715				0.948026490066225	0.0514966887417219	0.229933774834437	2.1917880794702	0.611920529801325	-0.617483443708608				0.623788079470199	-0.0788344370860927	-0.740238410596026	-0.539602649006623	-1.80238410596026	2.32529801324503			
36	720	-0.232158940397351	0.130754966887417	-0.951523178807947	0.593377483443709	0.415364238410596	-2.02490066225166				0.960953642384106	0.0797880794701987	0.301139072847682	-4.88609271523179	0.307814569536424	0.25403973509934				-0.234172185430464	-0.209271523178808	-0.87194701986755	1.96741721854305	1.26649006622517	-1.04026490066225				0.768529801324503	-0.144529801324503	-0.565721854304636	-3.11708609271523	-4.5764238410596	6.66437086092715				0.964026490066225	0.0514966887417219	0.213933774834437	1.6317880794702	1.17192052980133	-0.0574834437086077				0.623788079470199	-0.0948344370860927	-0.740238410596026	-0.259602649006623	-2.36238410596027	1.76529801324503			
37	740	-0.232158940397351	0.114754966887417	-0.951523178807947	0.313377483443709	0.415364238410596	-1.46490066225166				0.944953642384106	0.0957880794701987	0.301139072847682	-4.60609271523179	0.867814569536424	0.25403973509934				-0.250172185430464	-0.209271523178808	-0.87194701986755	2.24741721854305	0.986490066225167	-1.04026490066225				0.768529801324503	-0.160529801324503	-0.565721854304636	-3.11708609271523	-5.4164238410596	7.22437086092715				0.948026490066225	0.0514966887417219	0.229933774834437	0.791788079470198	0.0519205298013249	-1.17748344370861				0.623788079470199	-0.0948344370860927	-0.740238410596026	1.14039735099338	-4.04238410596027	2.04529801324503			
38	760	-0.232158940397351	0.114754966887417	-0.935523178807947	0.593377483443709	0.135364238410596	-1.18490066225166				0.960953642384106	0.0797880794701987	0.301139072847682	-4.88609271523179	1.70781456953642	0.81403973509934				-0.250172185430464	-0.209271523178808	-0.87194701986755	1.40741721854305	1.26649006622517	-0.76026490066225				0.784529801324503	-0.160529801324503	-0.581721854304636	-5.07708609271523	-6.2564238410596	6.38437086092715				0.932026490066225	0.0354966887417219	0.229933774834437	-0.0482119205298018	0.0519205298013249	-0.337483443708608				0.623788079470199	-0.0948344370860927	-0.724238410596026	-0.539602649006623	-4.88238410596027	3.44529801324503			
39	780	-0.232158940397351	0.114754966887417	-0.951523178807947	0.313377483443709	0.975364238410596	-1.46490066225166				0.944953642384106	0.0797880794701987	0.301139072847682	-4.88609271523179	1.70781456953642	-0.0259602649006601				-0.234172185430464	-0.209271523178808	-0.85594701986755	1.96741721854305	0.426490066225167	-0.76026490066225				0.784529801324503	-0.160529801324503	-0.581721854304636	-7.31708609271523	-7.9364238410596	8.06437086092715				0.948026490066225	0.0514966887417219	0.213933774834437	-0.888211920529802	0.0519205298013249	-0.0574834437086077				0.623788079470199	-0.110834437086093	-0.724238410596026	-0.259602649006623	-5.16238410596027	4.84529801324503			
40	800	-0.216158940397351	0.130754966887417	-0.935523178807947	0.313377483443709	0.415364238410596	-0.0649006622516557				0.944953642384106	0.0797880794701987	0.285139072847682	-4.60609271523179	2.54781456953642	0.25403973509934				-0.234172185430464	-0.193271523178808	-0.85594701986755	0.287417218543046	0.986490066225167	0.0797350993377501				0.768529801324503	-0.160529801324503	-0.565721854304636	-5.63708609271523	-8.7764238410596	8.62437086092715				0.932026490066225	0.0514966887417219	0.213933774834437	-0.888211920529802	-0.788079470198675	-0.337483443708608				0.623788079470199	-0.0948344370860927	-0.724238410596026	-0.819602649006623	-6.56238410596027	5.68529801324503			
41	820	-0.232158940397351	0.114754966887417	-0.935523178807947	0.313377483443709	0.135364238410596	0.215099337748344				0.928953642384106	0.0637880794701987	0.301139072847682	-5.16609271523179	4.78781456953642	-0.0259602649006601				-0.234172185430464	-0.209271523178808	-0.85594701986755	0.00741721854304636	0.986490066225167	0.63973509933775				0.752529801324503	-0.160529801324503	-0.565721854304636	-7.87708609271523	-9.8964238410596	8.90437086092715				0.932026490066225	0.0514966887417219	0.213933774834437	-2.0082119205298	-0.508079470198675	-0.0574834437086077				0.607788079470199	-0.0948344370860927	-0.740238410596026	0.860397350993377	-8.24238410596027	7.08529801324503			
42	840	-0.216158940397351	0.114754966887417	-0.951523178807947	-0.806622516556291	-0.424635761589404	-1.18490066225166				0.944953642384106	0.0637880794701987	0.301139072847682	-5.44609271523179	4.50781456953642	-0.0259602649006601				-0.234172185430464	-0.209271523178808	-0.85594701986755	0.287417218543046	-0.973509933774833	0.0797350993377501				0.752529801324503	-0.160529801324503	-0.581721854304636	-8.99708609271523	-10.4564238410596	9.18437086092715				0.932026490066225	0.0354966887417219	0.229933774834437	-2.2882119205298	-0.228079470198675	0.222516556291392				0.607788079470199	-0.0948344370860927	-0.740238410596026	1.14039735099338	-8.52238410596027	7.64529801324503			
43	860	-0.232158940397351	0.130754966887417	-0.935523178807947	-1.08662251655629	-0.144635761589404	-0.344900662251656				0.960953642384106	0.0797880794701987	0.301139072847682	-5.72609271523179	5.34781456953642	-0.30596026490066				-0.250172185430464	-0.193271523178808	-0.85594701986755	0.00741721854304636	-0.973509933774833	0.0797350993377501				0.768529801324503	-0.144529801324503	-0.565721854304636	-10.9570860927152	-12.6964238410596	8.90437086092715				0.932026490066225	0.0194966887417219	0.197933774834437	-3.1282119205298	-1.90807947019868	-0.0574834437086077				0.607788079470199	-0.110834437086093	-0.756238410596026	4.50039735099338	-9.64238410596027	8.48529801324503			
44	880	-0.232158940397351	0.130754966887417	-0.951523178807947	-1.08662251655629	-0.704635761589404	-1.18490066225166				0.960953642384106	0.0797880794701987	0.285139072847682	-6.84609271523179	7.02781456953642	-1.14596026490066				-0.250172185430464	-0.193271523178808	-0.87194701986755	-0.552582781456954	-0.413509933774833	-0.20026490066225				0.752529801324503	-0.160529801324503	-0.565721854304636	-9.83708609271523	-13.2564238410596	10.8643708609272				0.948026490066225	0.0514966887417219	0.245933774834437	-4.2482119205298	0.891920529801325	1.06251655629139				0.607788079470199	-0.0948344370860927	-0.756238410596026	3.38039735099338	-11.0423841059603	9.04529801324503			
45	900	-0.232158940397351	0.130754966887417	-0.935523178807947	-2.20662251655629	-0.144635761589404	-0.904900662251656				0.960953642384106	0.0637880794701987	0.301139072847682	-6.00609271523179	7.58781456953643	-0.30596026490066				-0.250172185430464	-0.193271523178808	-0.87194701986755	-0.552582781456954	0.706490066225167	-0.76026490066225				0.768529801324503	-0.160529801324503	-0.581721854304636	-8.43708609271523	-12.6964238410596	10.3043708609272				0.948026490066225	0.0514966887417219	0.229933774834437	-2.8482119205298	1.17192052980133	1.06251655629139				0.591788079470199	-0.110834437086093	-0.772238410596026	4.22039735099338	-10.2023841059603	7.92529801324503			
46	920	-0.232158940397351	0.130754966887417	-0.935523178807947	-1.64662251655629	0.135364238410596	-0.624900662251656				0.960953642384106	0.0797880794701987	0.333139072847682	-4.60609271523179	5.06781456953642	-1.14596026490066				-0.234172185430464	-0.209271523178808	-0.85594701986755	0.00741721854304636	0.706490066225167	-0.20026490066225				0.784529801324503	-0.144529801324503	-0.597721854304636	-7.87708609271523	-11.8564238410596	11.7043708609272				0.948026490066225	0.0514966887417219	0.213933774834437	-1.1682119205298	0.611920529801325	1.06251655629139				0.575788079470199	-0.110834437086093	-0.772238410596026	5.62039735099338	-10.4823841059603	8.20529801324503			
47	940	-0.232158940397351	0.130754966887417	-0.951523178807947	-1.64662251655629	0.135364238410596	-0.904900662251656				0	0	0	0	0	0				0	0	0	0	0	0				0.784529801324503	-0.160529801324503	-0.597721854304636	-7.87708609271523	-13.5364238410596	11.1443708609272				0.964026490066225	0.0514966887417219	0.229933774834437	-0.328211920529802	0.331920529801325	1.90251655629139				0.575788079470199	-0.126834437086093	-0.772238410596026	5.62039735099338	-9.92238410596027	6.24529801324503			
48	960	0	0	0	0	0	0				0	0	0	0	0	0				0	0	0	0	0	0				0.768529801324503	-0.160529801324503	-0.613721854304636	-7.03708609271523	-16.3364238410596	10.3043708609272				0.964026490066225	0.0514966887417219	0.229933774834437	0.791788079470198	0.0519205298013249	1.34251655629139				0	0	0	0	0	0			
49	980	-0.232158940397351	0.146754966887417	-0.935523178807947	-1.64662251655629	1.2553642384106	-0.624900662251656				0.960953642384106	0.111788079470199	0.317139072847682	-5.44609271523179	2.26781456953642	-2.26596026490066				-0.250172185430464	-0.209271523178808	-0.87194701986755	0.287417218543046	0.706490066225167	-0.20026490066225				0	0	0	0	0	0				0.964026490066225	0.0514966887417219	0.229933774834437	1.0717880794702	-1.90807947019868	-0.617483443708608				0.575788079470199	-0.126834437086093	-0.756238410596026	4.22039735099338	-13.5623841059603	7.08529801324503			
50	1000	-0.232158940397351	0.130754966887417	-0.951523178807947	-0.806622516556291	0.975364238410596	-0.344900662251656				0.944953642384106	0.0797880794701987	0.317139072847682	-3.76609271523179	3.66781456953642	-1.14596026490066				-0.250172185430464	-0.193271523178808	-0.87194701986755	0.567417218543046	1.26649006622517	0.35973509933775				0.768529801324503	-0.176529801324503	-0.613721854304636	-7.87708609271523	-19.4164238410596	10.3043708609272				0.948026490066225	0.0674966887417219	0.229933774834437	1.6317880794702	-2.18807947019868	-0.0574834437086077				0.559788079470199	-0.126834437086093	-0.756238410596026	0.580397350993377	-13.5623841059603	6.80529801324503			
51	1020	-0.232158940397351	0.130754966887417	-0.935523178807947	-0.806622516556291	1.2553642384106	-0.904900662251656				0.944953642384106	0.0957880794701987	0.333139072847682	-1.80609271523179	3.38781456953642	-0.86596026490066				-0.250172185430464	-0.193271523178808	-0.87194701986755	0.567417218543046	2.10649006622517	0.0797350993377501				0.752529801324503	-0.160529801324503	-0.629721854304636	-10.3970860927152	-21.0964238410596	10.0243708609272				0.948026490066225	0.0514966887417219	0.213933774834437	1.6317880794702	-2.74807947019868	-0.0574834437086077				0.559788079470199	-0.110834437086093	-0.756238410596026	0.580397350993377	-12.7223841059603	6.52529801324503			
52	1040	-0.232158940397351	0.146754966887417	-0.935523178807947	-0.806622516556291	1.2553642384106	-0.904900662251656				0.944953642384106	0.0957880794701987	0.333139072847682	0.153907284768212	2.54781456953642	-1.14596026490066				-0.234172185430464	-0.193271523178808	-0.87194701986755	0.847417218543046	1.54649006622517	-0.20026490066225				0.752529801324503	-0.144529801324503	-0.613721854304636	-8.15708609271523	-22.7764238410596	8.06437086092715				0.948026490066225	0.0674966887417219	0.213933774834437	3.3117880794702	-3.02807947019868	-0.617483443708608				0.559788079470199	-0.110834437086093	-0.756238410596026	1.70039735099338	-13.0023841059603	5.68529801324503			
53	1060	-0.216158940397351	0.146754966887417	-0.935523178807947	-0.806622516556291	1.8153642384106	-0.624900662251656				0.944953642384106	0.0957880794701987	0.317139072847682	-0.126092715231788	0.587814569536424	-0.585960264900661				-0.250172185430464	-0.193271523178808	-0.87194701986755	-0.272582781456954	0.426490066225167	-0.20026490066225				0.720529801324503	-0.144529801324503	-0.613721854304636	-7.31708609271523	-24.7364238410596	6.10437086092715				0.932026490066225	0.0514966887417219	0.213933774834437	3.3117880794702	-2.46807947019868	-0.897483443708608				0.527788079470199	-0.110834437086093	-0.756238410596026	0.300397350993377	-11.6023841059603	4.56529801324503			
54	1080	-0.232158940397351	0.146754966887417	-0.935523178807947	-0.806622516556291	0.415364238410596	-0.904900662251656				0.944953642384106	0.0957880794701987	0.301139072847682	-2.36609271523179	-0.252185430463576	-1.42596026490066				-0.234172185430464	-0.193271523178808	-0.87194701986755	0.567417218543046	0.426490066225167	-0.20026490066225				0.736529801324503	-0.144529801324503	-0.645721854304636	-3.11708609271523	-27.5364238410596	4.42437086092715				0.948026490066225	0.0674966887417219	0.229933774834437	4.7117880794702	-2.46807947019868	-2.29748344370861				0.543788079470199	-0.126834437086093	-0.756238410596026	1.14039735099338	-9.36238410596027	3.16529801324503			
55	1100	-0.216158940397351	0.130754966887417	-0.935523178807947	-1.36662251655629	0.415364238410596	-0.904900662251656				0.928953642384106	0.0957880794701987	0.317139072847682	-5.16609271523179	2.54781456953642	-0.86596026490066				-0.234172185430464	-0.193271523178808	-0.85594701986755	0.567417218543046	0.426490066225167	-1.04026490066225				0.720529801324503	-0.144529801324503	-0.645721854304636	-6.47708609271523	-31.1764238410596	1.90437086092715				0.932026490066225	0.0674966887417219	0.229933774834437	4.4317880794702	-2.46807947019868	-1.73748344370861				0.543788079470199	-0.126834437086093	-0.740238410596026	-0.259602649006623	-12.4423841059603	3.44529801324503			
56	1120	-0.216158940397351	0.130754966887417	-0.935523178807947	-0.806622516556291	0.695364238410596	-0.344900662251656				0.912953642384106	0.0797880794701987	0.333139072847682	-5.16609271523179	5.62781456953642	-0.585960264900661				-0.234172185430464	-0.193271523178808	-0.87194701986755	1.12741721854305	0.426490066225167	-0.48026490066225				0.704529801324503	-0.144529801324503	-0.661721854304636	-11.5170860927152	-32.0164238410596	-0.895629139072848				0.932026490066225	0.0514966887417219	0.213933774834437	4.1517880794702	-2.74807947019868	-1.45748344370861				0.543788079470199	-0.126834437086093	-0.756238410596026	-2.21960264900662	-10.2023841059603	4.56529801324503			
57	1140	-0.216158940397351	0.130754966887417	-0.935523178807947	0.0333774834437086	-0.704635761589404	-0.904900662251656				0.944953642384106	0.0957880794701987	0.333139072847682	-2.64609271523179	6.18781456953642	0.25403973509934				-0.234172185430464	-0.209271523178808	-0.87194701986755	1.96741721854305	-0.133509933774833	-0.48026490066225				0.688529801324503	-0.144529801324503	-0.661721854304636	-11.2370860927152	-32.8564238410596	-2.29562913907285				0.916026490066225	0.0674966887417219	0.213933774834437	5.5517880794702	-2.18807947019868	-2.01748344370861				0.543788079470199	-0.126834437086093	-0.756238410596026	-2.21960264900662	-8.80238410596027	5.12529801324503			
58	1160	-0.216158940397351	0.146754966887417	-0.951523178807947	-0.246622516556291	-0.704635761589404	-1.18490066225166				0.944953642384106	0.0957880794701987	0.333139072847682	-1.80609271523179	7.02781456953642	0.53403973509934				-0.234172185430464	-0.209271523178808	-0.87194701986755	0.287417218543046	0.146490066225167	-0.20026490066225				0.672529801324503	-0.128529801324503	-0.661721854304636	-9.83708609271523	-34.2564238410596	-3.97562913907285				0.916026490066225	0.0514966887417219	0.229933774834437	6.1117880794702	-2.46807947019868	-2.57748344370861				0.543788079470199	-0.126834437086093	-0.740238410596026	-2.49960264900662	-5.72238410596027	5.68529801324503			
59	1180	-0.216158940397351	0.130754966887417	-0.935523178807947	0.593377483443709	-0.144635761589404	-0.624900662251656				0.944953642384106	0.0797880794701987	0.333139072847682	-3.48609271523179	7.58781456953643	0.53403973509934				-0.218172185430464	-0.209271523178808	-0.85594701986755	1.68741721854305	-0.693509933774834	0.0797350993377501				0.672529801324503	-0.128529801324503	-0.661721854304636	-12.3570860927152	-33.4164238410596	-4.53562913907285				0.932026490066225	0.0674966887417219	0.245933774834437	9.1917880794702	0.0519205298013249	-1.45748344370861				0.543788079470199	-0.126834437086093	-0.740238410596026	-5.85960264900662	-6.56238410596027	6.80529801324503			
60	1200	-0.232158940397351	0.130754966887417	-0.935523178807947	1.15337748344371	-0.704635761589404	-0.904900662251656				0.928953642384106	0.0797880794701987	0.365139072847682	-4.32609271523179	7.02781456953642	-0.30596026490066				-0.234172185430464	-0.193271523178808	-0.85594701986755	1.40741721854305	0.146490066225167	0.0797350993377501				0.672529801324503	-0.144529801324503	-0.677721854304636	-9.27708609271523	-31.7364238410596	-5.93562913907285				0.948026490066225	0.0514966887417219	0.213933774834437	5.5517880794702	-3.86807947019868	-2.85748344370861				0.575788079470199	-0.110834437086093	-0.772238410596026	-0.539602649006623	-6.84238410596027	7.08529801324503			
61	1220	-0.216158940397351	0.130754966887417	-0.935523178807947	0.313377483443709	-1.2646357615894	-1.74490066225166				0.944953642384106	0.0797880794701987	0.381139072847682	-4.32609271523179	5.34781456953642	-0.86596026490066				-0.234172185430464	-0.209271523178808	-0.87194701986755	0.567417218543046	-0.413509933774833	-0.48026490066225				0.656529801324503	-0.128529801324503	-0.693721854304636	-10.1170860927152	-30.6164238410596	-5.93562913907285				0.932026490066225	0.0674966887417219	0.245933774834437	0.791788079470198	1.73192052980133	-4.25748344370861				0.575788079470199	-0.142834437086093	-0.756238410596026	0.860397350993377	-6.56238410596027	7.08529801324503			
62	1240	-0.248158940397351	0.130754966887417	-0.935523178807947	0.593377483443709	-1.2646357615894	-1.18490066225166				0.960953642384106	0.0637880794701987	0.333139072847682	-7.68609271523179	3.10781456953642	-0.86596026490066				-0.250172185430464	-0.209271523178808	-0.87194701986755	1.96741721854305	-0.973509933774833	-0.48026490066225				0.656529801324503	-0.128529801324503	-0.693721854304636	-12.3570860927152	-29.4964238410596	-4.81562913907285				0.932026490066225	0.0674966887417219	0.229933774834437	1.9117880794702	-0.508079470198675	-2.29748344370861				0.559788079470199	-0.142834437086093	-0.772238410596026	-2.21960264900662	-5.16238410596027	6.80529801324503			
63	1260	-0.232158940397351	0.130754966887417	-0.951523178807947	1.15337748344371	-0.984635761589404	-1.74490066225166				0.960953642384106	0.0637880794701987	0.381139072847682	-9.92609271523179	2.26781456953642	-1.98596026490066				-0.250172185430464	-0.193271523178808	-0.87194701986755	0.847417218543046	0.706490066225167	-0.76026490066225				0.640529801324503	-0.128529801324503	-0.709721854304636	-13.1970860927152	-27.8164238410596	-5.37562913907285				0.964026490066225	0.0514966887417219	0.213933774834437	1.9117880794702	-0.228079470198675	-2.85748344370861				0.559788079470199	-0.142834437086093	-0.772238410596026	0.860397350993377	-5.44238410596027	8.48529801324503			
64	1280	-0.232158940397351	0.130754966887417	-0.951523178807947	1.15337748344371	-0.144635761589404	-1.18490066225166				0.960953642384106	0.0637880794701987	0.349139072847682	-7.40609271523179	-0.812185430463576	-1.70596026490066				-0.234172185430464	-0.209271523178808	-0.87194701986755	0.567417218543046	0.706490066225167	-0.20026490066225				0.640529801324503	-0.0965298013245033	-0.693721854304636	-13.7570860927152	-23.8964238410596	-5.93562913907285				0.980026490066225	0.0674966887417219	0.245933774834437	4.1517880794702	-1.06807947019868	-2.01748344370861				0.575788079470199	-0.158834437086093	-0.788238410596027	-3.89960264900662	-4.04238410596027	8.76529801324503			
65	1300	-0.232158940397351	0.130754966887417	-0.935523178807947	0.593377483443709	-0.144635761589404	-0.904900662251656				0.960953642384106	0.0797880794701987	0.333139072847682	-4.60609271523179	-0.812185430463576	-2.82596026490066				-0.250172185430464	-0.209271523178808	-0.87194701986755	1.40741721854305	0.146490066225167	-0.20026490066225				0.640529801324503	-0.0965298013245033	-0.693721854304636	-9.27708609271523	-23.0564238410596	-3.69562913907285				0.980026490066225	0.0674966887417219	0.229933774834437	1.6317880794702	-1.90807947019868	0.502516556291392				0.591788079470199	-0.142834437086093	-0.788238410596027	-3.89960264900662	-1.80238410596026	9.88529801324503			
66	1320	-0.232158940397351	0.130754966887417	-0.935523178807947	1.15337748344371	-0.984635761589404	-0.344900662251656				0.944953642384106	0.0797880794701987	0.333139072847682	-1.52609271523179	-2.77218543046358	-1.98596026490066				-0.250172185430464	-0.209271523178808	-0.87194701986755	1.96741721854305	-0.133509933774833	-0.76026490066225				0.624529801324503	-0.112529801324503	-0.709721854304636	-4.79708609271523	-20.8164238410596	-2.85562913907285				0.964026490066225	0.0674966887417219	0.229933774834437	-0.608211920529802	-3.58807947019868	-0.0574834437086077				0.559788079470199	-0.142834437086093	-0.772238410596026	-3.33960264900662	-2.08238410596027	10.445298013245			
67	1340	-0.232158940397351	0.114754966887417	-0.935523178807947	1.99337748344371	-0.424635761589404	-0.0649006622516557				0.928953642384106	0.0797880794701987	0.349139072847682	-2.08609271523179	-3.05218543046358	-1.70596026490066				-0.234172185430464	-0.193271523178808	-0.88794701986755	1.12741721854305	0.986490066225167	-0.76026490066225				0.608529801324503	-0.112529801324503	-0.725721854304636	-3.11708609271523	-16.6164238410596	-3.13562913907285				0.948026490066225	0.0674966887417219	0.213933774834437	0.231788079470198	-4.98807947019868	-0.0574834437086077				0.543788079470199	-0.158834437086093	-0.772238410596026	-2.49960264900662	-2.92238410596027	11.845298013245			
68	1360	-0.232158940397351	0.114754966887417	-0.935523178807947	0.873377483443709	-0.144635761589404	-0.0649006622516557				0.944953642384106	0.0797880794701987	0.349139072847682	-2.36609271523179	-3.33218543046358	-1.14596026490066				-0.250172185430464	-0.193271523178808	-0.85594701986755	-0.552582781456954	0.426490066225167	-0.76026490066225				0.608529801324503	-0.0965298013245033	-0.693721854304636	-5.35708609271523	-13.8164238410596	-2.01562913907285				0.948026490066225	0.0674966887417219	0.197933774834437	-0.608211920529802	-6.10807947019868	0.222516556291392				0.527788079470199	-0.158834437086093	-0.772238410596026	-1.93960264900662	-4.04238410596027	14.085298013245			
69	1380	-0.232158940397351	0.114754966887417	-0.951523178807947	0.873377483443709	-0.424635761589404	-0.904900662251656				0.944953642384106	0.0797880794701987	0.333139072847682	-3.76609271523179	-4.45218543046358	-0.86596026490066				-0.234172185430464	-0.209271523178808	-0.87194701986755	1.12741721854305	-0.693509933774834	-1.04026490066225				0.592529801324503	-0.112529801324503	-0.709721854304636	-2.27708609271523	-14.3764238410596	0.784370860927152				0.932026490066225	0.0674966887417219	0.213933774834437	1.0717880794702	-5.26807947019868	1.06251655629139				0.527788079470199	-0.142834437086093	-0.788238410596027	-4.45960264900662	-3.48238410596027	16.605298013245			
70	1400	-0.216158940397351	0.130754966887417	-0.951523178807947	-1.08662251655629	-0.704635761589404	-0.344900662251656				0.944953642384106	0.0637880794701987	0.317139072847682	-5.72609271523179	-6.97218543046358	-2.54596026490066				-0.234172185430464	-0.209271523178808	-0.85594701986755	1.68741721854305	-0.133509933774833	-1.88026490066225				0.592529801324503	-0.112529801324503	-0.725721854304636	1.36291390728477	-12.4164238410596	1.62437086092715				0.932026490066225	0.0514966887417219	0.213933774834437	0.791788079470198	-5.26807947019868	1.06251655629139				0.511788079470199	-0.158834437086093	-0.788238410596027	-3.89960264900662	-2.92238410596027	15.765298013245			
71	1420	-0.232158940397351	0.130754966887417	-0.919523178807947	-1.92662251655629	-0.704635761589404	0.215099337748344				0.960953642384106	0.0957880794701987	0.317139072847682	-5.72609271523179	-10.6121854304636	-2.82596026490066				-0.234172185430464	-0.209271523178808	-0.87194701986755	1.68741721854305	0.146490066225167	-1.32026490066225				0.592529801324503	-0.112529801324503	-0.741721854304636	0.242913907284768	-9.6164238410596	2.46437086092715				0.932026490066225	0.0514966887417219	0.197933774834437	-0.328211920529802	-6.10807947019868	0.782516556291392				0.511788079470199	-0.174834437086093	-0.756238410596026	-4.45960264900662	-2.64238410596027	14.365298013245			
72	1440	-0.232158940397351	0.130754966887417	-0.935523178807947	-1.08662251655629	-1.2646357615894	-0.624900662251656				0.976953642384106	0.0637880794701987	0.333139072847682	-3.20609271523179	-26.0121854304636	-2.82596026490066				-0.250172185430464	-0.209271523178808	-0.87194701986755	-0.832582781456954	-0.693509933774834	-1.04026490066225				0.592529801324503	-0.128529801324503	-0.741721854304636	-2.27708609271523	-8.2164238410596	3.58437086092715				0.948026490066225	0.0514966887417219	0.181933774834437	-0.888211920529802	-5.82807947019868	1.06251655629139				0.527788079470199	-0.174834437086093	-0.772238410596026	-6.13960264900662	-2.36238410596027	17.165298013245			
73	1460	-0.232158940397351	0.146754966887417	-0.951523178807947	0.313377483443709	-1.2646357615894	-0.344900662251656				0.944953642384106	0.0637880794701987	0.301139072847682	-4.60609271523179	-27.4121854304636	-4.78596026490066				-0.250172185430464	-0.193271523178808	-0.87194701986755	-0.272582781456954	-0.693509933774834	-0.20026490066225				0.592529801324503	-0.160529801324503	-0.757721854304636	-1.43708609271523	-9.3364238410596	4.14437086092715				0.948026490066225	0.0514966887417219	0.181933774834437	-1.4482119205298	-6.66807947019868	1.62251655629139				0.527788079470199	-0.158834437086093	-0.804238410596027	-8.93960264900662	-2.36238410596027	20.805298013245			
74	1480	-0.248158940397351	0.130754966887417	-0.951523178807947	-1.64662251655629	-0.424635761589404	-0.344900662251656				0.944953642384106	0.0957880794701987	0.285139072847682	-7.96609271523179	-18.7321854304636	-5.62596026490066				-0.250172185430464	-0.193271523178808	-0.87194701986755	1.96741721854305	0.146490066225167	-0.20026490066225				0.560529801324503	-0.160529801324503	-0.789721854304636	-3.11708609271523	-9.0564238410596	3.86437086092715				0.948026490066225	0.0674966887417219	0.213933774834437	-3.9682119205298	-2.46807947019868	1.34251655629139				0.511788079470199	-0.142834437086093	-0.804238410596027	-6.97960264900662	-3.20238410596026	21.085298013245			
75	1500	-0.216158940397351	0.130754966887417	-0.935523178807947	-1.36662251655629	-0.144635761589404	0.495099337748344				0.976953642384106	0.0797880794701987	0.301139072847682	-5.16609271523179	-18.1721854304636	-3.66596026490066				-0.234172185430464	-0.225271523178808	-0.85594701986755	1.40741721854305	0.706490066225167	-0.20026490066225				0.560529801324503	-0.144529801324503	-0.789721854304636	-0.0370860927152318	-7.6564238410596	3.30437086092715				0.964026490066225	0.0514966887417219	0.197933774834437	-3.4082119205298	-2.18807947019868	0.502516556291392				0.511788079470199	-0.142834437086093	-0.804238410596027	-7.53960264900662	-1.80238410596026	21.085298013245			
76	1520	-0.216158940397351	0.114754966887417	-0.935523178807947	-2.20662251655629	-0.144635761589404	0.215099337748344				0.976953642384106	0.0797880794701987	0.301139072847682	-1.80609271523179	-23.7721854304636	-2.82596026490066				-0.234172185430464	-0.241271523178808	-0.85594701986755	0.847417218543046	0.706490066225167	-1.88026490066225				0.576529801324503	-0.128529801324503	-0.789721854304636	-4.23708609271523	-7.9364238410596	1.06437086092715				0.964026490066225	0.0354966887417219	0.181933774834437	-5.6482119205298	-2.46807947019868	0.222516556291392				0.511788079470199	-0.174834437086093	-0.804238410596027	-3.89960264900662	-2.08238410596027	21.085298013245			
77	1540	-0.232158940397351	0.114754966887417	-0.951523178807947	-1.36662251655629	-0.424635761589404	-0.904900662251656				0.976953642384106	0.111788079470199	0.253139072847682	5.47390728476821	-29.0921854304636	-2.82596026490066				-0.250172185430464	-0.193271523178808	-0.85594701986755	0.00741721854304636	0.986490066225167	-1.32026490066225				0.592529801324503	-0.128529801324503	-0.789721854304636	-5.35708609271523	-9.3364238410596	3.30437086092715				0.980026490066225	0.0834966887417219	0.149933774834437	-8.7282119205298	-3.30807947019868	-0.0574834437086077				0.495788079470199	-0.190834437086093	-0.788238410596027	-6.97960264900662	1.55761589403974	22.485298013245			
78	1560	-0.264158940397351	0.114754966887417	-0.951523178807947	-0.526622516556291	0.975364238410596	0.495099337748344				0.976953642384106	0.143788079470199	0.221139072847682	11.6339072847682	-28.5321854304636	-0.585960264900661				-0.266172185430464	-0.161271523178808	-0.87194701986755	-3.07258278145695	-1.81350993377483	0.35973509933775				0.608529801324503	-0.128529801324503	-0.789721854304636	-1.71708609271523	-7.9364238410596	3.86437086092715				0.980026490066225	0.0994966887417219	0.149933774834437	-6.4882119205298	-2.46807947019868	0.222516556291392				0.479788079470199	-0.158834437086093	-0.804238410596027	-12.2996026490066	0.157615894039735	23.885298013245			
79	1580	-0.264158940397351	0.130754966887417	-0.935523178807947	-1.36662251655629	1.5353642384106	1.05509933774834				0.992953642384106	0.127788079470199	0.253139072847682	13.8739072847682	-28.5321854304636	0.81403973509934				-0.266172185430464	-0.193271523178808	-0.88794701986755	1.12741721854305	-0.693509933774834	1.19973509933775				0.624529801324503	-0.128529801324503	-0.789721854304636	-0.597086092715232	-10.1764238410596	2.74437086092715				0.964026490066225	0.0834966887417219	0.149933774834437	-4.5282119205298	-4.42807947019868	-0.617483443708608				0.479788079470199	-0.126834437086093	-0.852238410596026	-12.0196026490066	-0.402384105960265	23.885298013245			
80	1600	-0.248158940397351	0.130754966887417	-0.919523178807947	-1.92662251655629	1.2553642384106	2.73509933774834				0.944953642384106	0.111788079470199	0.269139072847682	12.7539072847682	-37.4921854304636	0.25403973509934				-0.266172185430464	-0.193271523178808	-0.82394701986755	3.92741721854305	-0.133509933774833	0.35973509933775				0.656529801324503	-0.112529801324503	-0.805721854304636	-8.43708609271523	-18.0164238410596	1.62437086092715				0.964026490066225	0.0834966887417219	0.165933774834437	-2.0082119205298	-3.86807947019868	-0.337483443708608				0.463788079470199	-0.158834437086093	-0.852238410596026	-2.49960264900662	-4.04238410596027	22.205298013245			
81	1620	-0.232158940397351	0.146754966887417	-0.919523178807947	-1.92662251655629	0.695364238410596	2.45509933774835				0.896953642384106	0.0797880794701987	0.237139072847682	5.47390728476821	-26.5721854304636	-0.30596026490066				-0.266172185430464	-0.177271523178808	-0.85594701986755	1.68741721854305	0.146490066225167	0.0797350993377501				0.688529801324503	-0.0805298013245033	-0.789721854304636	-19.9170860927152	-26.4164238410596	-0.335629139072848				0.932026490066225	0.0514966887417219	0.165933774834437	-0.328211920529802	-4.42807947019868	-0.617483443708608				0.479788079470199	-0.190834437086093	-0.836238410596026	-3.89960264900662	-10.4823841059603	25.005298013245			
82	1640	-0.200158940397351	0.130754966887417	-0.967523178807947	-1.36662251655629	1.5353642384106	3.01509933774834				0.944953642384106	0.0957880794701987	0.221139072847682	-0.686092715231788	-8.93218543046358	-0.585960264900661				-0.218172185430464	-0.209271523178808	-0.88794701986755	-0.552582781456954	-0.133509933774833	-1.60026490066225				0.640529801324503	-0.128529801324503	-0.805721854304636	-19.9170860927152	-34.8164238410596	-4.53562913907285				0.932026490066225	0.0674966887417219	0.181933774834437	2.4717880794702	-4.70807947019868	-0.337483443708608				0.463788079470199	-0.190834437086093	-0.852238410596026	-12.8596026490066	-11.3223841059603	33.125298013245			
83	1660	-0.200158940397351	0.162754966887417	-0.967523178807947	-2.20662251655629	2.3753642384106	2.45509933774835				1.05695364238411	0.0477880794701987	0.269139072847682	-3.20609271523179	-14.8121854304636	-0.30596026490066				-0.218172185430464	-0.225271523178808	-0.88794701986755	1.12741721854305	-0.413509933774833	-2.72026490066225				0.576529801324503	-0.0965298013245033	-0.837721854304636	-11.5170860927152	-41.8164238410596	-9.01562913907285				0.916026490066225	0.0514966887417219	0.197933774834437	6.1117880794702	-1.62807947019868	-0.897483443708608				0.447788079470199	-0.158834437086093	-0.868238410596026	-12.0196026490066	-11.6023841059603	36.765298013245			
84	1680	-0.200158940397351	0.162754966887417	-0.919523178807947	-1.08662251655629	1.5353642384106	1.05509933774834				0.976953642384106	0.0637880794701987	0.285139072847682	11.0739072847682	-50.9321854304636	-1.42596026490066				-0.218172185430464	-0.209271523178808	-0.83994701986755	2.24741721854305	-0.413509933774833	-3.56026490066225				0.576529801324503	-0.0645298013245033	-0.821721854304636	-10.1170860927152	-49.6564238410596	-15.4556291390728				0.916026490066225	0.00349668874172187	0.213933774834437	12.2717880794702	2.57192052980133	-0.897483443708608				0.479788079470199	-0.158834437086093	-0.820238410596026	-3.33960264900662	-16.6423841059603	31.725298013245			
85	1700	-0.216158940397351	0.178754966887417	-0.919523178807947	-0.526622516556291	-0.144635761589404	0.495099337748344				0.912953642384106	0.0797880794701987	0.189139072847682	15.8339072847682	-36.6521854304636	-2.26596026490066				-0.218172185430464	-0.225271523178808	-0.88794701986755	0.567417218543046	-1.25350993377483	-3.00026490066225				0.624529801324503	-0.0965298013245033	-0.837721854304636	-10.9570860927152	-52.4564238410596	-19.9356291390729				0.980026490066225	0.00349668874172187	0.197933774834437	8.9117880794702	3.97192052980133	-2.85748344370861				0.415788079470199	-0.174834437086093	-0.868238410596026	3.10039735099338	-11.8823841059603	31.445298013245			
86	1720	-0.232158940397351	0.162754966887417	-0.951523178807947	0.593377483443709	-0.984635761589404	0.215099337748344				0.960953642384106	0.111788079470199	0.173139072847682	5.47390728476821	-23.4921854304636	-4.22596026490066				-0.218172185430464	-0.225271523178808	-0.85594701986755	2.24741721854305	-1.81350993377483	-2.16026490066225				0.592529801324503	-0.240529801324503	-0.901721854304636	-10.6770860927152	-38.7364238410596	-28.6156291390729				0.964026490066225	0.0674966887417219	0.213933774834437	9.1917880794702	-2.74807947019868	-4.25748344370861				0.479788079470199	-0.158834437086093	-0.852238410596026	3.10039735099338	4.07761589403974	39.845298013245			
87	1740	-0.232158940397351	0.162754966887417	-0.935523178807947	-2.20662251655629	0.415364238410596	1.33509933774834				0.976953642384106	0.0797880794701987	0.189139072847682	-4.04609271523179	-42.5321854304636	1.37403973509934				-0.250172185430464	-0.209271523178808	-0.83994701986755	-1.11258278145695	-3.21350993377483	-0.48026490066225				0.576529801324503	-0.0485298013245033	-0.773721854304636	-40.6370860927152	-55.5364238410596	-24.1356291390729				0.900026490066225	0.115496688741722	0.165933774834437	9.1917880794702	-0.508079470198675	-2.85748344370861				0.447788079470199	-0.238834437086093	-0.788238410596027	28.3003973509934	-20.8423841059603	33.685298013245			
88	1760	-0.232158940397351	0.0987549668874172	-0.935523178807947	-4.44662251655629	1.5353642384106	1.89509933774834				0.896953642384106	0.0637880794701987	0.0451390728476822	7.43390728476821	-29.6521854304636	1.65403973509934				-0.266172185430464	-0.209271523178808	-0.85594701986755	-3.35258278145695	-0.133509933774833	0.0797350993377501				0.480529801324503	0.0634701986754967	-0.805721854304636	-35.8770860927152	-64.7764238410596	-19.6556291390729				0.916026490066225	0.0674966887417219	0.181933774834437	13.3917880794702	9.01192052980133	-3.13748344370861				0.463788079470199	-0.286834437086093	-0.788238410596027	19.0603973509934	-27.2823841059603	35.645298013245			
89	1780	-0.200158940397351	0.0827549668874172	-0.935523178807947	-6.40662251655629	2.9353642384106	0.215099337748344				1.00895364238411	0.111788079470199	0.125139072847682	10.2339072847682	-14.5321854304636	1.93403973509934				-0.202172185430464	-0.209271523178808	-0.85594701986755	-2.51258278145695	-1.25350993377483	-0.76026490066225				0.432529801324503	-0.0165298013245033	-0.853721854304636	-12.9170860927152	-63.3764238410596	-23.0156291390729				0.948026490066225	0.0514966887417219	0.149933774834437	14.7917880794702	0.611920529801325	-1.45748344370861				0.463788079470199	-0.334834437086093	-0.836238410596026	-6.97960264900662	-24.7623841059603	48.245298013245			
90	1800	-0.184158940397351	0.130754966887417	-0.935523178807947	-10.0466225165563	-0.984635761589404	0.775099337748344				0.928953642384106	0.111788079470199	0.0771390728476822	4.63390728476821	-12.0121854304636	0.81403973509934				-0.202172185430464	-0.193271523178808	-0.87194701986755	0.287417218543046	-2.37350993377483	-1.32026490066225				0.384529801324503	-0.0965298013245033	-0.869721854304636	-5.07708609271523	-66.4564238410596	-21.0556291390728				0.980026490066225	0.0194966887417219	0.133933774834437	13.3917880794702	5.65192052980133	-2.01748344370861				0.479788079470199	-0.206834437086093	-0.820238410596026	-24.8996026490066	-21.4023841059603	52.165298013245			
91	1820	-0.168158940397351	0.146754966887417	-0.967523178807947	-6.68662251655629	-2.1046357615894	3.01509933774834				0.912953642384106	0.111788079470199	0.0931390728476822	3.51390728476821	1.42781456953642	-1.14596026490066				-0.186172185430464	-0.193271523178808	-0.83994701986755	1.12741721854305	-3.21350993377483	-0.20026490066225				0.352529801324503	-0.112529801324503	-0.933721854304636	-6.75708609271523	-71.7764238410596	-17.6956291390729				0.964026490066225	0.0194966887417219	0.165933774834437	8.9117880794702	4.81192052980133	-3.69748344370861				0.527788079470199	-0.0788344370860927	-0.916238410596027	-11.4596026490066	-35.1223841059603	40.405298013245			
92	1840	-0.232158940397351	0.130754966887417	-0.935523178807947	-8.92662251655629	-3.2246357615894	4.41509933774834				1.05695364238411	0.159788079470199	0.109139072847682	15.8339072847682	-8.09218543046358	1.09403973509934				-0.250172185430464	-0.177271523178808	-0.88794701986755	1.68741721854305	-4.05350993377483	0.63973509933775				0.336529801324503	-0.0645298013245033	-0.933721854304636	-13.4770860927152	-72.3364238410596	-16.5756291390728				0.996026490066225	0.115496688741722	0.117933774834437	0.511788079470198	3.41192052980132	-4.81748344370861				0.527788079470199	-0.0628344370860927	-0.980238410596026	16.5403973509934	-44.3623841059603	25.845298013245			
93	1860	-0.280158940397351	0.146754966887417	-0.967523178807947	-2.76662251655629	-2.1046357615894	4.69509933774834				1.02495364238411	0.207788079470199	0.0291390728476822	15.5539072847682	-8.65218543046358	3.05403973509934				-0.282172185430464	-0.257271523178808	-0.90394701986755	-1.11258278145695	-2.65350993377483	2.03973509933775				0.320529801324503	-0.0165298013245033	-0.965721854304636	-15.4370860927152	-69.8164238410596	-8.17562913907285				0.980026490066225	0.211496688741722	0.133933774834437	-0.0482119205298018	3.13192052980133	-3.69748344370861				0.511788079470199	-0.142834437086093	-1.04423841059603	31.3803973509934	-49.4023841059603	21.085298013245			
94	1880	-0.296158940397351	0.178754966887417	-0.935523178807947	-2.76662251655629	1.5353642384106	6.93509933774835				1.05695364238411	0.223788079470199	0.157139072847682	3.51390728476821	2.54781456953642	11.7340397350993				-0.282172185430464	-0.305271523178808	-0.87194701986755	-5.59258278145695	-2.09350993377483	4.83973509933775				0.288529801324503	-0.0485298013245033	-1.09372185430464	-3.67708609271523	-69.5364238410596	1.62437086092715				0.980026490066225	0.259496688741722	0.133933774834437	-2.5682119205298	12.3719205298013	-5.37748344370861				0.431788079470199	-0.254834437086093	-1.01223841059603	38.1003973509934	-65.9223841059603	30.045298013245			
95	1900	-0.312158940397351	0.178754966887417	-0.919523178807947	-11.1666225165563	4.3353642384106	9.17509933774834				1.10495364238411	0.111788079470199	0.0771390728476822	5.47390728476821	-20.6921854304636	21.8140397350993				-0.282172185430464	-0.289271523178808	-0.77594701986755	-3.63258278145695	-2.93350993377483	10.4397350993378				0.256529801324503	-0.0805298013245033	-1.09372185430464	-3.11708609271523	-73.4564238410596	6.94437086092715				1.04402649006623	0.227496688741722	0.0859337748344371	1.0717880794702	17.9719205298013	-2.01748344370861				0.383788079470199	-0.334834437086093	-1.01223841059603	21.5803973509934	-79.9223841059603	49.365298013245			
96	1920	-0.312158940397351	0.178754966887417	-0.887523178807947	-20.6866225165563	6.2953642384106	14.7750993377483				1.02495364238411	0.0157880794701987	-0.0828609271523179	-0.686092715231788	-17.6121854304636	24.6140397350993				-0.314172185430464	-0.241271523178808	-0.82394701986755	-9.23258278145695	0.426490066225167	14.0797350993378				0.240529801324503	-0.0325298013245033	-1.17372185430464	-21.3170860927152	-90.2564238410596	5.54437086092715				1.10802649006623	0.115496688741722	0.0219337748344371	2.4717880794702	20.7719205298013	1.62251655629139				0.335788079470199	-0.366834437086093	-1.17223841059603	1.14039735099338	-72.9223841059603	67.005298013245			
97	1940	0	0	0	0	0	0				0	0	0	0	0	0				0	0	0	0	0	0				0.224529801324503	-0.0485298013245033	-1.18972185430464	-27.4770860927152	-105.93642384106	-0.895629139072848				0	0	0	0	0	0				0	0	0	0	0	0			
98	1960	0	0	0	0	0	0				0	0	0	0	0	0				-0.314172185430464	-0.0972715231788079	-0.95194701986755	-3.63258278145695	-0.413509933774833	7.07973509933775				0.160529801324503	-0.144529801324503	-1.22172185430464	-41.1970860927152	-124.13642384106	-5.65562913907285				1.04402649006623	-0.0285033112582781	0.0379337748344371	-1.7282119205298	-0.788079470198675	12.8225165562914				0.111788079470199	-0.350834437086093	-1.14023841059603	-12.8596026490066	-110.44238410596	113.485298013245			
99	1980	-0.488158940397351	0.0827549668874172	-1.71952317880795	-68.2866225165563	12.1753642384106	15.8950993377483				0.976953642384106	0.0477880794701987	0.173139072847682	-43.8060927152318	39.7878145695364	14.5340397350993				-0.362172185430464	-0.113271523178808	-0.95194701986755	-4.47258278145695	-8.53350993377483	5.67973509933775				0.176529801324503	-0.160529801324503	-1.28572185430464	-89.3570860927152	-141.21642384106	-12.9356291390728				1.14002649006623	-0.0125033112582781	-0.0260662251655629	-24.4082119205298	-3.86807947019868	15.3425165562914				-0.144211920529801	-0.270834437086093	-1.26823841059603	-3.05960264900662	-109.88238410596	125.245298013245			
100	2000	-0.104158940397351	0.178754966887417	-0.359523178807947	-53.7266225165563	40.1753642384106	8.89509933774834				1.08895364238411	0.127788079470199	-0.130860927152318	-29.5260927152318	49.8678145695364	10.6140397350993				-0.522172185430464	-0.0652715231788079	-1.07994701986755	24.647417218543	15.2664900662252	5.39973509933775				0.160529801324503	-0.160529801324503	-1.39772185430464	-132.197086092715	-136.73642384106	-29.1756291390729				1.31602649006623	0.0514966887417219	-0.0260662251655629	-21.0482119205298	-6.10807947019868	17.0225165562914				-0.0162119205298013	-0.0948344370860927	-1.14023841059603	17.1003973509934	-76.2823841059603	142.045298013245			
101	2020	-0.456158940397351	0.226754966887417	-1.35152317880795	-44.4866225165563	34.0153642384106	15.6150993377483				1.29695364238411	0.287788079470199	-0.00286092715231785	-14.1260927152318	87.6678145695364	9.49403973509934				-0.490172185430464	-0.161271523178808	-1.01594701986755	27.1674172185431	33.7464900662252	1.47973509933775				0.0645298013245033	0.0314701986754967	-1.04572185430464	-132.757086092715	-127.77642384106	-48.2156291390729				1.42802649006623	0.0674966887417219	0.197933774834437	12.5517880794702	12.6519205298013	13.3825165562914				-0.0482119205298013	-0.302834437086093	-1.06023841059603	70.3003973509934	-87.7623841059603	138.405298013245			
102	2040	-0.568158940397351	0.162754966887417	-1.30352317880795	-12.5666225165563	44.6553642384106	28.7750993377483				1.58495364238411	0.207788079470199	0.493139072847682	12.4739072847682	92.9878145695364	12.5740397350993				-0.618172185430464	-0.209271523178808	-1.28794701986755	19.607417218543	38.2264900662252	-4.96026490066225				0.000529801324503301	0.351470198675497	-0.901721854304636	-91.8770860927152	-124.69642384106	-50.4556291390729				1.46002649006623	0.115496688741722	0.373933774834437	17.8717880794702	22.7319205298013	2.74251655629139				-0.000211920529801336	-0.478834437086093	-0.868238410596026	48.4603973509934	-87.7623841059603	130.005298013245			
103	2060	-0.408158940397351	0.322754966887417	-1.09552317880795	-10.0466225165563	54.7353642384106	32.9750993377484				1.77695364238411	-0.000211920529801304	0.701139072847682	13.5939072847682	81.5078145695364	7.25403973509934				-0.554172185430464	-0.257271523178808	-1.12794701986755	13.727417218543	60.3464900662252	-14.7602649006622				0.0325298013245033	0.463470198675497	-1.09372185430464	-38.9570860927152	-62.8164238410596	-28.3356291390729				1.33202649006623	0.211496688741722	0.645933774834437	37.7517880794702	28.8919205298013	2.74251655629139				0.0797880794701987	-0.494834437086093	-0.980238410596026	13.1803973509934	-22.5223841059603	104.805298013245			
104	2080	-0.296158940397351	0.562754966887417	-0.999523178807947	0.313377483443709	69.8553642384106	36.0550993377484				1.68095364238411	-0.128211920529801	0.733139072847682	-1.52609271523179	45.1078145695364	2.21403973509934				-0.298172185430464	-0.369271523178808	-1.09594701986755	-10.632582781457	72.1064900662252	-24.0002649006623				-0.0154701986754967	0.447470198675497	-1.33372185430464	-21.0370860927152	20.9035761589404	10.0243708609272				1.36402649006623	0.0354966887417219	1.04593377483444	48.3917880794702	33.3719205298013	10.3025165562914				0.223788079470199	-0.510834437086093	-0.996238410596026	-30.7796026490066	45.7976158940397	73.725298013245			
105	2100	-0.152158940397351	0.306754966887417	-1.22352317880795	21.5933774834437	89.4553642384106	33.2550993377483				1.58495364238411	0.0317880794701987	0.493139072847682	-6.00609271523179	17.1078145695364	-2.82596026490066				-0.250172185430464	-0.529271523178808	-1.07994701986755	-18.472582781457	86.1064900662252	-28.7602649006623				0.0165298013245033	0.575470198675497	-1.06172185430464	0.802913907284768	73.5435761589404	52.0243708609272				1.54002649006623	0.0354966887417219	1.02993377483444	-14.3282119205298	12.6519205298013	5.54251655629139				0.335788079470199	-0.734834437086093	-0.788238410596027	-8.93960264900662	80.7976158940397	38.165298013245			
106	2120	0.135841059602649	0.434754966887417	-1.12752317880795	24.3933774834437	103.175364238411	23.7350993377483				1.55295364238411	0.0637880794701987	0.685139072847682	15.2739072847682	-8.37218543046358	-1.14596026490066				-0.170172185430464	-0.337271523178808	-1.12794701986755	-40.312582781457	105.986490066225	-27.3602649006623				0.208529801324503	0.655470198675497	-1.10972185430464	53.4429139072848	71.5835761589404	56.7843708609272				1.30002649006623	0.147496688741722	0.469933774834437	11.4317880794702	-15.3480794701987	10.0225165562914				0.367788079470199	-0.782834437086093	-0.804238410596027	-13.1396026490066	96.4776158940397	3.44529801324503			
107	2140	0.247841059602649	0.498754966887417	-1.09552317880795	48.4733774834437	114.095364238411	11.9750993377483				1.29695364238411	-0.0162119205298013	0.509139072847682	13.0339072847682	-27.1321854304636	6.97403973509934				-0.0101721854304636	-0.145271523178808	-1.06394701986755	-45.912582781457	116.066490066225	-21.7602649006623				0.432529801324503	0.287470198675497	-1.39772185430464	72.4829139072848	80.2635761589404	59.8643708609272				1.25202649006623	0.163496688741722	0.517933774834437	6.6717880794702	18.2519205298013	-0.0574834437086077				0.479788079470199	-0.558834437086093	-1.14023841059603	-61.5796026490066	124.47761589404	-16.434701986755			
108	2160	0.167841059602649	0.258754966887417	-1.04752317880795	52.9533774834437	131.175364238411	4.69509933774834				1.24895364238411	0.0797880794701987	0.573139072847682	-7.40609271523179	-9.49218543046358	10.3340397350993				0.0858278145695364	-0.145271523178808	-1.11194701986755	-8.67258278145695	123.346490066225	-21.4802649006623				0.496529801324503	0.0314701986754967	-1.34972185430464	34.1229139072848	91.1835761589404	55.6643708609272				1.30002649006623	0.131496688741722	0.629933774834437	-3.9682119205298	0.331920529801325	-0.617483443708608				0.367788079470199	-0.446834437086093	-1.20423841059603	-24.6196026490066	119.99761589404	-4.67470198675497			
109	2180	0.135841059602649	0.290754966887417	-1.06352317880795	43.7133774834437	125.575364238411	-3.42490066225166				1.45695364238411	0.0317880794701987	0.525139072847682	-13.2860927152318	-2.49218543046358	11.4540397350993				0.149827814569536	-0.225271523178808	-1.06394701986755	11.207417218543	139.306490066225	-24.0002649006623				0.384529801324503	0.271470198675497	-1.09372185430464	-10.9570860927152	92.3035761589404	40.5443708609272				1.25202649006623	0.131496688741722	0.437933774834437	-8.7282119205298	-3.86807947019868	4.42251655629139				0.207788079470199	-0.526834437086093	-1.14023841059603	25.5003973509934	111.87761589404	7.08529801324503			
110	2200	0.103841059602649	0.274754966887417	-1.06352317880795	34.1933774834437	138.455364238411	-6.50490066225166				1.29695364238411	0.0477880794701987	0.413139072847682	-3.48609271523179	-20.6921854304636	14.2540397350993				0.213827814569536	-0.225271523178808	-0.96794701986755	16.247417218543	146.586490066225	-31.0002649006623				0.192529801324503	0.415470198675497	-0.949721854304636	8.08291390728477	104.90357615894	39.4243708609272				1.20402649006623	0.0834966887417219	0.357933774834437	-9.5682119205298	12.6519205298013	3.86251655629139				0.319788079470199	-0.574834437086093	-1.09223841059603	29.9803973509934	110.19761589404	5.40529801324503			
111	2220	0.327841059602649	0.0667549668874172	-1.06352317880795	36.7133774834437	154.415364238411	-5.38490066225166				1.20095364238411	0.0637880794701987	0.221139072847682	3.79390728476821	-37.4921854304636	27.6940397350993				0.245827814569536	-0.225271523178808	-0.96794701986755	18.487417218543	147.986490066225	-28.4802649006623				0.128529801324503	0.271470198675497	-0.949721854304636	30.7629139072848	133.74357615894	45.8643708609272				1.12402649006623	0.0194966887417219	0.357933774834437	-5.6482119205298	18.8119205298013	3.02251655629139				0.383788079470199	-0.702834437086093	-0.916238410596027	29.1403973509934	112.43761589404	-6.63470198675497			
112	2240	0.423841059602649	0.0987549668874172	-0.903523178807947	26.3533774834437	164.775364238411	-3.14490066225166				1.12095364238411	0.0797880794701987	0.141139072847682	29.2739072847682	-41.9721854304636	22.3740397350993				0.325827814569536	-0.209271523178808	-0.90394701986755	1.40741721854305	155.826490066225	-25.4002649006623				0.176529801324503	0.111470198675497	-0.997721854304636	43.0829139072848	153.34357615894	46.9843708609272				1.10802649006623	0.0194966887417219	0.293933774834437	-7.0482119205298	17.4119205298013	4.98251655629139				0.479788079470199	-0.494834437086093	-0.868238410596026	7.86039735099338	122.23761589404	-11.954701986755			
113	2260	0.311841059602649	0.194754966887417	-0.839523178807947	19.6333774834437	165.895364238411	2.73509933774834				1.20095364238411	0.0317880794701987	0.317139072847682	19.7539072847682	-26.5721854304636	12.5740397350993				0.325827814569536	-0.0972715231788079	-0.79194701986755	-6.71258278145695	158.346490066225	-23.7202649006623				0.240529801324503	0.0634701986754967	-0.901721854304636	53.7229139072848	163.42357615894	41.3843708609272				1.01202649006623	-0.0605033112582781	0.309933774834437	-0.608211920529802	15.1719205298013	4.42251655629139				0.351788079470199	-0.318834437086093	-0.724238410596026	19.9003973509934	132.59761589404	-19.234701986755			
114	2280	0.295841059602649	0.0827549668874172	-0.791523178807947	21.5933774834437	163.375364238411	4.97509933774835				1.16895364238411	-0.0482119205298013	0.173139072847682	16.9539072847682	-60.7321854304636	3.89403973509934				0.293827814569536	-0.0172715231788079	-0.71194701986755	0.847417218543046	155.546490066225	-20.9202649006623				0.288529801324503	0.159470198675497	-0.725721854304636	66.0429139072848	153.62357615894	33.5443708609272				0.980026490066225	-0.0125033112582781	0.197933774834437	-18.8082119205298	9.57192052980133	4.14251655629139				0.351788079470199	-0.206834437086093	-0.740238410596026	10.9403973509934	150.23761589404	-25.674701986755			
115	2300	0.375841059602649	-0.0132450331125828	-0.727523178807947	19.0733774834437	160.015364238411	3.01509933774834				0.720953642384106	0.127788079470199	-0.0988609271523179	6.31390728476821	-71.0921854304636	-0.86596026490066				0.357827814569536	-0.0332715231788079	-0.66394701986755	14.847417218543	150.506490066225	-18.1202649006623				0.368529801324503	0.0794701986754967	-0.805721854304636	68.0029139072848	141.86357615894	40.5443708609272				0.852026490066225	0.147496688741722	0.149933774834437	-35.6082119205298	0.611920529801325	3.86251655629139				0.431788079470199	-0.0948344370860927	-0.660238410596027	16.8203973509934	134.83761589404	-28.474701986755			
116	2320	0.343841059602649	0.0187549668874172	-0.743523178807947	10.9533774834437	156.655364238411	2.45509933774835				0.720953642384106	0.0637880794701987	0.0131390728476822	4.91390728476821	-28.2521854304636	12.5740397350993				0.453827814569536	-0.129271523178808	-0.66394701986755	26.3274172185431	147.146490066225	-20.9202649006623				0.528529801324503	-0.128529801324503	-0.805721854304636	73.3229139072848	148.02357615894	34.9443708609272				0.692026490066225	0.131496688741722	0.133933774834437	-1.1682119205298	-7.78807947019868	13.3825165562914				0.415788079470199	-0.238834437086093	-0.724238410596026	59.1003973509934	123.35761589404	-29.874701986755			
117	2340	0.391841059602649	0.0347549668874172	-0.711523178807947	11.7933774834437	151.615364238411	1.61509933774834				0.816953642384106	-0.0162119205298013	0.0771390728476822	5.19390728476821	-45.8921854304636	12.5740397350993				0.485827814569536	-0.241271523178808	-0.64794701986755	1.96741721854305	147.706490066225	-22.0402649006623				0.592529801324503	-0.128529801324503	-0.597721854304636	64.9229139072848	141.58357615894	6.94437086092715				0.756026490066225	-0.140503311258278	0.133933774834437	-18.8082119205298	-7.50807947019868	6.10251655629139				0.479788079470199	-0.446834437086093	-0.628238410596026	54.6203973509934	107.67761589404	-24.554701986755			
118	2360	0.439841059602649	0.0827549668874172	-0.663523178807947	-0.246622516556291	147.415364238411	2.45509933774835				0.624953642384106	0.127788079470199	-0.226860927152318	-5.16609271523179	-65.2121854304636	9.49403973509934				0.421827814569536	-0.209271523178808	-0.64794701986755	-20.432582781457	153.866490066225	-23.4402649006623				0.448529801324503	-0.0325298013245033	-0.533721854304636	33.0029139072848	114.14357615894	4.14437086092715				0.788026490066225	-0.0605033112582781	0.0859337748344371	-23.5682119205298	-29.3480794701987	2.18251655629139				0.415788079470199	-0.414834437086093	-0.660238410596027	33.6203973509934	99.5576158940397	-28.474701986755			
119	2380	0.455841059602649	0.130754966887417	-0.631523178807947	3.11337748344371	140.975364238411	2.17509933774834				0.672953642384106	-0.000211920529801304	-0.114860927152318	-9.08609271523179	-24.3321854304636	6.69403973509934				0.453827814569536	-0.0972715231788079	-0.59994701986755	-24.352582781457	151.906490066225	-18.1202649006623				0.384529801324503	0.0154701986754967	-0.629721854304636	26.2829139072848	92.3035761589404	12.8243708609272				0.644026490066225	0.0514966887417219	0.165933774834437	-25.8082119205298	-40.8280794701987	5.54251655629139				0.319788079470199	-0.286834437086093	-0.564238410596026	-10.8996026490066	108.51761589404	-30.434701986755			
120	2400	0.407841059602649	0.114754966887417	-0.615523178807947	12.6333774834437	140.975364238411	6.37509933774834				0.704953642384106	-0.0642119205298013	0.141139072847682	-8.80609271523179	-41.4121854304636	0.25403973509934				0.453827814569536	-0.0652715231788079	-0.45594701986755	-32.472582781457	163.666490066225	-14.4802649006623				0.384529801324503	0.0154701986754967	-0.677721854304636	37.4829139072848	84.1835761589404	4.70437086092715				0.596026490066225	0.0194966887417219	0.117933774834437	-17.9682119205298	-53.1480794701987	11.7025165562914				0.287788079470199	-0.206834437086093	-0.468238410596026	-22.9396026490066	98.9976158940397	-15.314701986755			
121	2420	0.487841059602649	0.0187549668874172	-0.583523178807947	9.83337748344371	155.255364238411	8.89509933774834				0.512953642384106	-0.000211920529801304	-0.0988609271523179	-9.08609271523179	-64.0921854304636	-2.54596026490066				0.501827814569536	0.0147284768211921	-0.47194701986755	-41.712582781457	165.626490066225	-11.6802649006622				0.448529801324503	-0.128529801324503	-0.565721854304636	48.4029139072848	83.6235761589404	-9.01562913907285				0.564026490066225	-0.0605033112582781	0.0219337748344371	-12.9282119205298	-57.9080794701987	13.1025165562914				0.367788079470199	-0.158834437086093	-0.436238410596026	-4.17960264900662	81.0776158940397	-12.794701986755			
122	2440	0.615841059602649	0.0827549668874172	-0.535523178807947	5.07337748344371	158.335364238411	15.3350993377483				0.544953642384106	0.0797880794701987	-0.114860927152318	-12.4460927152318	-35.2521854304636	-1.14596026490066				0.517827814569536	0.0307284768211921	-0.31194701986755	-66.072582781457	165.906490066225	-7.48026490066225				0.432529801324503	-0.240529801324503	-0.533721854304636	34.4029139072848	69.3435761589404	-12.0956291390728				0.612026490066225	-0.0285033112582781	0.0699337748344371	-19.9282119205298	-52.5880794701987	7.50251655629139				0.415788079470199	-0.110834437086093	-0.564238410596026	-13.4196026490066	73.2376158940397	-18.394701986755			
123	2460	0.535841059602649	0.210754966887417	-0.423523178807947	-3.88662251655629	149.935364238411	20.9350993377483				0.544953642384106	0.0637880794701987	0.0771390728476822	-12.1660927152318	-29.3721854304636	1.93403973509934				0.613827814569536	-0.00127152317880793	-0.43994701986755	-62.712582781457	167.306490066225	-1.60026490066225				0.448529801324503	-0.160529801324503	-0.517721854304636	14.8029139072848	55.3435761589404	-14.0556291390728				0.564026490066225	0.0194966887417219	-0.0580662251655629	-11.5282119205298	-46.7080794701987	1.90251655629139				0.431788079470199	-0.158834437086093	-0.532238410596027	-11.1796026490066	69.3176158940397	-17.554701986755			
124	2480	0.519841059602649	0.178754966887417	-0.359523178807947	16.8333774834437	157.215364238411	18.9750993377483				0.480953642384106	-0.0322119205298013	-0.0348609271523178	-16.9260927152318	-40.0121854304636	1.37403973509934				0.613827814569536	-0.0332715231788079	-0.48794701986755	-34.152582781457	148.266490066225	-8.88026490066225				0.336529801324503	-0.0645298013245033	-0.517721854304636	5.56291390728477	38.5435761589404	-17.1356291390729				0.532026490066225	-0.0445033112582781	-0.0260662251655629	-4.5282119205298	-32.9880794701987	3.58251655629139				0.335788079470199	-0.190834437086093	-0.484238410596026	1.70039735099338	48.0376158940397	-8.03470198675497			
125	2500	0.727841059602649	0.0667549668874172	-0.407523178807947	29.1533774834437	153.015364238411	8.61509933774835				0.416953642384106	0.0637880794701987	-0.0668609271523178	-15.5260927152318	-24.6121854304636	-7.86596026490066				0.597827814569536	-0.0492715231788079	-0.37594701986755	-41.152582781457	148.826490066225	-9.16026490066225				0.384529801324503	-0.0325298013245033	-0.501721854304636	11.1629139072848	27.0635761589404	-15.7356291390728				0.468026490066225	0.00349668874172187	0.0539337748344371	-9.0082119205298	-33.8280794701987	2.74251655629139				0.303788079470199	-0.190834437086093	-0.404238410596026	-28.5396026490066	49.1576158940397	-0.474701986754968			
126	2520	0.775841059602649	0.226754966887417	-0.295523178807947	10.6733774834437	137.615364238411	12.2550993377483				0.448953642384106	0.0957880794701987	0.0931390728476822	1.27390728476821	-10.3321854304636	-7.02596026490066				0.565827814569536	-0.0492715231788079	-0.21594701986755	-50.392582781457	139.306490066225	-13.3602649006623				0.448529801324503	-0.112529801324503	-0.549721854304636	19.0029139072848	15.3035761589404	-14.6156291390728				0.484026490066225	0.0834966887417219	-0.0100662251655629	-11.2482119205298	-42.2280794701987	2.18251655629139				0.399788079470199	-0.174834437086093	-0.388238410596026	-31.8996026490066	51.9576158940397	1.76529801324503			
127	2540	0.535841059602649	0.226754966887417	-0.103523178807947	4.51337748344371	134.255364238411	18.6950993377483				0.432953642384106	-0.0162119205298013	0.0131390728476822	6.03390728476821	-20.6921854304636	1.37403973509934				0.677827814569536	-0.0332715231788079	-0.26394701986755	-57.392582781457	121.386490066225	-9.72026490066225				0.416529801324503	-0.176529801324503	-0.533721854304636	6.96291390728477	5.7835761589404	-17.9756291390729				0.500026490066225	0.00349668874172187	-0.0580662251655629	-5.3682119205298	-34.3880794701987	2.46251655629139				0.431788079470199	-0.0948344370860927	-0.452238410596026	-16.7796026490066	33.4776158940397	7.08529801324503			
128	2560	0.759841059602649	0.210754966887417	-0.343523178807947	20.1933774834437	122.495364238411	11.4150993377483				0.480953642384106	0.0637880794701987	0.0451390728476822	-16.9260927152318	-0.532185430463576	-4.22596026490066				0.661827814569536	0.0307284768211921	-0.29594701986755	-47.312582781457	92.8264900662252	-3.00026490066225				0.384529801324503	-0.192529801324503	-0.469721854304636	-10.6770860927152	-2.3364238410596	-17.4156291390728				0.548026490066225	-0.0925033112582781	0.0699337748344371	-6.2082119205298	-20.1080794701987	-2.29748344370861				0.399788079470199	-0.0788344370860927	-0.404238410596026	-13.9796026490066	25.6376158940397	3.16529801324503			
129	2580	0.967841059602649	0.194754966887417	-0.487523178807947	1.99337748344371	87.2153642384106	5.25509933774834				0.448953642384106	0.223788079470199	0.173139072847682	-9.36609271523179	14.0278145695364	-11.7859602649007				0.741827814569536	0.0947284768211921	-0.43994701986755	-29.672582781457	68.7464900662252	0.91973509933775				0.400529801324503	-0.112529801324503	-0.485721854304636	-16.5570860927152	-5.6964238410596	-15.4556291390728				0.532026490066225	0.0834966887417219	0.0219337748344371	-14.0482119205298	-19.5480794701987	-8.73748344370861				0.399788079470199	-0.126834437086093	-0.420238410596026	-5.57960264900662	16.9576158940397	1.48529801324503			
130	2600	0.807841059602649	0.114754966887417	-0.487523178807947	-14.8066225165563	56.4153642384106	11.6950993377483				0.576953642384106	0.0317880794701987	0.157139072847682	4.07390728476821	26.3478145695364	-2.26596026490066				0.917827814569536	0.142728476821192	-0.48794701986755	18.2074172185431	28.9864900662252	0.0797350993377501				0.496529801324503	-0.000529801324503289	-0.517721854304636	-12.0770860927152	-2.3364238410596	-18.2556291390728				0.580026490066225	0.131496688741722	0.0539337748344371	-10.1282119205298	-7.78807947019868	-9.85748344370861				0.447788079470199	-0.190834437086093	-0.404238410596026	-16.2196026490066	25.9176158940397	7.64529801324503			
131	2620	0.775841059602649	0.0187549668874172	-0.439523178807947	-22.0866225165563	36.8153642384106	14.7750993377483				0.768953642384106	-0.0162119205298013	0.125139072847682	1.55390728476821	29.1478145695364	-0.0259602649006601				0.885827814569536	0.0307284768211921	-0.47194701986755	49.287417218543	-4.05350993377483	-1.60026490066225				0.496529801324503	0.0154701986754967	-0.517721854304636	2.20291390728477	2.9835761589404	-14.3356291390729				0.580026490066225	0.0354966887417219	0.0699337748344371	5.8317880794702	4.53192052980133	-7.33748344370861				0.495788079470199	-0.158834437086093	-0.452238410596026	-29.0996026490066	32.0776158940397	16.045298013245			
132	2640	0.903841059602649	0.00275496688741723	-0.407523178807947	-12.8466225165563	24.4953642384106	12.5350993377483				0.800953642384106	-0.0162119205298013	0.173139072847682	-4.04609271523179	31.9478145695364	-6.18596026490066				0.789827814569536	-0.00127152317880793	-0.29594701986755	30.8074172185431	-2.37350993377483	2.87973509933775				0.560529801324503	-0.0645298013245033	-0.533721854304636	4.44291390728477	2.7035761589404	-8.45562913907285				0.692026490066225	-0.0125033112582781	0.149933774834437	6.1117880794702	18.2519205298013	-7.61748344370861				0.591788079470199	-0.142834437086093	-0.500238410596026	-8.37960264900662	26.4776158940397	12.965298013245			
133	2660	0.967841059602649	-0.125245033112583	-0.439523178807947	-26.0066225165563	18.0553642384106	13.0950993377483				0.912953642384106	0.111788079470199	0.157139072847682	2.11390728476821	29.4278145695364	-10.6659602649007				0.869827814569536	-0.0652715231788079	-0.34394701986755	23.807417218543	-10.7735099337748	6.51973509933775				0.688529801324503	-0.0645298013245033	-0.597721854304636	-6.75708609271523	0.7435761589404	-7.33562913907285				0.884026490066225	0.0354966887417219	0.181933774834437	-2.0082119205298	24.4119205298013	-11.5374834437086				0.687788079470199	-0.286834437086093	-0.500238410596026	6.46039735099338	18.3576158940397	7.64529801324503			
134	2680	0.935841059602649	-0.0932450331125828	-0.343523178807947	-30.4866225165563	13.2953642384106	15.8950993377483				1.10495364238411	-0.0642119205298013	0.0771390728476822	15.5539072847682	20.1878145695364	0.81403973509934				1.01382781456954	-0.225271523178808	-0.24794701986755	15.407417218543	-9.93350993377483	3.43973509933775				0.736529801324503	-0.000529801324503289	-0.661721854304636	-17.1170860927152	5.2235761589404	-5.65562913907285				1.01202649006623	0.0514966887417219	0.181933774834437	-0.608211920529802	24.4119205298013	-11.8174834437086				0.751788079470199	-0.478834437086093	-0.516238410596026	14.8603973509934	4.63761589403974	6.80529801324503			
135	2700	0.919841059602649	-0.0132450331125828	-0.311523178807947	-21.2466225165563	13.8553642384106	11.9750993377483				1.16895364238411	-0.0802119205298013	0.0771390728476822	-10.4860927152318	21.0278145695364	1.09403973509934				0.997827814569536	-0.257271523178808	-0.21594701986755	-6.71258278145695	1.82649006622517	2.03973509933775				0.784529801324503	0.0314701986754967	-0.645721854304636	-5.63708609271523	11.1035761589404	-5.37562913907285				1.07602649006623	-0.0285033112582781	0.197933774834437	3.3117880794702	20.4919205298013	-8.73748344370861				0.831788079470199	-0.478834437086093	-0.564238410596026	-0.259602649006623	21.7176158940397	17.445298013245			
136	2720	0.999841059602649	0.0507549668874172	-0.231523178807947	-15.9266225165563	17.2153642384106	7.49509933774834				1.07295364238411	-0.000211920529801304	0.189139072847682	-21.6860927152318	28.5878145695364	-3.10596026490066				0.965827814569536	-0.225271523178808	-0.26394701986755	-20.712582781457	7.98649006622517	5.11973509933775				0.784529801324503	-0.000529801324503289	-0.661721854304636	-4.23708609271523	13.0635761589404	-3.69562913907285				1.10802649006623	0.00349668874172187	0.197933774834437	-5.3682119205298	21.8919205298013	-6.77748344370861				0.863788079470199	-0.478834437086093	-0.580238410596026	7.30039735099338	30.9576158940397	25.285298013245			
137	2740	0.967841059602649	0.0347549668874172	-0.231523178807947	-10.0466225165563	17.4953642384106	4.13509933774834				1.15295364238411	-0.112211920529801	0.141139072847682	-10.7660927152318	18.5078145695364	2.49403973509934				0.949827814569536	-0.145271523178808	-0.31194701986755	-25.472582781457	15.2664900662252	6.51973509933775				0.768529801324503	-0.0805298013245033	-0.757721854304636	-6.19708609271523	10.2635761589404	0.784370860927152				1.09202649006623	-0.0125033112582781	0.197933774834437	-7.0482119205298	18.8119205298013	-5.37748344370861				0.847788079470199	-0.526834437086093	-0.548238410596027	6.18039735099338	17.7976158940397	26.405298013245			
138	2760	0.839841059602649	-0.0292450331125828	-0.311523178807947	-12.2866225165563	16.6553642384106	5.25509933774834				0.960953642384106	-0.0642119205298013	0.0771390728476822	-10.7660927152318	10.1078145695364	3.33403973509934				0.917827814569536	-0.0812715231788079	-0.39194701986755	-27.992582781457	15.8264900662252	8.19973509933775				0.720529801324503	-0.0965298013245033	-0.741721854304636	-13.1970860927152	6.9035761589404	1.34437086092715				1.01202649006623	-0.0605033112582781	0.181933774834437	-12.6482119205298	10.9719205298013	-4.81748344370861				0.815788079470199	-0.526834437086093	-0.516238410596026	-0.259602649006623	17.5176158940397	23.885298013245			
139	2780	0.855841059602649	-0.0292450331125828	-0.279523178807947	-11.4466225165563	18.8953642384106	3.01509933774834				0.912953642384106	0.0477880794701987	0.109139072847682	-19.7260927152318	15.4278145695364	2.77403973509934				0.853827814569536	-0.0492715231788079	-0.47194701986755	-24.072582781457	13.8664900662252	7.07973509933775				0.672529801324503	-0.0165298013245033	-0.661721854304636	-27.4770860927152	-6.8164238410596	-1.45562913907285				0.916026490066225	0.00349668874172187	0.165933774834437	-20.2082119205298	9.57192052980133	-2.01748344370861				0.751788079470199	-0.446834437086093	-0.500238410596026	-5.85960264900662	20.0376158940397	26.965298013245			
140	2800	0.935841059602649	-0.0132450331125828	-0.359523178807947	-16.2066225165563	17.4953642384106	3.01509933774834				0.944953642384106	0.0157880794701987	0.0611390728476822	-7.12609271523179	10.6678145695364	2.49403973509934				0.789827814569536	-0.00127152317880793	-0.42394701986755	-7.83258278145695	8.82649006622517	2.31973509933775				0.656529801324503	0.0314701986754967	-0.597721854304636	-29.1570860927152	-15.7764238410596	-3.69562913907285				0.852026490066225	0.0354966887417219	0.165933774834437	-20.2082119205298	14.3319205298013	0.222516556291392				0.703788079470199	-0.382834437086093	-0.484238410596026	-5.29960264900662	18.9176158940397	29.765298013245			
141	2820	0.935841059602649	0.0347549668874172	-0.375523178807947	-13.9666225165563	11.8953642384106	3.85509933774834				1.02495364238411	-0.0962119205298013	0.109139072847682	-4.04609271523179	16.8278145695364	2.49403973509934				0.805827814569536	0.0627284768211921	-0.42394701986755	-2.79258278145695	5.74649006622517	0.35973509933775				0.672529801324503	0.0474701986754967	-0.581721854304636	-27.4770860927152	-19.6964238410596	-3.13562913907285				0.868026490066225	0.0354966887417219	0.229933774834437	-12.0882119205298	17.1319205298013	2.46251655629139				0.687788079470199	-0.350834437086093	-0.484238410596026	-1.65960264900662	14.7176158940397	27.805298013245			
142	2840	0.887841059602649	0.0347549668874172	-0.327523178807947	-3.88662251655629	8.5353642384106	4.13509933774834				0.976953642384106	-0.0162119205298013	0.125139072847682	-9.08609271523179	21.0278145695364	1.37403973509934				0.885827814569536	-0.00127152317880793	-0.42394701986755	-0.832582781456954	7.42649006622517	-0.48026490066225				0.720529801324503	0.0474701986754967	-0.581721854304636	-22.9970860927152	-16.8964238410596	1.34437086092715				0.884026490066225	0.0514966887417219	0.197933774834437	-10.6882119205298	13.7719205298013	5.82251655629139				0.719788079470199	-0.366834437086093	-0.516238410596026	0.0203973509933773	14.4376158940397	21.645298013245			
143	2860	0.903841059602649	0.0187549668874172	-0.279523178807947	-1.36662251655629	9.9353642384106	3.01509933774834				0.992953642384106	0.0797880794701987	0.125139072847682	0.433907284768212	14.5878145695364	2.77403973509934				0.885827814569536	-0.0652715231788079	-0.40794701986755	6.16741721854305	4.34649006622517	-3.56026490066225				0.736529801324503	0.0314701986754967	-0.597721854304636	-17.9570860927152	-15.7764238410596	3.02437086092715				0.932026490066225	0.0354966887417219	0.197933774834437	-6.7682119205298	17.6919205298013	6.38251655629139				0.719788079470199	-0.334834437086093	-0.500238410596026	-4.73960264900662	11.6376158940397	19.125298013245			
144	2880	0.999841059602649	0.0507549668874172	-0.215523178807947	0.0333774834437086	8.5353642384106	3.29509933774834				1.00895364238411	0.0157880794701987	0.0771390728476822	8.83390728476821	8.42781456953642	6.97403973509934				0.885827814569536	-0.0332715231788079	-0.32794701986755	3.64741721854305	11.0664900662252	-4.40026490066225				0.752529801324503	0.0634701986754967	-0.661721854304636	-12.3570860927152	-13.5364238410596	3.02437086092715				0.996026490066225	0.0354966887417219	0.261933774834437	-0.608211920529802	19.6519205298013	6.38251655629139				0.703788079470199	-0.382834437086093	-0.500238410596026	3.38039735099338	15.2776158940397	14.645298013245			
145	2900	0.983841059602649	0.0827549668874172	-0.215523178807947	2.55337748344371	6.5753642384106	1.33509933774834				1.05695364238411	0.0157880794701987	0.125139072847682	4.91390728476821	14.5878145695364	4.45403973509934				0.981827814569536	-0.0492715231788079	-0.29594701986755	1.68741721854305	8.26649006622517	-1.88026490066225				0.816529801324503	0.0474701986754967	-0.677721854304636	-4.51708609271523	-5.4164238410596	-1.17562913907285				1.02802649006623	0.00349668874172187	0.197933774834437	1.6317880794702	14.8919205298013	6.10251655629139				0.751788079470199	-0.430834437086093	-0.548238410596027	14.0203973509934	15.2776158940397	7.64529801324503			
146	2920	0.919841059602649	0.0827549668874172	-0.167523178807947	8.43337748344371	6.0153642384106	-1.18490066225166				1.02495364238411	0.0157880794701987	0.157139072847682	3.79390728476821	16.5478145695364	3.61403973509934				0.949827814569536	-0.113271523178808	-0.29594701986755	10.367417218543	9.10649006622517	0.35973509933775				0.784529801324503	0.0314701986754967	-0.677721854304636	-11.2370860927152	-5.1364238410596	-1.45562913907285				1.01202649006623	0.00349668874172187	0.181933774834437	0.511788079470198	15.7319205298013	5.26251655629139				0.783788079470199	-0.430834437086093	-0.564238410596026	6.46039735099338	15.5576158940397	2.32529801324503			
147	2940	0.919841059602649	0.0187549668874172	-0.231523178807947	7.03337748344371	3.4953642384106	-0.0649006622516557				0.944953642384106	0.0637880794701987	0.173139072847682	2.11390728476821	17.9478145695364	3.33403973509934				0.869827814569536	-0.0332715231788079	-0.29594701986755	3.36741721854305	11.3464900662252	0.63973509933775				0.720529801324503	0.0634701986754967	-0.677721854304636	-11.7970860927152	-14.0964238410596	-3.69562913907285				0.948026490066225	0.0514966887417219	0.213933774834437	-0.328211920529802	16.0119205298013	4.98251655629139				0.735788079470199	-0.398834437086093	-0.548238410596027	0.860397350993377	10.2376158940397	2.88529801324503			
148	2960	0.935841059602649	0.00275496688741723	-0.231523178807947	8.71337748344371	5.4553642384106	-0.624900662251656				0.912953642384106	0.0317880794701987	0.125139072847682	4.07390728476821	10.9478145695364	8.09403973509934				0.869827814569536	0.0147284768211921	-0.26394701986755	8.40741721854305	16.6664900662252	-2.16026490066225				0.704529801324503	0.0314701986754967	-0.661721854304636	-3.67708609271523	-15.4964238410596	-7.05562913907285				0.916026490066225	0.0514966887417219	0.197933774834437	1.9117880794702	12.3719205298013	4.42251655629139				0	0	0	0	0	0			
149	2980	0	0	0	0	0	0				0	0	0	0	0	0				0	0	0	0	0	0				0.688529801324503	0.0154701986754967	-0.645721854304636	-11.7970860927152	-15.4964238410596	-4.53562913907285				0.932026490066225	0.0354966887417219	0.245933774834437	6.6717880794702	13.2119205298013	3.86251655629139				0.687788079470199	-0.430834437086093	-0.516238410596026	10.1003973509934	-0.402384105960265	11.845298013245			
150	3000	0	0	0	0	0	0				0	0	0	0	0	0				0	0	0	0	0	0				0.672529801324503	0.0474701986754967	-0.629721854304636	-13.1970860927152	-12.4164238410596	-2.01562913907285				0.932026490066225	0.0194966887417219	0.229933774834437	5.5517880794702	13.4919205298013	4.70251655629139				0.735788079470199	-0.462834437086093	-0.484238410596026	8.42039735099338	-2.36238410596027	12.965298013245			
151	3020	0.935841059602649	0.0507549668874172	-0.311523178807947	4.51337748344371	6.2953642384106	1.61509933774834				0.960953642384106	-0.000211920529801304	0.237139072847682	-2.64609271523179	16.2678145695364	11.7340397350993				0.917827814569536	-0.0652715231788079	-0.34394701986755	13.727417218543	10.2264900662252	-3.56026490066225				0.640529801324503	0.0794701986754967	-0.597721854304636	-9.55708609271523	-4.0164238410596	-3.69562913907285				0.932026490066225	0.00349668874172187	0.261933774834437	7.7917880794702	16.5719205298013	4.70251655629139				0.703788079470199	-0.462834437086093	-0.468238410596026	2.82039735099338	0.717615894039735	16.605298013245			
152	3040	0.935841059602649	0.0507549668874172	-0.263523178807947	4.79337748344371	6.8553642384106	1.33509933774834				0.992953642384106	-0.0482119205298013	0.189139072847682	-2.36609271523179	10.6678145695364	11.4540397350993				0.933827814569536	-0.0652715231788079	-0.29594701986755	13.167417218543	12.4664900662252	-2.72026490066225				0.672529801324503	0.111470198675497	-0.597721854304636	1.36291390728477	4.3835761589404	-1.17562913907285				0.964026490066225	-0.0445033112582781	0.309933774834437	8.9117880794702	15.7319205298013	3.58251655629139				0.719788079470199	-0.478834437086093	-0.468238410596026	7.86039735099338	-1.80238410596026	13.805298013245			
153	3060	0.935841059602649	0.0347549668874172	-0.295523178807947	1.15337748344371	5.7353642384106	-0.344900662251656				0.992953642384106	-0.0482119205298013	0.205139072847682	-7.40609271523179	8.70781456953642	6.41403973509934				0.933827814569536	-0.0492715231788079	-0.26394701986755	4.48741721854305	10.7864900662252	-1.32026490066225				0.688529801324503	0.0474701986754967	-0.613721854304636	13.9629139072848	12.5035761589404	3.58437086092715				0.996026490066225	-0.0285033112582781	0.277933774834437	4.4317880794702	6.21192052980133	6.10251655629139				0.751788079470199	-0.494834437086093	-0.436238410596026	8.14039735099338	-1.80238410596026	8.48529801324503			
154	3080	0.919841059602649	0.0507549668874172	-0.311523178807947	-0.246622516556291	6.0153642384106	-0.624900662251656				0.976953642384106	-0.0162119205298013	0.141139072847682	-7.96609271523179	6.18781456953642	3.33403973509934				0.901827814569536	-0.0972715231788079	-0.29594701986755	5.32741721854305	6.02649006622517	-1.88026490066225				0.688529801324503	0.0314701986754967	-0.645721854304636	18.1629139072848	14.1835761589404	0.224370860927152				0.932026490066225	0.00349668874172187	0.277933774834437	4.1517880794702	5.09192052980133	6.66251655629139				0.735788079470199	-0.494834437086093	-0.404238410596026	6.18039735099338	-0.122384105960265	6.80529801324503			
155	3100	0.903841059602649	0.0347549668874172	-0.263523178807947	3.39337748344371	9.3753642384106	0.495099337748344				1.02495364238411	-0.0322119205298013	0.189139072847682	-4.88609271523179	8.14781456953643	3.33403973509934				0.869827814569536	-0.0332715231788079	-0.29594701986755	4.48741721854305	11.3464900662252	-3.84026490066225				0.720529801324503	0.111470198675497	-0.661721854304636	10.8829139072848	13.3435761589404	-2.01562913907285				0.948026490066225	-0.0125033112582781	0.293933774834437	4.9917880794702	5.37192052980133	6.94251655629139				0.703788079470199	-0.510834437086093	-0.420238410596026	3.94039735099338	1.55761589403974	6.24529801324503			
156	3120	0.935841059602649	-0.0132450331125828	-0.279523178807947	3.67337748344371	9.9353642384106	-0.624900662251656				1.02495364238411	-0.0642119205298013	0.221139072847682	-8.52609271523179	0.587814569536424	2.49403973509934				0.949827814569536	0.0147284768211921	-0.29594701986755	-0.272582781456954	14.1464900662252	-3.84026490066225				0.736529801324503	0.0634701986754967	-0.677721854304636	13.6829139072848	14.7435761589404	-1.17562913907285				0.964026490066225	-0.0285033112582781	0.293933774834437	1.9117880794702	0.891920529801325	7.50251655629139				0.735788079470199	-0.542834437086093	-0.420238410596026	3.10039735099338	0.437615894039735	3.44529801324503			
157	3140	0.935841059602649	0.00275496688741723	-0.247523178807947	-2.76662251655629	10.4953642384106	-0.0649006622516557				0.960953642384106	-0.000211920529801304	0.205139072847682	-9.36609271523179	0.307814569536424	-0.30596026490066				0.981827814569536	-0.0172715231788079	-0.31194701986755	0.847417218543046	11.6264900662252	-2.16026490066225				0.752529801324503	-0.0165298013245033	-0.693721854304636	14.5229139072848	14.1835761589404	1.90437086092715				0.964026490066225	-0.0285033112582781	0.277933774834437	1.9117880794702	-1.34807947019868	8.34251655629139				0.767788079470199	-0.494834437086093	-0.452238410596026	-2.21960264900662	2.95761589403974	-1.31470198675497			
158	3160	0.935841059602649	0.0347549668874172	-0.231523178807947	-4.44662251655629	13.0153642384106	0.775099337748344				0.944953642384106	0.0317880794701987	0.189139072847682	-4.60609271523179	3.10781456953642	-0.0259602649006601				0.901827814569536	-0.0652715231788079	-0.29594701986755	3.64741721854305	6.86649006622517	-1.60026490066225				0.752529801324503	-0.000529801324503289	-0.709721854304636	11.7229139072848	8.0235761589404	4.98437086092715				0.948026490066225	0.0194966887417219	0.261933774834437	0.791788079470198	-2.18807947019868	6.38251655629139				0.751788079470199	-0.462834437086093	-0.452238410596026	-1.37960264900662	1.27761589403974	-1.31470198675497			
159	3180	0.935841059602649	0.0987549668874172	-0.183523178807947	1.99337748344371	-1.8246357615894	-1.18490066225166				0.992953642384106	0.0477880794701987	0.0291390728476822	5.47390728476821	0.867814569536424	0.25403973509934				0.901827814569536	0.0147284768211921	-0.29594701986755	6.44741721854305	-0.413509933774833	-1.60026490066225				0.736529801324503	0.0154701986754967	-0.725721854304636	3.88291390728477	1.0235761589404	5.26437086092715				0.948026490066225	0.0194966887417219	0.261933774834437	-0.328211920529802	0.0519205298013249	5.54251655629139				0.719788079470199	-0.478834437086093	-0.452238410596026	-0.539602649006623	-2.08238410596027	-2.15470198675497			
160	3200	0.935841059602649	0.0667549668874172	-0.231523178807947	-1.64662251655629	7.9753642384106	-0.0649006622516557				0.992953642384106	-0.000211920529801304	0.221139072847682	-0.126092715231788	1.98781456953642	2.77403973509934				0.917827814569536	-0.0492715231788079	-0.27994701986755	-2.23258278145695	7.42649006622517	-1.60026490066225				0.752529801324503	-0.000529801324503289	-0.709721854304636	6.96291390728477	-2.3364238410596	11.1443708609272				0.948026490066225	0.00349668874172187	0.261933774834437	0.231788079470198	-2.18807947019868	4.42251655629139				0.703788079470199	-0.494834437086093	-0.468238410596026	3.38039735099338	-2.92238410596027	-4.67470198675497			
161	3220	0.919841059602649	0.0507549668874172	-0.183523178807947	5.07337748344371	8.2553642384106	0.215099337748344				0.976953642384106	-0.000211920529801304	0.173139072847682	2.11390728476821	-4.17218543046358	3.61403973509934				0.917827814569536	-0.0332715231788079	-0.26394701986755	0.567417218543046	8.82649006622517	-0.20026490066225				0.736529801324503	-0.0645298013245033	-0.709721854304636	3.88291390728477	-1.4964238410596	15.9043708609272				0.948026490066225	-0.0125033112582781	0.229933774834437	-0.888211920529802	-5.54807947019868	3.30251655629139				0.735788079470199	-0.462834437086093	-0.500238410596026	-2.49960264900662	-3.76238410596027	-3.83470198675497			
162	3240	0.935841059602649	0.00275496688741723	-0.199523178807947	8.71337748344371	10.4953642384106	-0.344900662251656				0.960953642384106	-0.000211920529801304	0.189139072847682	1.55390728476821	0.587814569536424	4.17403973509934				0.933827814569536	-0.00127152317880793	-0.26394701986755	2.80741721854305	9.10649006622517	-0.48026490066225				0.720529801324503	-0.0165298013245033	-0.709721854304636	-3.95708609271523	-5.4164238410596	14.5043708609272				0.948026490066225	-0.0125033112582781	0.245933774834437	-1.1682119205298	-2.74807947019868	3.02251655629139				0.719788079470199	-0.462834437086093	-0.516238410596026	-9.21960264900662	-6.00238410596027	-2.43470198675497			
163	3260	0.951841059602649	-0.0132450331125828	-0.231523178807947	3.95337748344371	10.4953642384106	-0.624900662251656				0.992953642384106	-0.0162119205298013	0.205139072847682	4.91390728476821	-0.252185430463576	3.05403973509934				0.949827814569536	0.0147284768211921	-0.27994701986755	4.76741721854305	8.26649006622517	-1.88026490066225				0.688529801324503	0.0314701986754967	-0.693721854304636	-11.7970860927152	-9.8964238410596	11.9843708609272				0.948026490066225	-0.0285033112582781	0.229933774834437	-0.608211920529802	-3.02807947019868	3.02251655629139				0.703788079470199	-0.446834437086093	-0.516238410596026	-10.8996026490066	-8.80238410596027	-2.99470198675497			
164	3280	0.935841059602649	0.0187549668874172	-0.231523178807947	-2.76662251655629	7.9753642384106	0.215099337748344				1.02495364238411	-0.0322119205298013	0.189139072847682	2.95390728476821	-4.17218543046358	3.89403973509934				0.949827814569536	-0.0332715231788079	-0.31194701986755	9.24741721854305	6.02649006622517	-2.72026490066225				0.672529801324503	0.0314701986754967	-0.661721854304636	-3.39708609271523	-11.8564238410596	10.5843708609272				0.948026490066225	-0.0445033112582781	0.229933774834437	0.791788079470198	-3.02807947019868	2.46251655629139				0.703788079470199	-0.462834437086093	-0.500238410596026	-6.13960264900662	-11.0423841059603	-2.99470198675497			
165	3300	0.935841059602649	0.0347549668874172	-0.199523178807947	-0.526622516556291	8.2553642384106	-0.344900662251656				0.960953642384106	-0.0162119205298013	0.173139072847682	-2.08609271523179	-5.29218543046358	1.93403973509934				0.901827814569536	-0.0332715231788079	-0.24794701986755	7.56741721854305	9.94649006622517	-3.28026490066225				0.672529801324503	-0.000529801324503289	-0.661721854304636	1.92291390728477	-8.4964238410596	9.18437086092715				0.948026490066225	-0.0125033112582781	0.213933774834437	-0.0482119205298018	-3.58807947019868	2.74251655629139				0.703788079470199	-0.446834437086093	-0.500238410596026	-3.89960264900662	-10.4823841059603	-3.83470198675497			
166	3320	0.951841059602649	0.0507549668874172	-0.199523178807947	3.39337748344371	9.0953642384106	-0.344900662251656				0.944953642384106	-0.0162119205298013	0.173139072847682	-1.52609271523179	0.0278145695364242	2.49403973509934				0.901827814569536	-0.0332715231788079	-0.23194701986755	9.24741721854305	10.7864900662252	-3.00026490066225				0.672529801324503	-0.0165298013245033	-0.645721854304636	-5.35708609271523	-4.0164238410596	6.66437086092715				0.932026490066225	-0.0125033112582781	0.213933774834437	-0.0482119205298018	-3.86807947019868	2.46251655629139				0.671788079470199	-0.446834437086093	-0.500238410596026	-3.61960264900662	-9.08238410596027	-2.71470198675497			
167	3340	0.951841059602649	0.0507549668874172	-0.199523178807947	6.47337748344371	7.4153642384106	-0.0649006622516557				0.960953642384106	-0.0162119205298013	0.189139072847682	-2.08609271523179	5.62781456953642	2.21403973509934				0.917827814569536	-0.0492715231788079	-0.24794701986755	9.80741721854305	9.66649006622517	-2.16026490066225				0.640529801324503	0.0314701986754967	-0.645721854304636	-2.83708609271523	-1.4964238410596	6.66437086092715				0.916026490066225	-0.0285033112582781	0.245933774834437	1.6317880794702	-1.34807947019868	1.06251655629139				0.671788079470199	-0.430834437086093	-0.468238410596026	-0.539602649006623	-6.84238410596027	-0.194701986754968			
168	3360	0.935841059602649	0.0187549668874172	-0.183523178807947	5.07337748344371	7.1353642384106	-0.344900662251656				0.960953642384106	-0.0162119205298013	0.189139072847682	0.713907284768212	4.78781456953642	3.05403973509934				0.933827814569536	-0.0652715231788079	-0.26394701986755	6.72741721854305	7.42649006622517	-1.88026490066225				0.672529801324503	0.0154701986754967	-0.645721854304636	7.80291390728477	3.2635761589404	8.06437086092715				0.932026490066225	-0.0285033112582781	0.245933774834437	2.4717880794702	-0.788079470198675	1.62251655629139				0.671788079470199	-0.446834437086093	-0.484238410596026	0.0203973509933773	-3.76238410596027	-0.474701986754968			
169	3380	0.935841059602649	0.00275496688741723	-0.183523178807947	4.23337748344371	7.6953642384106	-1.46490066225166				0.960953642384106	-0.0482119205298013	0.173139072847682	3.79390728476821	5.90781456953642	2.77403973509934				0.933827814569536	-0.0652715231788079	-0.21594701986755	5.04741721854305	8.26649006622517	-1.32026490066225				0.704529801324503	-0.0165298013245033	-0.693721854304636	9.48291390728477	5.5035761589404	6.94437086092715				0.932026490066225	-0.0445033112582781	0.229933774834437	3.3117880794702	-0.788079470198675	1.90251655629139				0.687788079470199	-0.446834437086093	-0.500238410596026	1.42039735099338	-4.04238410596027	-3.27470198675497			
170	3400	0.951841059602649	0.00275496688741723	-0.199523178807947	3.67337748344371	7.9753642384106	-1.18490066225166				0.960953642384106	-0.0482119205298013	0.205139072847682	0.153907284768212	7.86781456953642	1.65403973509934				0.933827814569536	-0.0812715231788079	-0.23194701986755	3.92741721854305	7.14649006622517	-0.76026490066225				0.736529801324503	-0.0165298013245033	-0.661721854304636	3.88291390728477	4.1035761589404	3.58437086092715				0.932026490066225	-0.0445033112582781	0.245933774834437	3.0317880794702	-1.90807947019868	1.90251655629139				0.703788079470199	-0.462834437086093	-0.484238410596026	-1.93960264900662	-1.80238410596026	-2.15470198675497			
171	3420	0.951841059602649	-0.0132450331125828	-0.183523178807947	1.43337748344371	6.8553642384106	-0.344900662251656				0.976953642384106	-0.0322119205298013	0.221139072847682	-2.36609271523179	5.90781456953642	1.09403973509934				0.949827814569536	-0.0972715231788079	-0.23194701986755	1.12741721854305	4.90649006622517	0.35973509933775				0.720529801324503	0.0314701986754967	-0.693721854304636	1.36291390728477	-0.6564238410596	1.34437086092715				0.932026490066225	-0.0285033112582781	0.261933774834437	3.0317880794702	0.0519205298013249	2.46251655629139				0.703788079470199	-0.478834437086093	-0.484238410596026	1.14039735099338	-0.682384105960265	-1.87470198675497			
172	3440	0.951841059602649	-0.0132450331125828	-0.199523178807947	0.593377483443709	7.4153642384106	-1.74490066225166				0.976953642384106	-0.0482119205298013	0.221139072847682	-0.966092715231788	6.18781456953642	1.93403973509934				0.933827814569536	-0.0972715231788079	-0.21594701986755	-3.63258278145695	4.62649006622517	0.0797350993377501				0.720529801324503	-0.000529801324503289	-0.677721854304636	2.76291390728477	-1.7764238410596	-0.615629139072848				0.932026490066225	-0.0445033112582781	0.277933774834437	4.4317880794702	-0.228079470198675	2.46251655629139				0.719788079470199	-0.462834437086093	-0.516238410596026	2.82039735099338	-2.36238410596027	-3.83470198675497			
173	3460	0.951841059602649	0.00275496688741723	-0.183523178807947	0.313377483443709	5.1753642384106	-0.904900662251656				0.960953642384106	-0.0322119205298013	0.205139072847682	2.39390728476821	5.62781456953642	0.81403973509934				0.933827814569536	-0.0492715231788079	-0.24794701986755	-4.19258278145695	4.90649006622517	-0.76026490066225				0.720529801324503	-0.0165298013245033	-0.693721854304636	-1.15708609271523	-2.3364238410596	-1.73562913907285				0.948026490066225	-0.0285033112582781	0.229933774834437	1.6317880794702	-2.46807947019868	1.06251655629139				0.719788079470199	-0.446834437086093	-0.516238410596026	3.66039735099338	-5.16238410596027	-6.91470198675497			
174	3480	0.935841059602649	-0.0132450331125828	-0.183523178807947	-1.64662251655629	4.6153642384106	-1.74490066225166				0.960953642384106	-0.0322119205298013	0.221139072847682	3.51390728476821	5.90781456953642	2.21403973509934				0.917827814569536	-0.00127152317880793	-0.23194701986755	-4.47258278145695	4.90649006622517	-2.72026490066225				0.704529801324503	-0.000529801324503289	-0.645721854304636	-2.27708609271523	-2.0564238410596	-4.25562913907285				0.932026490066225	-0.0285033112582781	0.261933774834437	1.3517880794702	0.891920529801325	1.06251655629139				0.687788079470199	-0.462834437086093	-0.484238410596026	0.300397350993377	-3.76238410596027	-6.07470198675497			
175	3500	0.951841059602649	0.00275496688741723	-0.167523178807947	-3.04662251655629	7.1353642384106	-1.18490066225166				0.976953642384106	-0.0482119205298013	0.237139072847682	-0.126092715231788	6.74781456953642	3.61403973509934				0.949827814569536	-0.00127152317880793	-0.24794701986755	-0.552582781456954	4.06649006622517	-2.16026490066225				0.672529801324503	0.0314701986754967	-0.645721854304636	0.802913907284768	-2.0564238410596	-3.41562913907285				0.900026490066225	-0.0125033112582781	0.245933774834437	1.6317880794702	0.331920529801325	1.34251655629139				0.671788079470199	-0.430834437086093	-0.500238410596026	2.54039735099338	-2.08238410596027	-4.39470198675497			
176	3520	0.983841059602649	0.0347549668874172	-0.183523178807947	-5.00662251655629	4.8953642384106	-2.02490066225166				0.976953642384106	-0.0162119205298013	0.253139072847682	-2.64609271523179	6.74781456953642	2.21403973509934				0.965827814569536	-0.0172715231788079	-0.23194701986755	5.04741721854305	2.94649006622517	-1.88026490066225				0.672529801324503	0.0154701986754967	-0.677721854304636	5.56291390728477	-1.2164238410596	-2.57562913907285				0.932026490066225	-0.0285033112582781	0.229933774834437	2.7517880794702	0.891920529801325	0.222516556291392				0.687788079470199	-0.446834437086093	-0.484238410596026	7.30039735099338	-1.80238410596026	-3.55470198675497			
177	3540	0.951841059602649	0.0507549668874172	-0.183523178807947	-1.36662251655629	2.3753642384106	-1.74490066225166				0.960953642384106	-0.0162119205298013	0.237139072847682	0.433907284768212	4.50781456953642	2.49403973509934				0.917827814569536	-0.0492715231788079	-0.24794701986755	7.56741721854305	2.10649006622517	-2.72026490066225				0.688529801324503	-0.0325298013245033	-0.661721854304636	3.32291390728477	1.8635761589404	-3.41562913907285				0.948026490066225	-0.0125033112582781	0.245933774834437	3.8717880794702	0.611920529801325	0.502516556291392				0.703788079470199	-0.462834437086093	-0.468238410596026	5.62039735099338	-2.08238410596027	-4.11470198675497			
178	3560	0.919841059602649	0.0347549668874172	-0.135523178807947	3.95337748344371	2.6553642384106	-1.18490066225166				0.960953642384106	-0.0322119205298013	0.221139072847682	0.993907284768212	6.46781456953642	1.93403973509934				0.933827814569536	-0.0492715231788079	-0.21594701986755	3.64741721854305	4.62649006622517	-3.28026490066225				0.672529801324503	-0.0165298013245033	-0.645721854304636	-0.0370860927152318	6.3435761589404	-3.69562913907285				0.932026490066225	-0.0125033112582781	0.245933774834437	3.8717880794702	3.69192052980133	0.782516556291392				0.703788079470199	-0.462834437086093	-0.484238410596026	0.0203973509933773	-0.402384105960265	-3.55470198675497			
179	3580	0.951841059602649	0.0187549668874172	-0.183523178807947	2.27337748344371	4.6153642384106	-0.904900662251656				0.960953642384106	-0.0162119205298013	0.221139072847682	-0.406092715231788	7.30781456953642	1.37403973509934				0.933827814569536	-0.0172715231788079	-0.19994701986755	-1.67258278145695	2.38649006622517	-2.44026490066225				0.688529801324503	0.0314701986754967	-0.661721854304636	1.64291390728477	7.7435761589404	-2.57562913907285				0.932026490066225	-0.0285033112582781	0.261933774834437	2.4717880794702	3.13192052980133	-0.0574834437086077				0.687788079470199	-0.446834437086093	-0.484238410596026	1.14039735099338	0.717615894039735	-7.19470198675497			
