No	Time	12-AccX	12-AccY	12-AccZ	12-GyroX	12-GyroY	12-GyroZ	13-AccX	13-AccY	13-AccZ	13-GyroX	13-GyroY	13-GyroZ	14-AccX	14-AccY	14-AccZ	14-GyroX	14-GyroY	14-GyroZ	15-AccX	15-AccY	15-AccZ	15-GyroX	15-GyroY	15-GyroZ	16-AccX	16-AccY	16-AccZ	16-GyroX	16-GyroY	16-GyroZ	17-AccX	17-AccY	17-AccZ	17-GyroX	17-GyroY	17-GyroZ
0	0	0	0	0	0	0	0				0.992953642384106	0.0317880794701987	0.205139072847682	-6.56609271523179	-7.53218543046358	-0.585960264900661				-0.234172185430464	-0.113271523178808	-0.88794701986755	-1.39258278145695	-0.413509933774833	-0.20026490066225				0	0	0	0	0	0				0	0	0	0	0	0				0.0477880794701987	-0.398834437086093	-0.868238410596026	0.300397350993377	2.67761589403974	0.925298013245032			
1	20	-0.280158940397351	0.0987549668874172	-0.935523178807947	0.0333774834437086	0.135364238410596	-1.18490066225166				0.976953642384106	0.0317880794701987	0.189139072847682	0.433907284768212	-14.5321854304636	2.21403973509934				-0.234172185430464	-0.113271523178808	-0.90394701986755	-2.51258278145695	1.26649006622517	-0.48026490066225				0.160529801324503	-0.0805298013245033	-0.965721854304636	1.36291390728477	-0.9364238410596	3.30437086092715				0.964026490066225	0.0514966887417219	0.165933774834437	-1.1682119205298	-0.508079470198675	1.62251655629139				0.0637880794701987	-0.398834437086093	-0.868238410596026	0.0203973509933773	1.83761589403974	0.645298013245032			
2	40	-0.280158940397351	0.114754966887417	-0.919523178807947	-1.64662251655629	-0.144635761589404	-1.74490066225166				0.976953642384106	0.0157880794701987	0.157139072847682	0.153907284768212	-11.7321854304636	3.33403973509934				-0.234172185430464	-0.113271523178808	-0.88794701986755	-0.832582781456954	1.26649006622517	-0.48026490066225				0.160529801324503	-0.0805298013245033	-0.965721854304636	2.20291390728477	-1.4964238410596	3.02437086092715				0.948026490066225	0.0674966887417219	0.165933774834437	0.231788079470198	-0.228079470198675	0.782516556291392				0.0477880794701987	-0.382834437086093	-0.868238410596026	-1.65960264900662	2.39761589403974	2.04529801324503			
3	60	-0.264158940397351	0.130754966887417	-0.919523178807947	-0.526622516556291	0.135364238410596	-1.46490066225166				0.960953642384106	0.0317880794701987	0.173139072847682	-2.64609271523179	-6.13218543046358	1.37403973509934				-0.218172185430464	-0.0972715231788079	-0.87194701986755	0.00741721854304636	0.146490066225167	-0.20026490066225				0.176529801324503	-0.0805298013245033	-0.949721854304636	2.20291390728477	-2.0564238410596	1.34437086092715				0.948026490066225	0.0674966887417219	0.165933774834437	-0.0482119205298018	-1.06807947019868	0.502516556291392				0.0637880794701987	-0.382834437086093	-0.868238410596026	0.300397350993377	2.39761589403974	1.76529801324503			
4	80	-0.264158940397351	0.114754966887417	-0.919523178807947	-0.806622516556291	-0.144635761589404	0.215099337748344				0.960953642384106	0.0637880794701987	0.157139072847682	-3.48609271523179	-7.81218543046358	-0.0259602649006601				-0.218172185430464	-0.0812715231788079	-0.88794701986755	-2.23258278145695	-0.973509933774833	0.35973509933775				0.176529801324503	-0.0805298013245033	-0.949721854304636	-1.15708609271523	-2.8964238410596	1.06437086092715				0.948026490066225	0.0674966887417219	0.149933774834437	-0.888211920529802	-1.34807947019868	1.62251655629139				0.0477880794701987	-0.382834437086093	-0.868238410596026	0.300397350993377	1.83761589403974	0.645298013245032			
5	100	-0.264158940397351	0.130754966887417	-0.919523178807947	0.593377483443709	-0.144635761589404	0.215099337748344				0.976953642384106	0.0637880794701987	0.157139072847682	-1.24609271523179	-3.61218543046358	-0.0259602649006601				-0.234172185430464	-0.0812715231788079	-0.88794701986755	-0.832582781456954	-0.133509933774833	0.63973509933775				0.160529801324503	-0.0805298013245033	-0.949721854304636	-1.43708609271523	-2.8964238410596	1.62437086092715				0.948026490066225	0.0834966887417219	0.181933774834437	-0.888211920529802	0.0519205298013249	0.222516556291392				0.0637880794701987	-0.398834437086093	-0.868238410596026	0.300397350993377	-0.682384105960265	0.925298013245032			
6	120	-0.264158940397351	0.130754966887417	-0.919523178807947	0.593377483443709	-0.984635761589404	-0.624900662251656				0.976953642384106	0.0477880794701987	0.157139072847682	2.11390728476821	-3.89218543046358	1.09403973509934				-0.234172185430464	-0.0812715231788079	-0.88794701986755	0.847417218543046	0.146490066225167	0.35973509933775				0.160529801324503	-0.0645298013245033	-0.949721854304636	-0.317086092715232	-4.0164238410596	1.34437086092715				0.948026490066225	0.0834966887417219	0.149933774834437	-1.1682119205298	-0.788079470198675	-0.0574834437086077				0.0637880794701987	-0.382834437086093	-0.852238410596026	-0.539602649006623	-1.52238410596026	-0.194701986754968			
7	140	-0.280158940397351	0.130754966887417	-0.919523178807947	0.593377483443709	-0.424635761589404	-0.0649006622516557				0.976953642384106	0.0317880794701987	0.157139072847682	1.27390728476821	-3.05218543046358	1.65403973509934				-0.234172185430464	-0.0812715231788079	-0.87194701986755	1.96741721854305	-0.413509933774833	-0.48026490066225				0.176529801324503	-0.0645298013245033	-0.949721854304636	1.36291390728477	-3.4564238410596	2.46437086092715				0.948026490066225	0.0834966887417219	0.149933774834437	-0.328211920529802	-3.30807947019868	1.34251655629139				0.0637880794701987	-0.366834437086093	-0.868238410596026	-2.21960264900662	-0.962384105960265	-0.194701986754968			
8	160	-0.264158940397351	0.130754966887417	-0.935523178807947	0.593377483443709	-0.144635761589404	-0.904900662251656				0.976953642384106	0.0317880794701987	0.141139072847682	-0.126092715231788	-0.532185430463576	0.81403973509934				-0.234172185430464	-0.0972715231788079	-0.88794701986755	0.00741721854304636	-0.413509933774833	-0.20026490066225				0.160529801324503	-0.0645298013245033	-0.965721854304636	2.48291390728477	-2.6164238410596	2.18437086092715				0.932026490066225	0.0834966887417219	0.165933774834437	3.3117880794702	0.331920529801325	0.782516556291392				0.0317880794701987	-0.366834437086093	-0.868238410596026	-0.819602649006623	-0.682384105960265	-0.474701986754968			
9	180	-0.264158940397351	0.114754966887417	-0.935523178807947	-0.526622516556291	-0.424635761589404	-1.18490066225166				0.992953642384106	0.0477880794701987	0.157139072847682	-0.126092715231788	1.70781456953642	1.65403973509934				-0.234172185430464	-0.0972715231788079	-0.88794701986755	0.00741721854304636	0.146490066225167	-1.04026490066225				0.160529801324503	-0.0805298013245033	-0.981721854304636	-0.317086092715232	-1.7764238410596	1.34437086092715				0.964026490066225	0.0994966887417219	0.181933774834437	2.4717880794702	2.01192052980133	-0.897483443708608				0.0477880794701987	-0.366834437086093	-0.868238410596026	1.14039735099338	0.157615894039735	-2.71470198675497			
10	200	-0.280158940397351	0.130754966887417	-0.919523178807947	0.313377483443709	-0.704635761589404	-1.74490066225166				0.992953642384106	0.0477880794701987	0.173139072847682	0.433907284768212	0.307814569536424	1.65403973509934				-0.234172185430464	-0.0972715231788079	-0.88794701986755	0.847417218543046	0.146490066225167	-1.32026490066225				0.160529801324503	-0.0805298013245033	-0.965721854304636	-1.43708609271523	-1.2164238410596	2.74437086092715				0.964026490066225	0.0834966887417219	0.133933774834437	2.1917880794702	0.331920529801325	0.222516556291392				0.0477880794701987	-0.382834437086093	-0.868238410596026	-0.259602649006623	-0.122384105960265	-2.71470198675497			
11	220	-0.280158940397351	0.130754966887417	-0.935523178807947	1.15337748344371	-0.424635761589404	-1.18490066225166				0.992953642384106	0.0637880794701987	0.173139072847682	0.993907284768212	-1.09218543046358	1.65403973509934				-0.234172185430464	-0.0812715231788079	-0.88794701986755	1.68741721854305	0.426490066225167	-1.04026490066225				0.144529801324503	-0.0645298013245033	-0.965721854304636	-2.55708609271523	-2.3364238410596	1.62437086092715				0.964026490066225	0.0674966887417219	0.133933774834437	2.7517880794702	0.611920529801325	0.222516556291392				0.0477880794701987	-0.382834437086093	-0.868238410596026	-2.21960264900662	0.157615894039735	-2.99470198675497			
12	240	-0.280158940397351	0.114754966887417	-0.935523178807947	1.15337748344371	-0.144635761589404	-1.46490066225166				0.976953642384106	0.0317880794701987	0.141139072847682	-0.966092715231788	-5.01218543046358	1.09403973509934				-0.234172185430464	-0.0972715231788079	-0.88794701986755	1.96741721854305	0.426490066225167	-0.20026490066225				0.128529801324503	-0.0805298013245033	-0.965721854304636	-2.27708609271523	-2.6164238410596	1.90437086092715				0.964026490066225	0.0674966887417219	0.149933774834437	1.9117880794702	-0.508079470198675	-1.17748344370861				0.0477880794701987	-0.382834437086093	-0.868238410596026	-1.37960264900662	0.437615894039735	-2.43470198675497			
13	260	-0.264158940397351	0.0987549668874172	-0.935523178807947	1.43337748344371	0.135364238410596	-0.904900662251656				0.976953642384106	0.0157880794701987	0.141139072847682	-1.80609271523179	-2.77218543046358	1.65403973509934				-0.234172185430464	-0.113271523178808	-0.88794701986755	0.567417218543046	0.426490066225167	-0.48026490066225				0.128529801324503	-0.0805298013245033	-0.965721854304636	-1.71708609271523	-2.0564238410596	1.34437086092715				0.964026490066225	0.0514966887417219	0.149933774834437	1.9117880794702	-0.508079470198675	-1.73748344370861				0.0477880794701987	-0.382834437086093	-0.884238410596026	-1.65960264900662	0.717615894039735	-1.87470198675497			
14	280	-0.280158940397351	0.0987549668874172	-0.935523178807947	1.15337748344371	-0.144635761589404	-1.46490066225166				0.976953642384106	0.0477880794701987	0.141139072847682	-1.24609271523179	-4.45218543046358	-0.0259602649006601				-0.234172185430464	-0.113271523178808	-0.87194701986755	1.96741721854305	0.146490066225167	-0.20026490066225				0.128529801324503	-0.0965298013245033	-0.965721854304636	-1.71708609271523	-0.6564238410596	2.74437086092715				0.980026490066225	0.0514966887417219	0.149933774834437	2.1917880794702	0.0519205298013249	-1.17748344370861				0.0477880794701987	-0.382834437086093	-0.884238410596026	-2.77960264900662	-0.122384105960265	-1.59470198675497			
15	300	-0.280158940397351	0.0987549668874172	-0.935523178807947	0.0333774834437086	-0.144635761589404	-2.02490066225166				0.992953642384106	0.0157880794701987	0.157139072847682	-0.966092715231788	-6.13218543046358	1.09403973509934				-0.250172185430464	-0.113271523178808	-0.88794701986755	2.24741721854305	1.26649006622517	-1.04026490066225				0.128529801324503	-0.0965298013245033	-0.981721854304636	-0.877086092715232	-0.3764238410596	3.86437086092715				0.964026490066225	0.0514966887417219	0.133933774834437	-0.608211920529802	-0.788079470198675	-1.45748344370861				0.0477880794701987	-0.398834437086093	-0.884238410596026	-1.65960264900662	0.437615894039735	-2.43470198675497			
16	320	-0.296158940397351	0.0987549668874172	-0.935523178807947	-1.08662251655629	0.415364238410596	-1.18490066225166				1.02495364238411	-0.0162119205298013	0.109139072847682	-0.126092715231788	-16.2121854304636	1.09403973509934				-0.234172185430464	-0.113271523178808	-0.88794701986755	2.80741721854305	1.26649006622517	-1.60026490066225				0.112529801324503	-0.0965298013245033	-0.965721854304636	-1.71708609271523	-0.0964238410596001	4.70437086092715				0.980026490066225	0.0514966887417219	0.117933774834437	-0.888211920529802	0.0519205298013249	-1.17748344370861				0.0317880794701987	-0.382834437086093	-0.916238410596027	-1.09960264900662	0.437615894039735	-2.43470198675497			
17	340	-0.296158940397351	0.0827549668874172	-0.935523178807947	-2.76662251655629	2.3753642384106	-1.18490066225166				1.00895364238411	0.0317880794701987	0.0611390728476822	-0.406092715231788	-29.9321854304636	0.53403973509934				-0.266172185430464	-0.0972715231788079	-0.87194701986755	0.567417218543046	-0.133509933774833	-1.60026490066225				0.112529801324503	-0.112529801324503	-0.965721854304636	-0.0370860927152318	-0.9364238410596	5.54437086092715				0.996026490066225	0.0354966887417219	0.133933774834437	-2.2882119205298	0.0519205298013249	-0.617483443708608				0.0317880794701987	-0.382834437086093	-0.900238410596026	-1.09960264900662	0.157615894039735	-4.39470198675497			
18	360	-0.312158940397351	0.0987549668874172	-0.919523178807947	-5.00662251655629	2.9353642384106	-0.624900662251656				1.00895364238411	0.0957880794701987	0.0131390728476822	0.993907284768212	-26.8521854304636	-2.82596026490066				-0.266172185430464	-0.0812715231788079	-0.87194701986755	2.80741721854305	1.82649006622517	-0.48026490066225				0.112529801324503	-0.0965298013245033	-0.981721854304636	-0.317086092715232	-0.6564238410596	5.26437086092715				0.996026490066225	0.0354966887417219	0.101933774834437	-2.5682119205298	-0.508079470198675	-1.17748344370861				0.0157880794701987	-0.382834437086093	-0.900238410596026	-1.93960264900662	-0.682384105960265	-3.83470198675497			
19	380	-0.312158940397351	0.114754966887417	-0.935523178807947	-5.28662251655629	3.7753642384106	1.89509933774834				1.04095364238411	0.0477880794701987	0.0451390728476822	5.19390728476821	-19.0121854304636	0.81403973509934				-0.266172185430464	-0.0972715231788079	-0.90394701986755	5.32741721854305	2.10649006622517	0.63973509933775				0.112529801324503	-0.112529801324503	-0.997721854304636	-0.877086092715232	-0.3764238410596	4.98437086092715				0.996026490066225	0.0834966887417219	0.0859337748344371	-2.8482119205298	-1.90807947019868	-1.73748344370861				-0.000211920529801336	-0.366834437086093	-0.900238410596026	-4.45960264900662	0.157615894039735	-4.39470198675497			
20	400	-0.280158940397351	0.0987549668874172	-0.935523178807947	-6.96662251655629	4.6153642384106	3.57509933774835				1.13695364238411	0.0317880794701987	0.109139072847682	5.75390728476821	-50.9321854304636	-1.14596026490066				-0.234172185430464	-0.113271523178808	-0.88794701986755	7.00741721854305	1.82649006622517	-0.76026490066225				0.112529801324503	-0.112529801324503	-0.981721854304636	-1.15708609271523	0.1835761589404	4.70437086092715				0.964026490066225	0.0674966887417219	0.0699337748344371	-1.7282119205298	-2.46807947019868	-0.337483443708608				-0.0162119205298013	-0.350834437086093	-0.900238410596026	-1.65960264900662	-1.52238410596026	-4.95470198675497			
21	420	-0.280158940397351	0.0987549668874172	-0.919523178807947	-7.24662251655629	4.0553642384106	4.41509933774834				1.02495364238411	0.0477880794701987	0.109139072847682	-3.48609271523179	-112.812185430464	-7.30596026490066				-0.218172185430464	-0.129271523178808	-0.90394701986755	6.44741721854305	1.82649006622517	-1.60026490066225				0.0805298013245033	-0.128529801324503	-0.981721854304636	-3.11708609271523	1.5835761589404	0.504370860927152				0.932026490066225	0.0514966887417219	0.0539337748344371	0.231788079470198	-2.46807947019868	-1.45748344370861				-0.0642119205298013	-0.334834437086093	-0.884238410596026	-1.65960264900662	-3.48238410596027	-3.27470198675497			
22	440	-0.248158940397351	0.0987549668874172	-0.935523178807947	-7.80662251655629	4.0553642384106	3.85509933774834				0.784953642384106	0.0317880794701987	-0.0508609271523178	-8.80609271523179	-101.892185430464	-14.3059602649007				-0.202172185430464	-0.129271523178808	-0.85594701986755	7.56741721854305	2.66649006622517	-1.04026490066225				0.0325298013245033	-0.128529801324503	-0.965721854304636	-6.75708609271523	-1.2164238410596	-2.29562913907285				0.868026490066225	0.0674966887417219	0.0699337748344371	3.8717880794702	7.33192052980133	-4.25748344370861				-0.0962119205298013	-0.302834437086093	-0.884238410596026	-1.65960264900662	-5.16238410596027	0.0852980132450323			
23	460	-0.216158940397351	0.0987549668874172	-0.967523178807947	-8.92662251655629	2.9353642384106	4.13509933774834				0.784953642384106	-0.0482119205298013	-0.0828609271523179	11.6339072847682	-22.9321854304636	-1.42596026490066				-0.170172185430464	-0.129271523178808	-0.87194701986755	6.44741721854305	3.22649006622517	0.63973509933775				0.0325298013245033	-0.128529801324503	-0.949721854304636	-7.87708609271523	-3.4564238410596	-6.21562913907285				0.884026490066225	0.0354966887417219	0.0379337748344371	2.4717880794702	9.29192052980133	-3.41748344370861				-0.0802119205298013	-0.254834437086093	-0.900238410596026	-0.539602649006623	-4.60238410596027	2.04529801324503			
24	480	-0.184158940397351	0.114754966887417	-0.935523178807947	-9.76662251655629	2.3753642384106	4.97509933774835				0.912953642384106	0.0157880794701987	-0.0668609271523178	-5.44609271523179	5.90781456953642	-0.585960264900661				-0.154172185430464	-0.161271523178808	-0.87194701986755	5.32741721854305	1.26649006622517	0.0797350993377501				0.0165298013245033	-0.128529801324503	-0.965721854304636	-10.6770860927152	-4.5764238410596	-8.17562913907285				0.948026490066225	0.0194966887417219	0.0539337748344371	2.1917880794702	10.9719205298013	-1.73748344370861				-0.0802119205298013	-0.270834437086093	-0.884238410596026	4.78039735099338	-3.48238410596027	1.48529801324503			
25	500	-0.232158940397351	0.0987549668874172	-0.919523178807947	-9.48662251655629	1.2553642384106	4.97509933774835				0.832953642384106	0.0317880794701987	0.0451390728476822	-16.3660927152318	7.86781456953642	-1.98596026490066				-0.170172185430464	-0.161271523178808	-0.85594701986755	3.64741721854305	-3.77350993377483	-0.76026490066225				0.000529801324503301	-0.160529801324503	-0.981721854304636	-7.03708609271523	0.7435761589404	-11.2556291390728				0.932026490066225	0.00349668874172187	0.0379337748344371	0.791788079470198	6.77192052980133	-3.69748344370861				-0.112211920529801	-0.270834437086093	-0.916238410596027	8.14039735099338	5.47761589403974	-0.474701986754968			
26	520	-0.232158940397351	0.114754966887417	-0.935523178807947	-10.0466225165563	-2.9446357615894	3.85509933774834				0.960953642384106	0.0317880794701987	0.0291390728476822	-10.7660927152318	22.1478145695364	-1.98596026490066				-0.202172185430464	-0.129271523178808	-0.90394701986755	1.68741721854305	-5.45350993377483	-1.60026490066225				-0.0314701986754967	-0.192529801324503	-0.997721854304636	-8.99708609271523	1.5835761589404	-17.6956291390729				0.884026490066225	0.00349668874172187	-0.0100662251655629	-5.0882119205298	6.77192052980133	-4.81748344370861				-0.128211920529801	-0.254834437086093	-0.916238410596027	19.9003973509934	9.95761589403974	0.365298013245032			
27	540	-0.248158940397351	0.146754966887417	-0.935523178807947	-11.7266225165563	-4.9046357615894	3.85509933774834				0.992953642384106	0.0317880794701987	-0.0828609271523179	-3.48609271523179	26.3478145695364	0.53403973509934				-0.186172185430464	-0.145271523178808	-0.90394701986755	5.60741721854305	-4.05350993377483	-2.16026490066225				-0.0634701986754967	-0.176529801324503	-0.981721854304636	-20.1970860927152	-0.3764238410596	-24.6956291390729				0.884026490066225	0.00349668874172187	0.0219337748344371	1.6317880794702	15.7319205298013	-3.97748344370861				-0.112211920529801	-0.286834437086093	-0.916238410596027	31.3803973509934	6.59761589403974	1.20529801324503			
28	560	-0.264158940397351	0.178754966887417	-0.919523178807947	-13.6866225165563	-4.0646357615894	5.25509933774834				0.912953642384106	0.0477880794701987	-0.0988609271523179	0.433907284768212	29.4278145695364	-2.26596026490066				-0.202172185430464	-0.129271523178808	-0.85594701986755	3.08741721854305	-9.37350993377483	-2.72026490066225				-0.0634701986754967	-0.112529801324503	-0.981721854304636	-28.8770860927152	-1.7764238410596	-27.2156291390728				1.01202649006623	0.00349668874172187	-0.0100662251655629	-6.7682119205298	23.2919205298013	-7.05748344370861				-0.144211920529801	-0.366834437086093	-0.900238410596026	30.8203973509934	-0.402384105960265	7.08529801324503			
29	580	-0.296158940397351	0.162754966887417	-0.903523178807947	-10.0466225165563	-2.6646357615894	5.25509933774834				0.896953642384106	0.0797880794701987	-0.00286092715231785	-4.32609271523179	49.5878145695364	-2.26596026490066				-0.282172185430464	-0.113271523178808	-0.87194701986755	-1.11258278145695	-7.13350993377484	-0.20026490066225				-0.0634701986754967	-0.0805298013245033	-0.981721854304636	-24.3970860927152	-0.3764238410596	-27.2156291390728				1.01202649006623	0.0354966887417219	-0.0260662251655629	-8.1682119205298	20.2119205298013	-7.61748344370861				-0.176211920529801	-0.350834437086093	-0.884238410596026	10.9403973509934	5.47761589403974	16.325298013245			
30	600	-0.344158940397351	0.162754966887417	-0.919523178807947	-11.4466225165563	-2.9446357615894	8.61509933774835				1.00895364238411	0.0797880794701987	0.0611390728476822	-10.4860927152318	65.2678145695364	-3.10596026490066				-0.298172185430464	-0.129271523178808	-0.88794701986755	0.00741721854304636	-4.61350993377483	0.91973509933775				-0.0954701986754967	-0.144529801324503	-0.997721854304636	-22.7170860927152	3.8235761589404	-29.1756291390729				0.916026490066225	0.0834966887417219	-0.0100662251655629	-9.8482119205298	22.7319205298013	-6.21748344370861				-0.176211920529801	-0.238834437086093	-0.884238410596026	8.70039735099338	16.3976158940397	20.525298013245			
31	620	-0.328158940397351	0.194754966887417	-0.919523178807947	-14.5266225165563	-0.704635761589404	4.97509933774835				1.04095364238411	0.0957880794701987	0.0131390728476822	-7.40609271523179	67.7878145695364	-3.38596026490066				-0.298172185430464	-0.129271523178808	-0.91994701986755	-0.832582781456954	-3.77350993377483	0.35973509933775				-0.0954701986754967	-0.0805298013245033	-0.965721854304636	-32.7970860927152	7.1835761589404	-30.2956291390729				0.932026490066225	0.0834966887417219	0.0219337748344371	-9.0082119205298	35.8919205298013	-7.89748344370861				-0.160211920529801	-0.222834437086093	-0.916238410596027	27.7403973509934	22.2776158940397	17.445298013245			
32	640	-0.280158940397351	0.194754966887417	-0.903523178807947	-15.0866225165563	1.5353642384106	3.85509933774834				0.960953642384106	0.0317880794701987	-0.0188609271523178	-4.88609271523179	73.6678145695364	0.81403973509934				-0.282172185430464	-0.129271523178808	-0.88794701986755	1.40741721854305	-2.09350993377483	0.63973509933775				-0.0794701986754967	-0.0485298013245033	-0.981721854304636	-32.5170860927152	7.7435761589404	-26.3756291390728				0.980026490066225	0.0834966887417219	0.0379337748344371	-13.2082119205298	40.3719205298013	-7.33748344370861				-0.112211920529801	-0.270834437086093	-0.884238410596026	44.5403973509934	21.4376158940397	11.285298013245			
33	660	-0.280158940397351	0.178754966887417	-0.887523178807947	-11.1666225165563	-0.704635761589404	1.61509933774834				0.928953642384106	0.0317880794701987	-0.0188609271523178	-16.9260927152318	89.6278145695364	-0.585960264900661				-0.266172185430464	-0.0972715231788079	-0.87194701986755	-2.51258278145695	1.54649006622517	0.0797350993377501				-0.0634701986754967	-0.0325298013245033	-0.981721854304636	-24.3970860927152	15.5835761589404	-25.5356291390728				0.980026490066225	0.0674966887417219	0.0699337748344371	-12.0882119205298	37.8519205298013	-6.49748344370861				-0.0482119205298013	-0.334834437086093	-0.836238410596026	36.1403973509934	21.9976158940397	10.725298013245			
34	680	-0.280158940397351	0.226754966887417	-0.903523178807947	-14.5266225165563	-2.1046357615894	1.33509933774834				0.896953642384106	0.111788079470199	0.0451390728476822	-19.4460927152318	106.427814569536	-2.54596026490066				-0.234172185430464	-0.0812715231788079	-0.87194701986755	-1.39258278145695	3.50649006622517	-0.20026490066225				-0.0314701986754967	-0.0325298013245033	-0.997721854304636	-20.1970860927152	20.3435761589404	-21.6156291390729				0.996026490066225	0.0994966887417219	0.101933774834437	-15.1682119205298	38.9719205298013	-9.29748344370861				-0.0162119205298013	-0.350834437086093	-0.820238410596026	17.9403973509934	31.7976158940397	10.445298013245			
35	700	-0.312158940397351	0.258754966887417	-0.951523178807947	-19.8466225165563	-1.5446357615894	4.69509933774834				0.896953642384106	0.0957880794701987	0.285139072847682	-20.0060927152318	117.907814569536	6.97403973509934				-0.282172185430464	-0.0652715231788079	-0.88794701986755	2.52741721854305	1.26649006622517	-1.04026490066225				0.0645298013245033	0.0154701986754967	-0.981721854304636	-16.2770860927152	21.7435761589404	-19.0956291390728				0.948026490066225	0.147496688741722	0.149933774834437	-14.3282119205298	33.6519205298013	-7.89748344370861				0.0957880794701987	-0.350834437086093	-0.852238410596026	13.4603973509934	38.7976158940397	3.72529801324503			
36	720	-0.328158940397351	0.242754966887417	-0.887523178807947	-19.2866225165563	2.0953642384106	3.85509933774834				1.02495364238411	0.0957880794701987	0.237139072847682	-14.9660927152318	109.507814569536	11.4540397350993				-0.346172185430464	-0.0332715231788079	-0.88794701986755	4.76741721854305	0.986490066225167	0.0797350993377501				0.128529801324503	0.0314701986754967	-0.949721854304636	-19.3570860927152	16.7035761589404	-14.0556291390728				0.868026490066225	0.179496688741722	0.181933774834437	-10.6882119205298	33.3719205298013	-6.77748344370861				0.159788079470199	-0.334834437086093	-0.804238410596027	21.5803973509934	32.6376158940397	-1.31470198675497			
37	740	-0.344158940397351	0.226754966887417	-0.903523178807947	-13.9666225165563	4.8953642384106	2.45509933774835				0.976953642384106	0.191788079470199	0.285139072847682	-18.0460927152318	118.467814569536	4.73403973509934				-0.314172185430464	-0.0172715231788079	-0.91994701986755	6.44741721854305	6.58649006622517	1.19973509933775				0.160529801324503	0.0154701986754967	-0.981721854304636	-20.4770860927152	13.0635761589404	-10.9756291390728				0.868026490066225	0.147496688741722	0.293933774834437	-8.4482119205298	42.0519205298013	-10.1374834437086				0.111788079470199	-0.414834437086093	-0.772238410596026	19.9003973509934	26.7576158940397	-1.31470198675497			
38	760	-0.296158940397351	0.274754966887417	-0.903523178807947	-17.8866225165563	4.0553642384106	6.37509933774834				0.912953642384106	0.127788079470199	0.413139072847682	-21.4060927152318	125.747814569536	10.3340397350993				-0.282172185430464	-0.0172715231788079	-0.90394701986755	8.12741721854305	6.58649006622517	1.75973509933775				0.208529801324503	0.0314701986754967	-0.981721854304636	-31.1170860927152	13.3435761589404	-9.29562913907285				0.884026490066225	0.179496688741722	0.405933774834437	-7.8882119205298	44.5719205298013	-12.3774834437086				0.127788079470199	-0.494834437086093	-0.772238410596026	14.8603973509934	35.4376158940397	-1.31470198675497			
39	780	-0.264158940397351	0.258754966887417	-0.871523178807947	-22.0866225165563	9.3753642384106	10.8550993377483				0.976953642384106	0.0317880794701987	0.493139072847682	-16.9260927152318	112.027814569536	12.2940397350993				-0.250172185430464	-0.0492715231788079	-0.88794701986755	19.0474172185431	7.98649006622517	-0.48026490066225				0.288529801324503	0.111470198675497	-0.997721854304636	-34.7570860927152	15.3035761589404	-0.895629139072848				0.964026490066225	0.179496688741722	0.405933774834437	-7.8882119205298	40.3719205298013	-12.6574834437086				0.207788079470199	-0.526834437086093	-0.820238410596026	17.6603973509934	37.3976158940397	-1.03470198675497			
40	800	-0.344158940397351	0.194754966887417	-0.887523178807947	-12.8466225165563	10.4953642384106	8.89509933774834				1.05695364238411	0.0317880794701987	0.573139072847682	-16.6460927152318	89.9078145695364	12.0140397350993				-0.250172185430464	-0.113271523178808	-0.90394701986755	25.2074172185431	4.62649006622517	-2.44026490066225				0.288529801324503	0.159470198675497	-0.949721854304636	-27.1970860927152	13.3435761589404	6.94437086092715				0.964026490066225	0.163496688741722	0.421933774834437	-1.4482119205298	38.9719205298013	-11.5374834437086				0.287788079470199	-0.558834437086093	-0.868238410596026	25.2203973509934	32.3576158940397	-0.194701986754968			
41	820	-0.360158940397351	0.162754966887417	-0.935523178807947	-13.1266225165563	13.2953642384106	10.0150993377483				0.944953642384106	0.0957880794701987	0.429139072847682	-2.36609271523179	55.1878145695364	13.4140397350993				-0.266172185430464	-0.225271523178808	-0.90394701986755	28.287417218543	6.58649006622517	-4.12026490066225				0.320529801324503	0.175470198675497	-0.949721854304636	-15.7170860927152	11.9435761589404	7.78437086092715				0.948026490066225	0.115496688741722	0.421933774834437	-3.1282119205298	35.3319205298013	-10.1374834437086				0.319788079470199	-0.622834437086093	-0.820238410596026	24.6603973509934	22.2776158940397	-0.754701986754968			
42	840	-0.264158940397351	0.178754966887417	-0.919523178807947	-15.9266225165563	13.0153642384106	11.6950993377483				0.912953642384106	-0.0642119205298013	0.445139072847682	4.35390728476821	53.2278145695364	17.0540397350993				-0.234172185430464	-0.225271523178808	-0.88794701986755	21.287417218543	7.70649006622517	-3.84026490066225				0.304529801324503	0.111470198675497	-0.949721854304636	-19.0770860927152	9.1435761589404	-0.895629139072848				0.884026490066225	0.0834966887417219	0.389933774834437	-7.8882119205298	32.8119205298013	-8.73748344370861				0.239788079470199	-0.622834437086093	-0.820238410596026	23.5403973509934	19.4776158940397	3.16529801324503			
43	860	-0.232158940397351	0.178754966887417	-0.919523178807947	-19.2866225165563	10.2153642384106	13.0950993377483				0.912953642384106	-0.160211920529801	0.621139072847682	-17.7660927152318	51.2678145695364	12.8540397350993				-0.218172185430464	-0.241271523178808	-0.83994701986755	18.767417218543	9.66649006622517	-2.44026490066225				0.240529801324503	0.111470198675497	-0.949721854304636	-27.7570860927152	6.0635761589404	-2.29562913907285				0.948026490066225	0.0674966887417219	0.485933774834437	-4.5282119205298	34.7719205298013	-10.1374834437086				0.159788079470199	-0.622834437086093	-0.740238410596026	8.14039735099338	18.3576158940397	12.125298013245			
44	880	-0.264158940397351	0.210754966887417	-0.935523178807947	-22.9266225165563	12.4553642384106	13.6550993377483				0.864953642384106	-0.000211920529801304	0.589139072847682	-27.0060927152318	43.1478145695364	6.97403973509934				-0.218172185430464	-0.225271523178808	-0.83994701986755	22.6874172185431	5.74649006622517	-1.88026490066225				0.256529801324503	0.127470198675497	-0.917721854304636	-31.1170860927152	5.5035761589404	-2.85562913907285				0.916026490066225	0.0674966887417219	0.469933774834437	-11.8082119205298	24.1319205298013	-9.57748344370861				0.175788079470199	-0.558834437086093	-0.772238410596026	5.90039735099338	19.7576158940397	12.125298013245			
45	900	-0.248158940397351	0.162754966887417	-0.887523178807947	-14.5266225165563	14.6953642384106	13.9350993377483				0.816953642384106	0.0797880794701987	0.525139072847682	-10.2060927152318	49.3078145695364	9.77403973509934				-0.234172185430464	-0.177271523178808	-0.85594701986755	24.3674172185431	7.98649006622517	-0.20026490066225				0.224529801324503	0.175470198675497	-0.885721854304636	-31.9570860927152	8.8635761589404	-2.85562913907285				0.852026490066225	0.163496688741722	0.437933774834437	-12.0882119205298	24.9719205298013	-10.1374834437086				0.191788079470199	-0.494834437086093	-0.772238410596026	11.5003973509934	16.3976158940397	6.80529801324503			
46	920	-0.312158940397351	0.178754966887417	-0.887523178807947	-16.2066225165563	12.1753642384106	17.2950993377483				0.912953642384106	0.0797880794701987	0.493139072847682	-1.52609271523179	22.7078145695364	14.2540397350993				-0.202172185430464	-0.193271523178808	-0.87194701986755	22.407417218543	7.42649006622517	1.19973509933775				0.272529801324503	0.207470198675497	-0.837721854304636	-26.0770860927152	18.6635761589404	-0.0556291390728476				0.852026490066225	0.195496688741722	0.469933774834437	-4.8082119205298	27.7719205298013	-9.01748344370861				0.239788079470199	-0.462834437086093	-0.756238410596026	19.3403973509934	14.7176158940397	-2.15470198675497			
47	940	-0.312158940397351	0.226754966887417	-0.919523178807947	-18.7266225165563	11.0553642384106	22.0550993377483				0.832953642384106	-0.000211920529801304	0.541139072847682	6.87390728476821	16.8278145695364	18.1740397350993				-0.234172185430464	-0.177271523178808	-0.85594701986755	20.727417218543	9.10649006622517	0.35973509933775				0.304529801324503	0.207470198675497	-0.821721854304636	-10.9570860927152	28.7435761589404	-0.615629139072848				0	0	0	0	0	0				0	0	0	0	0	0			
48	960	-0.264158940397351	0.258754966887417	-0.919523178807947	-16.4866225165563	11.0553642384106	24.5750993377483				0.832953642384106	-0.112211920529801	0.653139072847682	4.07390728476821	21.8678145695364	16.7740397350993				-0.234172185430464	-0.161271523178808	-0.90394701986755	23.247417218543	10.5064900662252	2.31973509933775				0	0	0	0	0	0				0.836026490066225	0.147496688741722	0.453933774834437	1.0717880794702	27.2119205298013	-6.49748344370861				0.159788079470199	-0.510834437086093	-0.708238410596026	16.8203973509934	14.1576158940397	-11.674701986755			
49	980	-0.200158940397351	0.274754966887417	-0.855523178807947	-14.8066225165563	10.2153642384106	24.8550993377483				0.800953642384106	-0.0802119205298013	0.685139072847682	-8.80609271523179	22.9878145695364	8.09403973509934				-0.122172185430464	-0.177271523178808	-0.87194701986755	27.447417218543	13.0264900662252	2.59973509933775				0.304529801324503	0.223470198675497	-0.869721854304636	-3.39708609271523	37.7035761589404	-3.13562913907285				0.836026490066225	0.0834966887417219	0.501933774834437	4.1517880794702	27.4919205298013	-5.93748344370861				0.143788079470199	-0.510834437086093	-0.676238410596026	7.30039735099338	14.7176158940397	-14.194701986755			
50	1000	-0.184158940397351	0.306754966887417	-0.951523178807947	-18.7266225165563	16.9353642384106	27.9350993377483				0.784953642384106	-0.0162119205298013	0.669139072847682	-5.16609271523179	23.5478145695364	7.25403973509934				-0.122172185430464	-0.209271523178808	-0.87194701986755	24.647417218543	9.38649006622517	2.59973509933775				0.352529801324503	0.175470198675497	-0.917721854304636	-1.43708609271523	35.1835761589404	-6.21562913907285				0.820026490066225	0.131496688741722	0.501933774834437	4.1517880794702	24.6919205298013	-8.17748344370861				0.207788079470199	-0.494834437086093	-0.692238410596026	12.0603973509934	20.5976158940397	-19.234701986755			
51	1020	-0.184158940397351	0.354754966887417	-0.967523178807947	-11.7266225165563	13.8553642384106	31.2950993377483				0.752953642384106	0.0317880794701987	0.557139072847682	-0.686092715231788	22.9878145695364	5.57403973509934				-0.202172185430464	-0.209271523178808	-0.90394701986755	23.247417218543	9.10649006622517	4.27973509933775				0.352529801324503	0.127470198675497	-0.933721854304636	-10.1170860927152	29.8635761589404	-9.29562913907285				0.804026490066225	0.179496688741722	0.421933774834437	2.4717880794702	19.9319205298013	-7.61748344370861				0.239788079470199	-0.478834437086093	-0.740238410596026	15.4203973509934	21.1576158940397	-26.234701986755			
52	1040	-0.136158940397351	0.338754966887417	-0.855523178807947	-20.6866225165563	20.8553642384106	33.8150993377484				0.816953642384106	-0.0322119205298013	0.605139072847682	-4.04609271523179	37.8278145695364	7.53403973509934				-0.202172185430464	-0.209271523178808	-0.88794701986755	32.7674172185431	10.7864900662252	5.67973509933775				0.288529801324503	0.143470198675497	-0.949721854304636	-19.0770860927152	25.1035761589404	-12.6556291390728				0.804026490066225	0.195496688741722	0.453933774834437	1.6317880794702	25.5319205298013	-11.2574834437086				0.255788079470199	-0.542834437086093	-0.724238410596026	24.1003973509934	22.2776158940397	-26.234701986755			
53	1060	-0.200158940397351	0.354754966887417	-0.887523178807947	-21.5266225165563	18.8953642384106	30.7350993377483				0.816953642384106	-0.0802119205298013	0.701139072847682	-21.4060927152318	42.5878145695364	2.21403973509934				-0.170172185430464	-0.273271523178808	-0.90394701986755	27.727417218543	9.66649006622517	7.07973509933775				0.272529801324503	0.191470198675497	-0.949721854304636	-21.5970860927152	25.3835761589404	-13.2156291390728				0.852026490066225	0.195496688741722	0.517933774834437	5.5517880794702	26.9319205298013	-12.0974834437086				0.287788079470199	-0.558834437086093	-0.740238410596026	19.6203973509934	22.2776158940397	-25.954701986755			
54	1080	-0.200158940397351	0.418754966887417	-0.919523178807947	-18.4466225165563	16.3753642384106	29.0550993377483				0.896953642384106	-0.0322119205298013	0.701139072847682	-12.7260927152318	45.6678145695364	9.77403973509934				-0.202172185430464	-0.353271523178808	-0.95194701986755	24.3674172185431	16.6664900662252	8.19973509933775				0.272529801324503	0.223470198675497	-0.901721854304636	-22.9970860927152	28.1835761589404	-11.5356291390728				0.884026490066225	0.179496688741722	0.501933774834437	3.3117880794702	26.9319205298013	-10.4174834437086				0.271788079470199	-0.558834437086093	-0.740238410596026	17.1003973509934	20.3176158940397	-26.514701986755			
55	1100	-0.152158940397351	0.418754966887417	-0.919523178807947	-12.0066225165563	20.8553642384106	23.4550993377483				0.912953642384106	-0.0802119205298013	0.701139072847682	-11.0460927152318	31.6678145695364	14.8140397350993				-0.234172185430464	-0.353271523178808	-0.87194701986755	14.847417218543	19.4664900662252	7.63973509933775				0.304529801324503	0.255470198675497	-0.885721854304636	-22.4370860927152	33.2235761589404	-7.89562913907285				0.900026490066225	0.195496688741722	0.533933774834437	2.4717880794702	28.6119205298013	-9.01748344370861				0.319788079470199	-0.574834437086093	-0.772238410596026	16.8203973509934	22.5576158940397	-28.474701986755			
56	1120	-0.184158940397351	0.450754966887417	-0.967523178807947	-9.20662251655629	22.2553642384106	19.8150993377483				0.912953642384106	-0.0802119205298013	0.845139072847682	-19.7260927152318	38.3878145695364	13.6940397350993				-0.314172185430464	-0.289271523178808	-0.90394701986755	19.607417218543	25.9064900662252	6.79973509933775				0.304529801324503	0.255470198675497	-0.917721854304636	-14.3170860927152	41.9035761589404	-5.65562913907285				0.948026490066225	0.227496688741722	0.549933774834437	-2.5682119205298	28.3319205298013	-8.73748344370861				0.351788079470199	-0.638834437086093	-0.868238410596026	18.5003973509934	26.1976158940397	-30.154701986755			
57	1140	-0.168158940397351	0.418754966887417	-0.951523178807947	-11.7266225165563	27.8553642384106	18.6950993377483				0.912953642384106	0.0317880794701987	0.749139072847682	-13.0060927152318	36.9878145695364	8.09403973509934				-0.250172185430464	-0.273271523178808	-0.90394701986755	18.487417218543	30.1064900662252	9.31973509933775				0.288529801324503	0.239470198675497	-1.01372185430464	-3.67708609271523	52.8235761589404	-3.69562913907285				1.01202649006623	0.211496688741722	0.565933774834437	-2.2882119205298	29.7319205298013	-7.05748344370861				0.319788079470199	-0.670834437086093	-0.884238410596026	20.7403973509934	32.0776158940397	-28.474701986755			
58	1160	-0.152158940397351	0.434754966887417	-0.951523178807947	1.43337748344371	34.0153642384106	15.0550993377483				0.928953642384106	-0.0642119205298013	0.813139072847682	-8.52609271523179	39.7878145695364	10.8940397350993				-0.218172185430464	-0.305271523178808	-0.90394701986755	14.287417218543	34.3064900662252	11.5597350993378				0.416529801324503	0.207470198675497	-1.04572185430464	-0.317086092715232	60.3835761589404	-3.13562913907285				0.996026490066225	0.243496688741722	0.629933774834437	-0.0482119205298018	32.8119205298013	-6.49748344370861				0.335788079470199	-0.654834437086093	-0.884238410596026	16.8203973509934	34.5976158940397	-24.834701986755			
59	1180	-0.184158940397351	0.402754966887417	-0.919523178807947	7.03337748344371	42.1353642384106	12.2550993377483				0.960953642384106	-0.0962119205298013	0.797139072847682	5.47390728476821	34.1878145695364	10.3340397350993				-0.218172185430464	-0.337271523178808	-0.88794701986755	6.16741721854305	37.1064900662252	11.2797350993378				0.544529801324503	0.239470198675497	-0.997721854304636	-9.83708609271523	62.6235761589404	0.504370860927152				0.964026490066225	0.243496688741722	0.597933774834437	3.3117880794702	36.1719205298013	-5.65748344370861				0.399788079470199	-0.654834437086093	-0.884238410596026	16.5403973509934	32.6376158940397	-20.914701986755			
60	1200	-0.184158940397351	0.370754966887417	-0.935523178807947	0.313377483443709	43.5353642384106	10.2950993377483				0.896953642384106	-0.0642119205298013	0.765139072847682	6.87390728476821	25.2278145695364	9.21403973509934				-0.218172185430464	-0.321271523178808	-0.91994701986755	-1.39258278145695	42.9864900662252	10.1597350993378				0.528529801324503	0.271470198675497	-0.981721854304636	-12.9170860927152	58.9835761589404	4.14437086092715				0.996026490066225	0.211496688741722	0.629933774834437	6.3917880794702	36.7319205298013	-4.25748344370861				0.447788079470199	-0.670834437086093	-0.868238410596026	19.0603973509934	26.4776158940397	-21.474701986755			
61	1220	-0.200158940397351	0.402754966887417	-0.935523178807947	2.55337748344371	47.4553642384106	10.0150993377483				0.928953642384106	0.0157880794701987	0.733139072847682	6.59390728476821	18.2278145695364	8.93403973509934				-0.186172185430464	-0.225271523178808	-0.95194701986755	-4.47258278145695	47.4664900662252	7.63973509933775				0.528529801324503	0.271470198675497	-0.997721854304636	-6.47708609271523	60.1035761589404	5.54437086092715				0.996026490066225	0.227496688741722	0.613933774834437	8.0717880794702	29.1719205298013	-2.57748344370861				0.463788079470199	-0.702834437086093	-0.852238410596026	20.4603973509934	18.3576158940397	-20.634701986755			
62	1240	-0.136158940397351	0.354754966887417	-0.935523178807947	2.27337748344371	54.7353642384106	12.8150993377483				0.928953642384106	-0.0642119205298013	0.781139072847682	15.2739072847682	20.7478145695364	12.0140397350993				-0.202172185430464	-0.177271523178808	-0.95194701986755	-7.55258278145695	46.3464900662252	5.39973509933775				0.560529801324503	0.255470198675497	-0.949721854304636	-3.39708609271523	59.5435761589404	5.82437086092715				0.980026490066225	0.211496688741722	0.597933774834437	5.8317880794702	26.0919205298013	-1.73748344370861				0.431788079470199	-0.734834437086093	-0.820238410596026	11.7803973509934	23.6776158940397	-22.034701986755			
63	1260	-0.120158940397351	0.370754966887417	-0.951523178807947	9.55337748344371	57.2553642384106	12.2550993377483				0.896953642384106	-0.0962119205298013	0.733139072847682	20.0339072847682	9.54781456953642	10.6140397350993				-0.154172185430464	-0.0972715231788079	-0.96794701986755	-3.63258278145695	49.4264900662252	1.19973509933775				0.544529801324503	0.287470198675497	-0.949721854304636	2.20291390728477	55.6235761589404	8.34437086092715				0.996026490066225	0.195496688741722	0.677933774834437	5.5517880794702	25.2519205298013	-0.0574834437086077				0.415788079470199	-0.734834437086093	-0.852238410596026	8.98039735099338	28.1576158940397	-20.354701986755			
64	1280	-0.104158940397351	0.338754966887417	-0.967523178807947	11.5133774834437	62.0153642384106	17.5750993377483				0.944953642384106	-0.176211920529801	0.829139072847682	5.47390728476821	13.4678145695364	8.09403973509934				-0.106172185430464	-0.161271523178808	-0.98394701986755	4.48741721854305	52.7864900662252	-6.08026490066225				0.528529801324503	0.271470198675497	-1.04572185430464	23.4829139072848	56.4635761589404	11.1443708609272				0.996026490066225	0.195496688741722	0.677933774834437	4.7117880794702	15.4519205298013	1.34251655629139				0.447788079470199	-0.718834437086093	-0.852238410596026	-1.09960264900662	25.3576158940397	-19.794701986755			
65	1300	-0.040158940397351	0.354754966887417	-1.01552317880795	14.3133774834437	63.6953642384106	15.6150993377483				0.976953642384106	-0.0962119205298013	0.973139072847682	-2.36609271523179	21.8678145695364	3.33403973509934				-0.0741721854304636	-0.225271523178808	-0.96794701986755	4.20741721854305	56.9864900662252	-13.0802649006623				0.528529801324503	0.159470198675497	-1.14172185430464	31.6029139072848	51.4235761589404	15.3443708609272				0.996026490066225	0.195496688741722	0.661933774834437	6.6717880794702	19.0919205298013	2.74251655629139				0.447788079470199	-0.718834437086093	-0.836238410596026	-6.13960264900662	23.9576158940397	-15.314701986755			
66	1320	0.039841059602649	0.306754966887417	-1.06352317880795	18.2333774834437	69.0153642384106	18.9750993377483				0.976953642384106	-0.000211920529801304	0.797139072847682	21.9939072847682	9.54781456953642	2.49403973509934				-0.0101721854304636	-0.225271523178808	-0.98394701986755	2.52741721854305	61.4664900662252	-18.9602649006623				0.592529801324503	0.0634701986754967	-1.12572185430464	21.2429139072848	47.7835761589404	15.9043708609272				1.02802649006623	0.163496688741722	0.661933774834437	5.2717880794702	22.7319205298013	-1.17748344370861				0.479788079470199	-0.686834437086093	-0.868238410596026	-6.41960264900662	24.2376158940397	-13.354701986755			
67	1340	0.055841059602649	0.274754966887417	-1.07952317880795	15.9933774834437	74.6153642384106	23.4550993377483				0.912953642384106	-0.0482119205298013	0.733139072847682	23.3939072847682	0.307814569536424	7.81403973509934				-0.0261721854304636	-0.257271523178808	-0.98394701986755	-0.832582781456954	67.0664900662252	-22.3202649006623				0.640529801324503	0.0954701986754967	-1.07772185430464	-3.95708609271523	41.3435761589404	18.7043708609272				1.09202649006623	0.195496688741722	0.645933774834437	2.7517880794702	21.3319205298013	-4.53748344370861				0.575788079470199	-0.702834437086093	-0.804238410596027	-12.2996026490066	20.5976158940397	-11.114701986755			
68	1360	0.071841059602649	0.306754966887417	-1.01552317880795	19.3533774834437	80.7753642384106	25.9750993377483				0.992953642384106	-0.128211920529801	0.845139072847682	17.7939072847682	10.9478145695364	12.2940397350993				-0.0261721854304636	-0.273271523178808	-0.99994701986755	5.60741721854305	74.9064900662252	-27.0802649006623				0.576529801324503	0.143470198675497	-1.06172185430464	-7.87708609271523	45.5435761589404	26.5443708609272				1.09202649006623	0.243496688741722	0.597933774834437	3.5917880794702	14.3319205298013	-4.81748344370861				0.543788079470199	-0.702834437086093	-0.852238410596026	-25.1796026490066	17.2376158940397	-13.354701986755			
69	1380	0.055841059602649	0.322754966887417	-0.999523178807947	28.5933774834437	86.0953642384106	27.0950993377483				1.00895364238411	-0.192211920529801	0.989139072847682	3.79390728476821	21.8678145695364	9.49403973509934				0.00582781456953642	-0.305271523178808	-1.01594701986755	10.087417218543	83.8664900662252	-29.0402649006623				0.544529801324503	0.191470198675497	-0.997721854304636	-1.99708609271523	60.9435761589404	33.5443708609272				0.996026490066225	0.227496688741722	0.709933774834437	7.5117880794702	14.0519205298013	-4.53748344370861				0.479788079470199	-0.606834437086093	-0.932238410596026	-22.9396026490066	34.3176158940397	-23.994701986755			
70	1400	0.071841059602649	0.290754966887417	-0.999523178807947	43.4333774834437	89.1753642384106	26.2550993377483				1.04095364238411	-0.0642119205298013	1.00513907284768	-0.966092715231788	13.1878145695364	0.53403973509934				0.0538278145695364	-0.337271523178808	-0.95194701986755	7.56741721854305	89.4664900662252	-31.2802649006623				0.544529801324503	0.223470198675497	-0.901721854304636	6.96291390728477	72.7035761589404	39.7043708609272				0.932026490066225	0.195496688741722	0.757933774834437	-1.1682119205298	17.6919205298013	-2.01748344370861				0.447788079470199	-0.590834437086093	-0.932238410596026	-4.73960264900662	33.7576158940397	-26.234701986755			
71	1420	0.167841059602649	0.226754966887417	-0.983523178807947	45.9533774834437	93.9353642384106	24.8550993377483				0.768953642384106	0.511788079470199	0.701139072847682	15.5539072847682	-2.77218543046358	2.77403973509934				0.0858278145695364	-0.305271523178808	-0.91994701986755	3.64741721854305	94.5064900662252	-30.1602649006623				0.560529801324503	0.159470198675497	-0.853721854304636	23.7629139072848	74.6635761589404	39.7043708609272				0.996026490066225	0.259496688741722	0.629933774834437	-16.0082119205298	18.2519205298013	-1.17748344370861				0.495788079470199	-0.622834437086093	-0.948238410596026	-9.49960264900662	32.9176158940397	-18.674701986755			
72	1440	0.231841059602649	0.274754966887417	-0.967523178807947	45.9533774834437	96.4553642384106	23.7350993377483				0.960953642384106	-0.000211920529801304	0.861139072847682	16.3939072847682	7.02781456953642	9.77403973509934				0.149827814569536	-0.241271523178808	-0.90394701986755	16.247417218543	100.946490066225	-31.0002649006623				0.672529801324503	0.207470198675497	-0.869721854304636	37.2029139072848	83.6235761589404	40.8243708609272				0.980026490066225	0.259496688741722	0.581933774834437	-7.0482119205298	23.8519205298013	-2.29748344370861				0.527788079470199	-0.638834437086093	-0.932238410596026	-15.0996026490066	26.1976158940397	-9.99470198675497			
73	1460	0.231841059602649	0.274754966887417	-0.887523178807947	49.8733774834437	102.055364238411	23.1750993377483				0.832953642384106	-0.192211920529801	0.701139072847682	10.5139072847682	-10.6121854304636	10.8940397350993				0.197827814569536	-0.257271523178808	-0.87194701986755	15.967417218543	102.906490066225	-30.4402649006623				0.752529801324503	0.127470198675497	-0.901721854304636	49.2429139072848	78.3035761589404	35.2243708609272				0.932026490066225	0.211496688741722	0.597933774834437	-4.2482119205298	15.4519205298013	1.06251655629139				0.495788079470199	-0.526834437086093	-0.964238410596026	-27.9796026490066	25.6376158940397	-4.11470198675497			
74	1480	0.215841059602649	0.242754966887417	-0.887523178807947	53.7933774834437	103.735364238411	20.6550993377483				0.848953642384106	-0.160211920529801	0.749139072847682	-0.126092715231788	10.3878145695364	3.33403973509934				0.229827814569536	-0.289271523178808	-0.82394701986755	10.087417218543	107.106490066225	-30.4402649006623				0.720529801324503	0.0314701986754967	-0.885721854304636	40.8429139072848	76.6235761589404	22.9043708609272				0.884026490066225	0.163496688741722	0.597933774834437	-3.9682119205298	11.2519205298013	4.42251655629139				0.463788079470199	-0.462834437086093	-0.900238410596026	-6.97960264900662	16.9576158940397	-4.95470198675497			
75	1500	0.279841059602649	0.210754966887417	-0.887523178807947	55.1933774834437	103.175364238411	15.8950993377483				0.784953642384106	-0.000211920529801304	0.653139072847682	-7.68609271523179	10.9478145695364	-0.86596026490066				0.245827814569536	-0.289271523178808	-0.74394701986755	5.88741721854305	109.066490066225	-28.7602649006623				0.672529801324503	0.0154701986754967	-0.789721854304636	13.9629139072848	73.5435761589404	10.5843708609272				0.772026490066225	0.0674966887417219	0.421933774834437	6.9517880794702	12.3719205298013	3.02251655629139				0.383788079470199	-0.414834437086093	-0.788238410596027	8.14039735099338	7.71761589403974	-4.95470198675497			
76	1520	0.311841059602649	0.210754966887417	-0.871523178807947	45.6733774834437	100.655364238411	12.2550993377483				0.848953642384106	-0.0802119205298013	0.669139072847682	-10.7660927152318	10.6678145695364	6.97403973509934				0.309827814569536	-0.273271523178808	-0.71194701986755	1.40741721854305	107.386490066225	-24.5602649006623				0.656529801324503	0.0474701986754967	-0.597721854304636	-1.15708609271523	62.6235761589404	4.98437086092715				0.756026490066225	0.227496688741722	0.597933774834437	-9.8482119205298	2.85192052980133	0.782516556291392				0.351788079470199	-0.494834437086093	-0.708238410596026	12.6203973509934	-7.12238410596027	-1.31470198675497			
77	1540	0.311841059602649	0.194754966887417	-0.807523178807947	47.6333774834437	100.935364238411	10.0150993377483				0.816953642384106	-0.0482119205298013	0.589139072847682	-9.36609271523179	-4.17218543046358	6.97403973509934				0.325827814569536	-0.273271523178808	-0.71194701986755	0.287417218543046	105.986490066225	-17.8402649006623				0.624529801324503	0.143470198675497	-0.629721854304636	26.5629139072848	70.7435761589404	7.78437086092715				0.804026490066225	0.179496688741722	0.565933774834437	-26.0882119205298	13.7719205298013	-1.45748344370861				0.399788079470199	-0.558834437086093	-0.676238410596026	7.02039735099338	-5.44238410596027	2.60529801324503			
78	1560	0.295841059602649	0.130754966887417	-0.759523178807947	43.7133774834437	101.495364238411	7.21509933774835				0.720953642384106	-0.0962119205298013	0.525139072847682	-12.4460927152318	1.98781456953642	3.61403973509934				0.341827814569536	-0.305271523178808	-0.75994701986755	1.12741721854305	105.706490066225	-11.1202649006623				0.656529801324503	0.127470198675497	-0.629721854304636	54.0029139072848	75.2235761589404	15.0643708609272				0.788026490066225	0.147496688741722	0.565933774834437	-8.7282119205298	-7.22807947019868	6.38251655629139				0.479788079470199	-0.574834437086093	-0.692238410596026	-4.45960264900662	-13.0023841059603	3.16529801324503			
79	1580	0.311841059602649	0.114754966887417	-0.711523178807947	38.3933774834437	103.175364238411	5.81509933774834				0.704953642384106	-0.112211920529801	0.573139072847682	-21.9660927152318	20.4678145695364	0.25403973509934				0.405827814569536	-0.289271523178808	-0.67994701986755	-4.47258278145695	106.546490066225	-3.84026490066225				0.688529801324503	-0.0485298013245033	-0.645721854304636	75.8429139072848	70.4635761589404	13.3843708609272				0.740026490066225	0.131496688741722	0.549933774834437	-26.9282119205298	-17.0280794701987	4.14251655629139				0.479788079470199	-0.494834437086093	-0.724238410596026	-16.4996026490066	-28.9623841059603	9.60529801324503			
80	1600	0.391841059602649	0.0507549668874172	-0.695523178807947	35.0333774834437	104.295364238411	4.97509933774835				0.720953642384106	-0.0482119205298013	0.701139072847682	-20.5660927152318	19.6278145695364	-5.06596026490066				0.469827814569536	-0.257271523178808	-0.71194701986755	-13.992582781457	105.146490066225	-1.60026490066225				0.784529801324503	-0.160529801324503	-0.661721854304636	60.7229139072848	51.1435761589404	14.5043708609272				0.740026490066225	0.0834966887417219	0.517933774834437	-21.8882119205298	-13.3880794701987	4.70251655629139				0.399788079470199	-0.430834437086093	-0.724238410596026	-5.01960264900662	-38.2023841059603	15.205298013245			
81	1620	0.503841059602649	0.0187549668874172	-0.759523178807947	32.2333774834437	101.495364238411	3.85509933774834				0.720953642384106	-0.000211920529801304	0.717139072847682	-9.36609271523179	5.34781456953642	-3.94596026490066				0.501827814569536	-0.209271523178808	-0.74394701986755	-15.672582781457	102.066490066225	-3.28026490066225				0.784529801324503	-0.0325298013245033	-0.613721854304636	27.1229139072848	29.0235761589404	18.7043708609272				0.772026490066225	0.0354966887417219	0.469933774834437	-29.7282119205298	-8.06807947019868	3.58251655629139				0.639788079470199	-0.478834437086093	-0.676238410596026	5.62039735099338	-36.8023841059603	0.0852980132450323			
82	1640	0.631841059602649	-0.0612450331125828	-0.791523178807947	24.3933774834437	98.9753642384106	6.37509933774834				0.672953642384106	-0.128211920529801	0.621139072847682	-3.76609271523179	2.82781456953642	-5.34596026490066				0.613827814569536	-0.177271523178808	-0.71194701986755	-1.39258278145695	106.826490066225	-3.56026490066225				0.688529801324503	0.0154701986754967	-0.517721854304636	26.0029139072848	14.7435761589404	16.4643708609272				0.724026490066225	0.115496688741722	0.405933774834437	-1.7282119205298	-46.4280794701987	15.3425165562914				0.479788079470199	-0.590834437086093	-0.628238410596026	63.3003973509934	-59.4823841059603	5.96529801324503			
83	1660	0.647841059602649	-0.0292450331125828	-0.839523178807947	16.2733774834437	95.3353642384106	11.1350993377483				0.736953642384106	-0.192211920529801	0.701139072847682	-1.80609271523179	-24.8921854304636	-1.70596026490066				0.565827814569536	-0.177271523178808	-0.61594701986755	4.20741721854305	102.626490066225	-8.04026490066225				0.688529801324503	0.0634701986754967	-0.533721854304636	22.3629139072848	-3.7364238410596	15.6243708609272				0.644026490066225	0.211496688741722	0.693933774834437	22.3517880794702	-64.3480794701987	23.7425165562914				0.271788079470199	-0.590834437086093	-0.500238410596026	43.9803973509934	-42.4023841059603	11.285298013245			
84	1680	0.599841059602649	0.00275496688741723	-0.727523178807947	21.5933774834437	95.6153642384106	11.6950993377483				0.752953642384106	-0.000211920529801304	0.781139072847682	-17.4860927152318	3.66781456953642	-14.3059602649007				0.597827814569536	-0.177271523178808	-0.55194701986755	1.96741721854305	100.946490066225	-6.92026490066225				0.656529801324503	0.0314701986754967	-0.597721854304636	45.8829139072848	-5.4164238410596	20.9443708609272				0.804026490066225	0.179496688741722	0.885933774834437	70.2317880794702	-165.428079470199	49.5025165562914				0.415788079470199	-0.558834437086093	-0.644238410596026	-42.2596026490066	-37.3623841059603	29.485298013245			
85	1700	0.615841059602649	-0.0292450331125828	-0.615523178807947	16.2733774834437	99.5353642384106	11.6950993377483				0.688953642384106	-0.0162119205298013	0.845139072847682	-0.686092715231788	-5.01218543046358	-14.3059602649007				0.661827814569536	-0.177271523178808	-0.53594701986755	-6.71258278145695	106.266490066225	-3.84026490066225				0.624529801324503	-0.160529801324503	-0.565721854304636	56.5229139072848	6.6235761589404	28.2243708609272				0.788026490066225	0.00349668874172187	-0.0740662251655629	-53.5282119205298	-167.388079470199	58.4625165562914				0.463788079470199	-0.334834437086093	-0.756238410596026	-35.5396026490066	-28.6823841059603	8.48529801324503			
86	1720	0.679841059602649	-0.0292450331125828	-0.599523178807947	10.1133774834437	107.935364238411	10.5750993377483				0.576953642384106	-0.0482119205298013	0.717139072847682	23.9539072847682	-18.1721854304636	-11.5059602649007				0.725827814569536	-0.209271523178808	-0.56794701986755	1.40741721854305	117.466490066225	-13.6402649006623				0.704529801324503	-0.0645298013245033	-0.533721854304636	54.5629139072848	29.8635761589404	29.6243708609272				0.676026490066225	0.131496688741722	0.613933774834437	-19.6482119205298	-96.5480794701987	43.9025165562914				0.335788079470199	-0.462834437086093	-0.676238410596026	65.8203973509934	-32.6023841059603	-13.914701986755			
87	1740	0.759841059602649	0.00275496688741723	-0.535523178807947	12.3533774834437	103.455364238411	12.5350993377483				0.592953642384106	-0.192211920529801	0.605139072847682	11.3539072847682	-15.0921854304636	-4.50596026490066				0.757827814569536	-0.257271523178808	-0.48794701986755	2.52741721854305	123.626490066225	-22.6002649006623				0.864529801324503	0.0474701986754967	-0.405721854304636	34.6829139072848	33.2235761589404	31.0243708609272				0.948026490066225	0.0354966887417219	0.405933774834437	-136.68821192053	-67.4280794701987	17.5825165562914				0.271788079470199	-0.542834437086093	-0.516238410596026	64.4203973509934	-14.6823841059603	-10.554701986755			
88	1760	0.791841059602649	0.0187549668874172	-0.519523178807947	10.3933774834437	107.095364238411	13.0950993377483				0.608953642384106	-0.112211920529801	0.829139072847682	-8.80609271523179	7.58781456953643	-12.0659602649007				0.757827814569536	-0.209271523178808	-0.42394701986755	-3.35258278145695	111.586490066225	-20.6402649006623				0.784529801324503	-0.0165298013245033	-0.437721854304636	30.4829139072848	21.4635761589404	25.4243708609272				0.788026490066225	-0.0125033112582781	0.613933774834437	-53.8082119205298	-68.2680794701987	8.06251655629139				0.319788079470199	-0.494834437086093	-0.628238410596026	47.3403973509934	-19.1623841059603	-8.87470198675497			
89	1780	0.855841059602649	0.00275496688741723	-0.423523178807947	6.19337748344371	109.895364238411	13.0950993377483				0.528953642384106	0.111788079470199	0.893139072847682	-1.24609271523179	-4.73218543046358	-9.26596026490066				0.725827814569536	-0.209271523178808	-0.32794701986755	-3.91258278145695	93.3864900662252	-6.92026490066225				0.768529801324503	-0.000529801324503289	-0.501721854304636	37.4829139072848	34.3435761589404	20.9443708609272				0.756026490066225	0.0834966887417219	0.501933774834437	-59.9682119205298	27.2119205298013	-0.897483443708608				0.303788079470199	-0.574834437086093	-0.516238410596026	30.5403973509934	-20.2823841059603	-3.55470198675497			
90	1800	0.919841059602649	0.0507549668874172	-0.343523178807947	5.07337748344371	108.215364238411	11.4150993377483				0.480953642384106	0.0317880794701987	0.733139072847682	10.2339072847682	-17.6121854304636	6.41403973509934				0.709827814569536	-0.209271523178808	-0.37594701986755	-11.752582781457	102.066490066225	2.03973509933775				0.768529801324503	-0.0165298013245033	-0.277721854304636	14.5229139072848	49.7435761589404	10.0243708609272				0.788026490066225	0.0994966887417219	0.405933774834437	-44.5682119205298	21.6119205298013	-3.69748344370861				0.383788079470199	-0.590834437086093	-0.484238410596026	14.3003973509934	-27.5623841059603	3.72529801324503			
91	1820	0.951841059602649	0.0347549668874172	-0.343523178807947	8.71337748344371	107.095364238411	7.77509933774834				0.432953642384106	-0.0482119205298013	0.717139072847682	9.11390728476821	-11.4521854304636	8.37403973509934				0.821827814569536	-0.257271523178808	-0.34394701986755	-21.272582781457	114.386490066225	4.83973509933775				0.864529801324503	-0.000529801324503289	-0.181721854304636	12.2829139072848	49.4635761589404	-1.17562913907285				0.804026490066225	-0.0125033112582781	0.421933774834437	-29.1682119205298	12.6519205298013	1.06251655629139				0.415788079470199	-0.510834437086093	-0.644238410596026	2.54039735099338	-24.2023841059603	4.00529801324503			
92	1840	0.887841059602649	0.0827549668874172	-0.231523178807947	5.35337748344371	105.695364238411	11.1350993377483				0.384953642384106	-0.208211920529801	0.797139072847682	15.8339072847682	-17.8921854304636	5.01403973509934				0.949827814569536	-0.321271523178808	-0.27994701986755	-20.712582781457	114.946490066225	2.03973509933775				0.816529801324503	-0.000529801324503289	-0.325721854304636	47.8429139072848	31.8235761589404	-0.335629139072848				0.740026490066225	-0.0125033112582781	0.533933774834437	-22.7282119205298	6.77192052980133	-2.01748344370861				0.335788079470199	-0.510834437086093	-0.612238410596026	31.3803973509934	-26.1623841059603	-5.23470198675497			
93	1860	0.775841059602649	0.0347549668874172	-0.231523178807947	7.03337748344371	104.295364238411	11.4150993377483				0.448953642384106	-0.240211920529801	0.685139072847682	22.2739072847682	-31.8921854304636	4.17403973509934				0.965827814569536	-0.321271523178808	-0.16794701986755	-3.63258278145695	89.1864900662252	-1.88026490066225				0.912529801324503	0.0154701986754967	-0.277721854304636	48.1229139072848	28.4635761589404	1.62437086092715				0.612026490066225	-0.0125033112582781	0.565933774834437	-19.0882119205298	6.77192052980133	-5.09748344370861				0.239788079470199	-0.654834437086093	-0.324238410596026	50.9803973509934	-18.6023841059603	5.68529801324503			
94	1880	0.855841059602649	-0.0612450331125828	-0.183523178807947	9.83337748344371	102.055364238411	3.57509933774835				0.512953642384106	-0.112211920529801	0.685139072847682	8.27390728476821	-24.8921854304636	2.21403973509934				0.949827814569536	-0.225271523178808	-0.19994701986755	-8.95258278145695	59.5064900662252	-0.48026490066225				0.736529801324503	-0.240529801324503	-0.229721854304636	30.7629139072848	11.1035761589404	1.62437086092715				0.724026490066225	-0.0605033112582781	0.485933774834437	-18.5282119205298	2.57192052980133	-0.617483443708608				0.335788079470199	-0.702834437086093	-0.436238410596026	-10.3396026490066	-16.3623841059603	26.405298013245			
95	1900	0.855841059602649	-0.0612450331125828	-0.263523178807947	-4.16662251655629	87.7753642384106	0.495099337748344				0.544953642384106	-0.112211920529801	0.749139072847682	4.63390728476821	-16.4921854304636	3.33403973509934				0.901827814569536	-0.145271523178808	-0.24794701986755	-15.952582781457	39.6264900662252	4.55973509933775				0.624529801324503	-0.112529801324503	-0.325721854304636	-1.15708609271523	11.3835761589404	6.66437086092715				0.692026490066225	-0.0285033112582781	0.549933774834437	-24.4082119205298	-0.228079470198675	3.86251655629139				0.415788079470199	-0.606834437086093	-0.500238410596026	-14.5396026490066	-16.9223841059603	11.005298013245			
96	1920	0.871841059602649	-0.0452450331125828	-0.247523178807947	-7.24662251655629	85.8153642384106	0.495099337748344				0.480953642384106	-0.224211920529801	0.621139072847682	-3.76609271523179	-28.8121854304636	9.21403973509934				0.741827814569536	-0.113271523178808	-0.24794701986755	-3.63258278145695	38.5064900662252	1.75973509933775				0.912529801324503	0.0314701986754967	-0.245721854304636	27.4029139072848	8.5835761589404	7.22437086092715				0.516026490066225	-0.0765033112582781	0.565933774834437	-26.9282119205298	-4.98807947019868	0.502516556291392				0.463788079470199	-0.686834437086093	-0.372238410596026	11.5003973509934	-18.8823841059603	15.205298013245			
97	1940	0.871841059602649	-0.0132450331125828	-0.279523178807947	6.75337748344371	84.4153642384106	1.33509933774834				0.528953642384106	-0.144211920529801	0.749139072847682	-17.4860927152318	-14.2521854304636	1.93403973509934				0.789827814569536	-0.0972715231788079	-0.23194701986755	16.247417218543	49.4264900662252	-7.76026490066225				0.976529801324503	-0.224529801324503	-0.213721854304636	25.7229139072848	-2.6164238410596	17.0243708609272				0.692026490066225	0.0674966887417219	0.485933774834437	-5.9282119205298	-4.70807947019868	5.82251655629139				0	0	0	0	0	0			
98	1960	0.999841059602649	-0.109245033112583	-0.279523178807947	9.55337748344371	76.0153642384106	0.215099337748344				0.576953642384106	0.0157880794701987	0.797139072847682	2.95390728476821	-10.8921854304636	-4.22596026490066				0.789827814569536	-0.113271523178808	-0.19994701986755	23.807417218543	52.7864900662252	-10.0002649006623				0	0	0	0	0	0				0	0	0	0	0	0				0.303788079470199	-0.542834437086093	-0.420238410596026	-24.8996026490066	-6.56238410596027	10.445298013245			
99	1980	0.919841059602649	-0.0292450331125828	-0.231523178807947	3.95337748344371	65.0953642384106	-1.46490066225166				0.464953642384106	-0.0802119205298013	0.669139072847682	2.95390728476821	-15.6521854304636	6.13403973509934				0.869827814569536	-0.161271523178808	-0.15194701986755	22.127417218543	56.1464900662252	-10.5602649006623				0.784529801324503	0.159470198675497	-0.277721854304636	-8.43708609271523	22.8635761589404	3.30437086092715				0.596026490066225	-0.0125033112582781	0.581933774834437	-14.0482119205298	-2.46807947019868	3.58251655629139				0.191788079470199	-0.638834437086093	-0.548238410596027	-19.2996026490066	-0.682384105960265	1.76529801324503			
100	2000	0.807841059602649	0.00275496688741723	-0.135523178807947	11.7933774834437	66.7753642384106	-0.344900662251656				0.496953642384106	-0.128211920529801	0.701139072847682	-15.2460927152318	-15.0921854304636	8.65403973509934				0.885827814569536	-0.209271523178808	-0.15194701986755	17.3674172185431	58.9464900662252	-13.6402649006623				1.0405298013245	-0.0485298013245033	-0.0537218543046357	19.2829139072848	11.9435761589404	5.26437086092715				0.564026490066225	-0.0765033112582781	0.533933774834437	-11.2482119205298	2.57192052980133	5.54251655629139				0.303788079470199	-0.526834437086093	-0.564238410596026	2.82039735099338	7.43761589403974	10.445298013245			
101	2020	0.871841059602649	-0.0452450331125828	-0.055523178807947	17.9533774834437	68.1753642384106	-1.18490066225166				0.720953642384106	-0.0802119205298013	0.813139072847682	-13.5660927152318	-10.6121854304636	1.93403973509934				0.853827814569536	-0.289271523178808	-0.16794701986755	10.087417218543	57.8264900662252	-11.1202649006623				0.736529801324503	-0.240529801324503	-0.293721854304636	26.5629139072848	5.5035761589404	2.46437086092715				0.820026490066225	-0.0605033112582781	0.389933774834437	-5.9282119205298	7.89192052980133	5.82251655629139				0.319788079470199	-0.606834437086093	-0.420238410596026	34.4603973509934	6.31761589403974	3.16529801324503			
102	2040	0.935841059602649	-0.0292450331125828	-0.039523178807947	9.27337748344371	66.4953642384106	-3.42490066225166				0.640953642384106	-0.000211920529801304	0.701139072847682	9.11390728476821	-25.1721854304636	-8.70596026490066				0.853827814569536	-0.337271523178808	-0.10394701986755	13.447417218543	45.5064900662252	-5.52026490066225				0.544529801324503	-0.128529801324503	-0.373721854304636	6.96291390728477	24.8235761589404	-10.1356291390728				0.804026490066225	-0.0445033112582781	0.453933774834437	-11.5282119205298	6.21192052980133	6.38251655629139				0.319788079470199	-0.622834437086093	-0.388238410596026	17.3803973509934	5.19761589403974	-11.954701986755			
103	2060	0.935841059602649	-0.0132450331125828	-0.00752317880794696	3.11337748344371	65.3753642384106	-3.70490066225166				0.480953642384106	-0.208211920529801	0.573139072847682	9.95390728476821	-9.77218543046358	-3.66596026490066				0.869827814569536	-0.337271523178808	-0.0879470198675496	2.24741721854305	35.7064900662252	-3.28026490066225				0.752529801324503	-0.128529801324503	-0.277721854304636	8.08291390728477	34.9035761589404	-10.4156291390728				0.596026490066225	-0.0605033112582781	0.533933774834437	-13.4882119205298	7.05192052980133	6.10251655629139				0.223788079470199	-0.654834437086093	-0.532238410596027	2.54039735099338	11.0776158940397	-4.39470198675497			
104	2080	0.967841059602649	-0.0292450331125828	-0.135523178807947	11.2333774834437	56.1353642384106	-5.66490066225166				0.544953642384106	-0.144211920529801	0.701139072847682	3.79390728476821	9.26781456953642	-3.10596026490066				0.917827814569536	-0.337271523178808	-0.11994701986755	-15.112582781457	39.9064900662252	-1.60026490066225				0.976529801324503	-0.256529801324503	-0.245721854304636	17.8829139072848	23.9835761589404	0.504370860927152				0.692026490066225	-0.124503311258278	0.517933774834437	-11.8082119205298	10.9719205298013	6.66251655629139				0.319788079470199	-0.622834437086093	-0.548238410596027	12.6203973509934	17.2376158940397	4.84529801324503			
105	2100	0.967841059602649	-0.0292450331125828	-0.215523178807947	3.11337748344371	50.5353642384106	-9.30490066225166				0.800953642384106	-0.0802119205298013	0.957139072847682	2.11390728476821	-1.93218543046358	-6.46596026490066				0.981827814569536	-0.273271523178808	-0.11994701986755	-24.072582781457	36.2664900662252	2.87973509933775				0.928529801324503	-0.224529801324503	-0.341721854304636	2.48291390728477	19.2235761589404	0.784370860927152				0.900026490066225	0.0354966887417219	0.485933774834437	-5.3682119205298	14.3319205298013	3.02251655629139				0.367788079470199	-0.590834437086093	-0.500238410596026	10.9403973509934	14.9976158940397	-5.51470198675497			
106	2120	0.983841059602649	0.00275496688741723	-0.151523178807947	1.71337748344371	42.4153642384106	-7.06490066225166				0.656953642384106	-0.112211920529801	0.717139072847682	7.15390728476821	-22.9321854304636	-7.58596026490066				0.933827814569536	-0.241271523178808	-0.10394701986755	-16.792582781457	31.7864900662252	3.15973509933775				0.864529801324503	-0.0965298013245033	-0.421721854304636	6.96291390728477	10.8235761589404	-4.53562913907285				0.820026490066225	0.0194966887417219	0.485933774834437	-11.5282119205298	10.1319205298013	2.18251655629139				0.335788079470199	-0.718834437086093	-0.548238410596027	2.54039735099338	12.7576158940397	-12.794701986755			
107	2140	0.983841059602649	-0.0772450331125828	-0.135523178807947	7.59337748344371	39.3353642384106	-3.42490066225166				0.528953642384106	-0.0802119205298013	0.653139072847682	6.87390728476821	-3.89218543046358	-2.82596026490066				0.933827814569536	-0.273271523178808	-0.13594701986755	-15.112582781457	27.0264900662252	-0.48026490066225				0.944529801324503	-0.0485298013245033	-0.293721854304636	-7.59708609271523	11.9435761589404	-9.01562913907285				0.772026490066225	-0.0765033112582781	0.517933774834437	-14.3282119205298	8.73192052980133	2.46251655629139				0.303788079470199	-0.766834437086093	-0.740238410596026	-16.2196026490066	10.7976158940397	-3.83470198675497			
108	2160	0.999841059602649	-0.141245033112583	-0.103523178807947	5.63337748344371	42.4153642384106	-2.30490066225166				0.720953642384106	-0.0802119205298013	0.749139072847682	-0.966092715231788	9.26781456953642	0.53403973509934				0.949827814569536	-0.241271523178808	-0.13594701986755	-7.83258278145695	26.1864900662252	-1.60026490066225				0.944529801324503	-0.144529801324503	-0.229721854304636	-2.55708609271523	5.7835761589404	-11.5356291390728				0.884026490066225	-0.124503311258278	0.517933774834437	-7.6082119205298	5.37192052980133	2.46251655629139				0.447788079470199	-0.654834437086093	-0.676238410596026	-0.259602649006623	4.35761589403974	5.12529801324503			
109	2180	0.967841059602649	-0.109245033112583	-0.055523178807947	-1.92662251655629	33.1753642384106	-3.70490066225166				0.832953642384106	-0.128211920529801	0.717139072847682	3.51390728476821	-3.61218543046358	-1.98596026490066				0.997827814569536	-0.225271523178808	-0.18394701986755	6.16741721854305	20.3064900662252	-0.76026490066225				0.800529801324503	-0.160529801324503	-0.357721854304636	15.9229139072848	6.6235761589404	-11.2556291390728				0.868026490066225	0.00349668874172187	0.485933774834437	-1.1682119205298	3.69192052980133	-1.73748344370861				0.431788079470199	-0.590834437086093	-0.516238410596026	16.5403973509934	-3.76238410596027	1.76529801324503			
110	2200	0.967841059602649	-0.0292450331125828	-0.071523178807947	2.83337748344371	36.5353642384106	-7.62490066225166				0.736953642384106	-0.128211920529801	0.621139072847682	2.67390728476821	-3.61218543046358	-3.66596026490066				0.981827814569536	-0.177271523178808	-0.21594701986755	7.28741721854305	16.9464900662252	-2.16026490066225				0.848529801324503	-0.224529801324503	-0.453721854304636	30.7629139072848	7.4635761589404	-7.89562913907285				0.756026490066225	0.0514966887417219	0.517933774834437	-0.0482119205298018	1.17192052980133	-4.25748344370861				0.255788079470199	-0.638834437086093	-0.564238410596026	6.18039735099338	3.23761589403974	-3.27470198675497			
111	2220	0.935841059602649	-0.0452450331125828	-0.071523178807947	0.873377483443709	32.3353642384106	-10.1449006622517				0.688953642384106	-0.0322119205298013	0.685139072847682	0.713907284768212	11.7878145695364	2.49403973509934				0.901827814569536	-0.225271523178808	-0.23194701986755	7.28741721854305	16.3864900662252	-7.20026490066225				0.928529801324503	-0.240529801324503	-0.405721854304636	8.36291390728477	-2.3364238410596	5.54437086092715				0.772026490066225	-0.0285033112582781	0.517933774834437	-0.888211920529802	2.57192052980133	-2.29748344370861				0.271788079470199	-0.638834437086093	-0.596238410596026	-8.37960264900662	13.0376158940397	-4.39470198675497			
112	2240	0.919841059602649	-0.0612450331125828	-0.071523178807947	3.11337748344371	33.4553642384106	-10.4249006622517				0.752953642384106	-0.0642119205298013	0.685139072847682	2.67390728476821	4.50781456953642	6.69403973509934				0.869827814569536	-0.193271523178808	-0.21594701986755	18.487417218543	20.5864900662252	-12.5202649006623				0.912529801324503	-0.176529801324503	-0.389721854304636	-6.47708609271523	-9.8964238410596	5.54437086092715				0.836026490066225	-0.0925033112582781	0.469933774834437	1.6317880794702	3.97192052980133	1.06251655629139				0.351788079470199	-0.606834437086093	-0.612238410596026	2.54039735099338	14.1576158940397	-2.15470198675497			
113	2260	0.919841059602649	-0.0292450331125828	-0.103523178807947	-1.36662251655629	28.1353642384106	-8.18490066225166				0.736953642384106	-0.0802119205298013	0.685139072847682	10.2339072847682	-1.37218543046358	5.57403973509934				0.869827814569536	-0.193271523178808	-0.24794701986755	13.447417218543	15.5464900662252	-9.72026490066225				0.848529801324503	-0.160529801324503	-0.405721854304636	-16.5570860927152	-6.5364238410596	-6.49562913907285				0.868026490066225	-0.0125033112582781	0.469933774834437	4.1517880794702	1.73192052980133	-2.01748344370861				0.335788079470199	-0.638834437086093	-0.564238410596026	8.42039735099338	7.71761589403974	-2.71470198675497			
114	2280	0.935841059602649	0.0347549668874172	-0.103523178807947	6.75337748344371	23.0953642384106	-7.06490066225166				0.704953642384106	-0.000211920529801304	0.621139072847682	10.5139072847682	-3.33218543046358	3.89403973509934				0.885827814569536	-0.225271523178808	-0.21594701986755	3.08741721854305	13.3064900662252	-6.64026490066225				0.848529801324503	-0.144529801324503	-0.357721854304636	-8.15708609271523	-2.6164238410596	-7.89562913907285				0.756026490066225	0.0994966887417219	0.437933774834437	7.5117880794702	2.57192052980133	-4.53748344370861				0.271788079470199	-0.558834437086093	-0.564238410596026	-2.21960264900662	13.0376158940397	-4.67470198675497			
115	2300	0.935841059602649	0.0187549668874172	-0.135523178807947	13.7533774834437	23.0953642384106	-6.78490066225166				0.688953642384106	-0.000211920529801304	0.605139072847682	7.15390728476821	-1.09218543046358	6.13403973509934				0.853827814569536	-0.193271523178808	-0.19994701986755	1.68741721854305	9.10649006622517	-7.48026490066225				0.848529801324503	-0.112529801324503	-0.357721854304636	13.6829139072848	-6.5364238410596	-0.615629139072848				0.772026490066225	0.0514966887417219	0.437933774834437	8.3517880794702	1.73192052980133	-2.85748344370861				0.303788079470199	-0.558834437086093	-0.580238410596026	0.0203973509933773	16.6776158940397	-9.99470198675497			
116	2320	0.903841059602649	-0.0132450331125828	-0.135523178807947	8.99337748344371	20.2953642384106	-4.26490066225166				0.752953642384106	-0.0802119205298013	0.573139072847682	5.75390728476821	0.867814569536424	7.53403973509934				0.917827814569536	-0.145271523178808	-0.19994701986755	3.92741721854305	6.86649006622517	-7.76026490066225				0.832529801324503	-0.0645298013245033	-0.421721854304636	12.2829139072848	-13.2564238410596	-5.37562913907285				0.948026490066225	-0.0125033112582781	0.453933774834437	8.6317880794702	1.45192052980132	-2.85748344370861				0.335788079470199	-0.670834437086093	-0.676238410596026	-15.6596026490066	8.55761589403974	-9.99470198675497			
117	2340	0.935841059602649	-0.0132450331125828	-0.103523178807947	-2.48662251655629	18.3353642384106	-0.624900662251656				0.752953642384106	-0.0322119205298013	0.621139072847682	4.91390728476821	5.34781456953642	3.61403973509934				0.901827814569536	-0.161271523178808	-0.19994701986755	7.28741721854305	0.426490066225167	-7.20026490066225				0.864529801324503	-0.144529801324503	-0.453721854304636	6.68291390728477	-14.3764238410596	-13.2156291390728				0.916026490066225	0.00349668874172187	0.405933774834437	8.3517880794702	-1.34807947019868	-4.53748344370861				0.367788079470199	-0.542834437086093	-0.756238410596026	-26.5796026490066	5.47761589403974	-8.31470198675497			
118	2360	0.999841059602649	0.0667549668874172	-0.103523178807947	-3.04662251655629	17.2153642384106	-4.82490066225166				0.768953642384106	-0.000211920529801304	0.669139072847682	4.63390728476821	4.22781456953642	4.17403973509934				0.933827814569536	-0.161271523178808	-0.21594701986755	2.24741721854305	-3.77350993377483	-6.92026490066225				0.800529801324503	-0.208529801324503	-0.421721854304636	3.88291390728477	-14.0964238410596	-17.4156291390728				0.836026490066225	-0.0125033112582781	0.421933774834437	10.0317880794702	-2.74807947019868	-3.13748344370861				0.319788079470199	-0.494834437086093	-0.724238410596026	-4.73960264900662	-4.60238410596027	-3.83470198675497			
119	2380	1.06384105960265	0.0667549668874172	-0.119523178807947	4.79337748344371	11.3353642384106	-8.18490066225166				0.848953642384106	-0.0642119205298013	0.685139072847682	6.87390728476821	5.06781456953642	5.01403973509934				0.965827814569536	-0.129271523178808	-0.18394701986755	1.68741721854305	-5.45350993377483	-6.36026490066225				0.784529801324503	-0.176529801324503	-0.421721854304636	8.36291390728477	-10.1764238410596	-7.05562913907285				0.884026490066225	-0.0125033112582781	0.453933774834437	16.7517880794702	-2.74807947019868	0.502516556291392				0.287788079470199	-0.638834437086093	-0.724238410596026	0.0203973509933773	-5.72238410596027	-3.27470198675497			
120	2400	1.03184105960265	0.0347549668874172	-0.151523178807947	6.47337748344371	2.0953642384106	-5.66490066225166				0.816953642384106	-0.0322119205298013	0.621139072847682	12.7539072847682	5.90781456953642	1.09403973509934				0.949827814569536	-0.145271523178808	-0.18394701986755	5.88741721854305	-3.77350993377483	-5.24026490066225				0.832529801324503	-0.160529801324503	-0.469721854304636	21.5229139072848	-8.7764238410596	-1.17562913907285				0.900026490066225	0.0514966887417219	0.437933774834437	16.1917880794702	-4.14807947019868	5.54251655629139				0.271788079470199	-0.590834437086093	-0.708238410596026	-13.1396026490066	0.157615894039735	-4.95470198675497			
121	2420	0.983841059602649	0.0347549668874172	-0.071523178807947	5.07337748344371	1.8153642384106	-1.74490066225166				0.784953642384106	-0.0322119205298013	0.621139072847682	11.0739072847682	15.4278145695364	2.21403973509934				0.981827814569536	-0.145271523178808	-0.18394701986755	10.647417218543	-6.01350993377483	-7.20026490066225				0.848529801324503	-0.192529801324503	-0.501721854304636	22.9229139072848	-6.2564238410596	-7.33562913907285				0.884026490066225	0.0354966887417219	0.405933774834437	13.3917880794702	-1.34807947019868	6.38251655629139				0.319788079470199	-0.478834437086093	-0.804238410596027	-18.1796026490066	-0.122384105960265	-9.15470198675497			
122	2440	0.951841059602649	-0.0132450331125828	-0.039523178807947	7.59337748344371	6.2953642384106	-3.70490066225166				0.832953642384106	-0.0642119205298013	0.701139072847682	10.5139072847682	17.3878145695364	4.17403973509934				0.965827814569536	-0.161271523178808	-0.21594701986755	12.047417218543	-5.45350993377483	-7.48026490066225				0.848529801324503	-0.192529801324503	-0.469721854304636	7.24291390728477	-4.5764238410596	-14.6156291390728				0.900026490066225	0.00349668874172187	0.421933774834437	14.5117880794702	0.0519205298013249	5.54251655629139				0.319788079470199	-0.494834437086093	-0.692238410596026	8.98039735099338	-14.9623841059603	-11.394701986755			
123	2460	0.935841059602649	-0.0292450331125828	-0.023523178807947	7.87337748344371	6.8553642384106	-5.66490066225166				0.848953642384106	-0.0642119205298013	0.717139072847682	11.6339072847682	5.90781456953642	3.05403973509934				0.965827814569536	-0.193271523178808	-0.23194701986755	8.12741721854305	-2.09350993377483	-8.32026490066225				0.816529801324503	-0.160529801324503	-0.453721854304636	8.64291390728477	-3.1764238410596	-13.7756291390728				0.916026490066225	0.0354966887417219	0.405933774834437	16.7517880794702	-1.90807947019868	3.58251655629139				0.303788079470199	-0.622834437086093	-0.708238410596026	0.0203973509933773	-13.5623841059603	-15.314701986755			
124	2480	0.951841059602649	-0.0132450331125828	-0.055523178807947	5.63337748344371	4.0553642384106	-6.22490066225166				0.752953642384106	-0.000211920529801304	0.653139072847682	10.5139072847682	2.82781456953642	2.21403973509934				0.901827814569536	-0.209271523178808	-0.18394701986755	6.16741721854305	-1.53350993377483	-6.64026490066225				0.816529801324503	-0.128529801324503	-0.485721854304636	17.3229139072848	-6.2564238410596	-10.1356291390728				0.916026490066225	0.0514966887417219	0.405933774834437	13.9517880794702	-2.74807947019868	1.62251655629139				0.319788079470199	-0.590834437086093	-0.708238410596026	-1.09960264900662	-9.08238410596027	-14.474701986755			
125	2500	0.983841059602649	0.0347549668874172	-0.071523178807947	3.67337748344371	2.3753642384106	-3.98490066225166				0.768953642384106	-0.000211920529801304	0.653139072847682	3.51390728476821	7.30781456953642	4.17403973509934				0.901827814569536	-0.193271523178808	-0.18394701986755	7.28741721854305	-1.53350993377483	-4.96026490066225				0.816529801324503	-0.224529801324503	-0.517721854304636	26.5629139072848	-14.3764238410596	-5.37562913907285				0.884026490066225	0.0354966887417219	0.437933774834437	13.3917880794702	-1.62807947019868	-0.0574834437086077				0.319788079470199	-0.574834437086093	-0.692238410596026	0.580397350993377	-4.04238410596027	-11.114701986755			
126	2520	0.983841059602649	0.0507549668874172	-0.071523178807947	4.79337748344371	3.7753642384106	-3.98490066225166				0.800953642384106	-0.0322119205298013	0.637139072847682	6.03390728476821	3.94781456953642	4.45403973509934				0.949827814569536	-0.193271523178808	-0.21594701986755	3.08741721854305	-3.49350993377483	-3.56026490066225				0.816529801324503	-0.288529801324503	-0.549721854304636	12.2829139072848	-18.0164238410596	-0.895629139072848				0.852026490066225	0.00349668874172187	0.453933774834437	11.9917880794702	-0.508079470198675	1.34251655629139				0.319788079470199	-0.558834437086093	-0.724238410596026	-5.57960264900662	-2.64238410596027	-8.87470198675497			
127	2540	0.983841059602649	0.0507549668874172	-0.055523178807947	8.43337748344371	4.0553642384106	-4.82490066225166				0.800953642384106	-0.0162119205298013	0.701139072847682	6.31390728476821	7.30781456953642	4.17403973509934				0.965827814569536	-0.161271523178808	-0.19994701986755	1.68741721854305	-4.33350993377483	-3.56026490066225				0.816529801324503	-0.176529801324503	-0.501721854304636	-8.15708609271523	-15.2164238410596	-2.57562913907285				0.868026490066225	0.00349668874172187	0.437933774834437	10.3117880794702	-1.62807947019868	2.46251655629139				0.351788079470199	-0.558834437086093	-0.724238410596026	-4.45960264900662	-7.68238410596027	-11.394701986755			
128	2560	0.967841059602649	0.0347549668874172	-0.071523178807947	10.1133774834437	2.9353642384106	-5.10490066225166				0.768953642384106	-0.0162119205298013	0.701139072847682	9.39390728476821	7.58781456953643	4.73403973509934				0.933827814569536	-0.129271523178808	-0.19994701986755	3.08741721854305	-2.65350993377483	-4.40026490066225				0.768529801324503	-0.0805298013245033	-0.421721854304636	-12.0770860927152	-10.7364238410596	-8.73562913907285				0.900026490066225	0.0194966887417219	0.437933774834437	7.2317880794702	-2.18807947019868	3.86251655629139				0.367788079470199	-0.590834437086093	-0.708238410596026	5.62039735099338	-7.96238410596027	-12.514701986755			
129	2580	0.983841059602649	0.0187549668874172	-0.039523178807947	7.87337748344371	1.2553642384106	-3.14490066225166				0.768953642384106	-0.0482119205298013	0.717139072847682	7.43390728476821	10.6678145695364	6.13403973509934				0.949827814569536	-0.129271523178808	-0.18394701986755	3.36741721854305	-0.693509933774834	-4.12026490066225				0.752529801324503	-0.0805298013245033	-0.405721854304636	6.96291390728477	-1.2164238410596	-10.9756291390728				0.884026490066225	0.0194966887417219	0.453933774834437	5.2717880794702	-1.90807947019868	2.46251655629139				0.351788079470199	-0.590834437086093	-0.676238410596026	9.54039735099338	-7.40238410596027	-7.75470198675497			
130	2600	0.967841059602649	0.0187549668874172	-0.023523178807947	8.15337748344371	0.135364238410596	-2.86490066225166				0.784953642384106	-0.0642119205298013	0.717139072847682	3.51390728476821	6.46781456953642	3.89403973509934				1.01382781456954	-0.145271523178808	-0.18394701986755	5.32741721854305	0.426490066225167	-3.84026490066225				0.784529801324503	-0.176529801324503	-0.453721854304636	20.6829139072848	6.0635761589404	-8.45562913907285				0.868026490066225	0.00349668874172187	0.469933774834437	7.2317880794702	0.0519205298013249	2.18251655629139				0.319788079470199	-0.606834437086093	-0.660238410596027	5.34039735099338	-2.36238410596027	-5.51470198675497			
131	2620	0.967841059602649	0.0187549668874172	-0.039523178807947	3.39337748344371	-0.984635761589404	-4.26490066225166				0.752953642384106	-0.0162119205298013	0.701139072847682	1.55390728476821	4.78781456953642	-0.86596026490066				0.981827814569536	-0.161271523178808	-0.16794701986755	6.16741721854305	-3.49350993377483	-4.40026490066225				0.832529801324503	-0.208529801324503	-0.501721854304636	26.5629139072848	8.3035761589404	-3.13562913907285				0.884026490066225	0.0354966887417219	0.469933774834437	5.2717880794702	-1.34807947019868	3.58251655629139				0.367788079470199	-0.590834437086093	-0.692238410596026	-1.09960264900662	4.07761589403974	-6.35470198675497			
132	2640	0.967841059602649	0.0187549668874172	-0.055523178807947	-1.08662251655629	-0.144635761589404	-3.14490066225166				0.736953642384106	0.0317880794701987	0.701139072847682	0.713907284768212	7.02781456953642	1.37403973509934				0.949827814569536	-0.161271523178808	-0.15194701986755	7.56741721854305	-5.45350993377483	-3.84026490066225				0.896529801324503	-0.192529801324503	-0.549721854304636	17.8829139072848	1.8635761589404	-3.13562913907285				0.868026490066225	0.0514966887417219	0.453933774834437	3.8717880794702	-1.06807947019868	2.74251655629139				0.367788079470199	-0.558834437086093	-0.724238410596026	-1.37960264900662	3.51761589403974	-5.23470198675497			
133	2660	0.983841059602649	0.0507549668874172	-0.055523178807947	0.313377483443709	-2.3846357615894	-2.02490066225166				0.736953642384106	-0.0162119205298013	0.717139072847682	-0.126092715231788	8.70781456953642	6.69403973509934				0.901827814569536	-0.177271523178808	-0.18394701986755	6.16741721854305	-7.13350993377484	-2.44026490066225				0.880529801324503	-0.192529801324503	-0.517721854304636	-2.55708609271523	-5.9764238410596	-3.69562913907285				0.868026490066225	0.0194966887417219	0.453933774834437	5.2717880794702	-1.06807947019868	1.34251655629139				0.383788079470199	-0.526834437086093	-0.660238410596027	7.30039735099338	-2.64238410596027	-1.59470198675497			
134	2680	0.967841059602649	0.0507549668874172	-0.023523178807947	3.39337748344371	-1.8246357615894	-2.58490066225166				0.784953642384106	-0.0482119205298013	0.701139072847682	2.39390728476821	3.66781456953642	5.29403973509934				0.917827814569536	-0.177271523178808	-0.18394701986755	1.96741721854305	-4.05350993377483	-1.60026490066225				0.784529801324503	-0.176529801324503	-0.453721854304636	-13.7570860927152	-7.6564238410596	-5.09562913907285				0.852026490066225	0.0354966887417219	0.437933774834437	5.5517880794702	-1.06807947019868	3.02251655629139				0.351788079470199	-0.606834437086093	-0.660238410596027	4.78039735099338	-0.122384105960265	-3.83470198675497			
135	2700	0.951841059602649	0.0507549668874172	0.00847682119205304	4.51337748344371	-1.2646357615894	-2.58490066225166				0.752953642384106	-0.0322119205298013	0.717139072847682	1.27390728476821	4.78781456953642	3.61403973509934				0.933827814569536	-0.161271523178808	-0.18394701986755	-0.832582781456954	-2.37350993377483	-0.76026490066225				0.768529801324503	-0.128529801324503	-0.421721854304636	-5.35708609271523	-3.7364238410596	-3.13562913907285				0.868026490066225	0.0354966887417219	0.421933774834437	6.3917880794702	0.0519205298013249	3.30251655629139				0.319788079470199	-0.558834437086093	-0.692238410596026	-3.61960264900662	3.51761589403974	-2.15470198675497			
136	2720	0.967841059602649	0.0347549668874172	0.00847682119205304	6.19337748344371	-1.8246357615894	-0.624900662251656				0.736953642384106	-0.0162119205298013	0.717139072847682	-0.686092715231788	4.50781456953642	5.29403973509934				0.933827814569536	-0.129271523178808	-0.16794701986755	-1.67258278145695	-0.973509933774833	-0.20026490066225				0.800529801324503	-0.128529801324503	-0.421721854304636	7.80291390728477	1.3035761589404	0.784370860927152				0.852026490066225	0.0354966887417219	0.421933774834437	6.9517880794702	0.891920529801325	3.58251655629139				0.335788079470199	-0.542834437086093	-0.708238410596026	-0.539602649006623	4.07761589403974	-2.71470198675497			
137	2740	0.983841059602649	0.0507549668874172	0.00847682119205304	4.79337748344371	-3.2246357615894	-1.46490066225166				0.736953642384106	-0.0482119205298013	0.701139072847682	-0.126092715231788	6.74781456953642	5.01403973509934				0.949827814569536	-0.129271523178808	-0.16794701986755	0.567417218543046	-1.53350993377483	-1.32026490066225				0.800529801324503	-0.160529801324503	-0.485721854304636	15.6429139072848	4.1035761589404	1.34437086092715				0.868026490066225	0.00349668874172187	0.437933774834437	6.1117880794702	0.331920529801325	3.86251655629139				0.351788079470199	-0.590834437086093	-0.692238410596026	4.50039735099338	0.717615894039735	-3.83470198675497			
138	2760	0.983841059602649	0.0507549668874172	-0.055523178807947	2.83337748344371	-4.3446357615894	-1.74490066225166				0.752953642384106	-0.0482119205298013	0.685139072847682	4.07390728476821	5.90781456953642	4.45403973509934				0.949827814569536	-0.129271523178808	-0.15194701986755	5.60741721854305	-1.53350993377483	-1.04026490066225				0.816529801324503	-0.192529801324503	-0.501721854304636	7.52291390728477	3.8235761589404	-2.29562913907285				0.884026490066225	0.00349668874172187	0.453933774834437	3.3117880794702	0.0519205298013249	3.30251655629139				0.351788079470199	-0.574834437086093	-0.692238410596026	5.90039735099338	-1.52238410596026	-4.67470198675497			
139	2780	0.967841059602649	0.0187549668874172	-0.055523178807947	4.23337748344371	-6.0246357615894	-1.74490066225166				0.736953642384106	-0.0322119205298013	0.717139072847682	2.39390728476821	7.58781456953643	4.45403973509934				0.933827814569536	-0.129271523178808	-0.16794701986755	8.12741721854305	-0.413509933774833	-0.20026490066225				0.848529801324503	-0.176529801324503	-0.469721854304636	-3.67708609271523	1.5835761589404	-3.13562913907285				0.900026490066225	0.0354966887417219	0.437933774834437	1.9117880794702	1.45192052980132	2.18251655629139				0.319788079470199	-0.574834437086093	-0.708238410596026	2.82039735099338	-2.36238410596027	-1.31470198675497			
140	2800	0.967841059602649	0.00275496688741723	0.024476821192053	4.79337748344371	-2.3846357615894	-0.624900662251656				0.752953642384106	-0.0322119205298013	0.797139072847682	1.83390728476821	8.42781456953642	6.13403973509934				0.933827814569536	-0.145271523178808	-0.16794701986755	8.12741721854305	-0.973509933774833	-1.32026490066225				0.848529801324503	-0.160529801324503	-0.453721854304636	1.64291390728477	1.5835761589404	-0.895629139072848				0.900026490066225	0.0194966887417219	0.437933774834437	2.4717880794702	0.891920529801325	1.90251655629139				0.335788079470199	-0.590834437086093	-0.676238410596026	4.50039735099338	-2.64238410596027	-2.71470198675497			
141	2820	0.999841059602649	0.0347549668874172	0.024476821192053	2.27337748344371	4.3353642384106	0.215099337748344				0.768953642384106	-0.0642119205298013	0.733139072847682	4.63390728476821	0.587814569536424	5.01403973509934				0.933827814569536	-0.177271523178808	-0.18394701986755	4.76741721854305	-0.693509933774834	-1.60026490066225				0.848529801324503	-0.144529801324503	-0.453721854304636	4.44291390728477	3.5435761589404	-1.45562913907285				0.900026490066225	0.00349668874172187	0.453933774834437	3.8717880794702	-0.228079470198675	2.46251655629139				0.351788079470199	-0.606834437086093	-0.692238410596026	1.70039735099338	-1.52238410596026	-2.15470198675497			
142	2840	0.999841059602649	0.0667549668874172	0.00847682119205304	1.71337748344371	7.1353642384106	-1.46490066225166				0.768953642384106	-0.0802119205298013	0.717139072847682	3.23390728476821	-0.812185430463576	2.77403973509934				0.965827814569536	-0.161271523178808	-0.16794701986755	1.96741721854305	0.986490066225167	-1.60026490066225				0.848529801324503	-0.176529801324503	-0.485721854304636	6.96291390728477	1.0235761589404	-2.85562913907285				0.900026490066225	0.0194966887417219	0.453933774834437	4.4317880794702	-0.788079470198675	1.06251655629139				0.335788079470199	-0.606834437086093	-0.708238410596026	-1.37960264900662	-3.20238410596026	-1.87470198675497			
143	2860	0.983841059602649	0.0507549668874172	-0.071523178807947	2.27337748344371	2.9353642384106	-3.70490066225166				0.736953642384106	-0.0482119205298013	0.701139072847682	4.35390728476821	1.70781456953642	3.05403973509934				0.965827814569536	-0.161271523178808	-0.18394701986755	0.847417218543046	0.426490066225167	-2.16026490066225				0.864529801324503	-0.160529801324503	-0.453721854304636	1.36291390728477	0.1835761589404	-2.85562913907285				0.868026490066225	0.0194966887417219	0.469933774834437	3.3117880794702	-1.34807947019868	1.34251655629139				0.319788079470199	-0.606834437086093	-0.708238410596026	0.0203973509933773	-4.32238410596027	-3.27470198675497			
144	2880	0.967841059602649	0.0347549668874172	-0.087523178807947	1.99337748344371	-1.8246357615894	-4.26490066225166				0.720953642384106	-0.0162119205298013	0.733139072847682	4.91390728476821	2.82781456953642	2.77403973509934				0.949827814569536	-0.161271523178808	-0.18394701986755	3.64741721854305	0.706490066225167	-2.44026490066225				0.864529801324503	-0.160529801324503	-0.437721854304636	5.00291390728477	0.7435761589404	-2.85562913907285				0.852026490066225	0.0194966887417219	0.485933774834437	3.0317880794702	0.331920529801325	1.90251655629139				0.351788079470199	-0.590834437086093	-0.676238410596026	0.860397350993377	-7.12238410596027	-3.27470198675497			
145	2900	0.967841059602649	-0.0132450331125828	-0.055523178807947	3.67337748344371	-5.1846357615894	-2.30490066225166				0.736953642384106	-0.0322119205298013	0.749139072847682	6.87390728476821	1.14781456953642	4.45403973509934				0.933827814569536	-0.161271523178808	-0.16794701986755	4.20741721854305	0.146490066225167	-2.16026490066225				0.864529801324503	-0.144529801324503	-0.453721854304636	5.00291390728477	0.4635761589404	-3.97562913907285				0.868026490066225	0.0194966887417219	0.453933774834437	3.5917880794702	-0.508079470198675	2.18251655629139				0.367788079470199	-0.606834437086093	-0.660238410596027	0.580397350993377	-7.40238410596027	-4.39470198675497			
146	2920	0.967841059602649	-0.0132450331125828	0.024476821192053	7.03337748344371	-1.8246357615894	0.775099337748344				0.752953642384106	-0.0642119205298013	0.701139072847682	5.19390728476821	-0.252185430463576	4.45403973509934				0.933827814569536	-0.161271523178808	-0.18394701986755	3.08741721854305	-0.413509933774833	-0.48026490066225				0.848529801324503	-0.160529801324503	-0.453721854304636	6.12291390728477	-2.0564238410596	-3.13562913907285				0.868026490066225	0.0194966887417219	0.469933774834437	3.8717880794702	-2.74807947019868	1.90251655629139				0.351788079470199	-0.606834437086093	-0.660238410596027	-3.33960264900662	-6.56238410596027	-3.83470198675497			
147	2940	0.951841059602649	0.0187549668874172	0.056476821192053	5.35337748344371	4.8953642384106	0.495099337748344				0.736953642384106	-0.0642119205298013	0.701139072847682	0.713907284768212	3.94781456953642	4.45403973509934				0	0	0	0	0	0				0.848529801324503	-0.144529801324503	-0.437721854304636	0.802913907284768	-1.7764238410596	-3.97562913907285				0.884026490066225	0.00349668874172187	0.453933774834437	4.1517880794702	-3.02807947019868	1.90251655629139				0.335788079470199	-0.622834437086093	-0.692238410596026	-5.57960264900662	-3.20238410596026	-2.99470198675497			
148	2960	0	0	0	0	0	0				0	0	0	0	0	0				0.949827814569536	-0.161271523178808	-0.19994701986755	1.68741721854305	-2.37350993377483	-0.20026490066225				0.832529801324503	-0.144529801324503	-0.437721854304636	0.522913907284768	-1.2164238410596	-5.09562913907285				0.884026490066225	0.0194966887417219	0.453933774834437	3.8717880794702	-3.02807947019868	1.90251655629139				0.351788079470199	-0.574834437086093	-0.692238410596026	-1.93960264900662	-1.24238410596026	-1.59470198675497			
149	2980	0.967841059602649	0.0507549668874172	-0.023523178807947	1.15337748344371	4.3353642384106	-3.70490066225166				0.736953642384106	-0.0482119205298013	0.701139072847682	3.23390728476821	0.867814569536424	5.01403973509934				0.949827814569536	-0.145271523178808	-0.18394701986755	2.52741721854305	-1.53350993377483	-1.32026490066225				0.832529801324503	-0.160529801324503	-0.437721854304636	5.56291390728477	-2.8964238410596	-5.37562913907285				0.852026490066225	0.00349668874172187	0.453933774834437	4.1517880794702	-3.02807947019868	1.90251655629139				0.351788079470199	-0.590834437086093	-0.676238410596026	1.42039735099338	-0.682384105960265	-2.15470198675497			
150	3000	0.983841059602649	0.0507549668874172	-0.071523178807947	-0.246622516556291	0.135364238410596	-3.98490066225166				0.720953642384106	-0.0482119205298013	0.733139072847682	2.11390728476821	0.867814569536424	2.21403973509934				0.949827814569536	-0.145271523178808	-0.16794701986755	3.92741721854305	-0.973509933774833	-1.32026490066225				0.864529801324503	-0.176529801324503	-0.437721854304636	7.52291390728477	-1.2164238410596	-1.73562913907285				0.868026490066225	0.0194966887417219	0.469933774834437	4.7117880794702	-3.02807947019868	2.74251655629139				0.351788079470199	-0.558834437086093	-0.676238410596026	0.300397350993377	-0.962384105960265	-1.87470198675497			
151	3020	0.983841059602649	0.00275496688741723	-0.087523178807947	3.11337748344371	-3.5046357615894	-2.02490066225166				0.720953642384106	-0.0482119205298013	0.717139072847682	0.433907284768212	4.50781456953642	2.21403973509934				0.933827814569536	-0.161271523178808	-0.16794701986755	4.76741721854305	-2.65350993377483	-1.04026490066225				0.832529801324503	-0.160529801324503	-0.453721854304636	5.28291390728477	1.0235761589404	1.34437086092715				0.868026490066225	0.0194966887417219	0.469933774834437	4.1517880794702	-2.18807947019868	3.02251655629139				0.351788079470199	-0.590834437086093	-0.692238410596026	-2.77960264900662	-2.08238410596027	-4.11470198675497			
152	3040	0.967841059602649	0.0187549668874172	-0.039523178807947	3.67337748344371	-3.7846357615894	1.05509933774834				0.736953642384106	-0.0642119205298013	0.733139072847682	-2.08609271523179	9.82781456953643	2.21403973509934				0.933827814569536	-0.177271523178808	-0.16794701986755	4.48741721854305	-3.77350993377483	-1.04026490066225				0.848529801324503	-0.112529801324503	-0.453721854304636	5.84291390728477	0.7435761589404	-0.0556291390728476				0.884026490066225	0.0194966887417219	0.469933774834437	3.3117880794702	-1.90807947019868	2.46251655629139				0.367788079470199	-0.606834437086093	-0.708238410596026	0.0203973509933773	-0.122384105960265	-6.07470198675497			
153	3060	0.983841059602649	0.00275496688741723	-0.00752317880794696	1.71337748344371	2.0953642384106	1.05509933774834				0.752953642384106	-0.0642119205298013	0.765139072847682	-1.52609271523179	8.98781456953643	3.61403973509934				0.949827814569536	-0.177271523178808	-0.18394701986755	2.24741721854305	-2.37350993377483	-1.04026490066225				0.864529801324503	-0.160529801324503	-0.421721854304636	3.88291390728477	-1.7764238410596	-2.85562913907285				0.884026490066225	0.00349668874172187	0.453933774834437	2.7517880794702	-1.90807947019868	2.46251655629139				0.367788079470199	-0.590834437086093	-0.660238410596027	-0.819602649006623	-0.402384105960265	-3.55470198675497			
154	3080	0.983841059602649	0.0347549668874172	0.024476821192053	0.593377483443709	4.8953642384106	-0.0649006622516557				0.736953642384106	-0.0642119205298013	0.749139072847682	-1.24609271523179	5.90781456953642	3.33403973509934				0.949827814569536	-0.161271523178808	-0.16794701986755	0.287417218543046	0.146490066225167	-1.32026490066225				0.848529801324503	-0.160529801324503	-0.453721854304636	2.20291390728477	-1.4964238410596	-4.53562913907285				0.884026490066225	0.00349668874172187	0.469933774834437	3.0317880794702	-2.74807947019868	3.02251655629139				0.351788079470199	-0.590834437086093	-0.676238410596026	3.10039735099338	-0.962384105960265	-4.95470198675497			
155	3100	0.967841059602649	0.0187549668874172	-0.00752317880794696	-0.526622516556291	0.415364238410596	-0.904900662251656				0.720953642384106	-0.0642119205298013	0.749139072847682	-0.686092715231788	5.90781456953642	2.49403973509934				0.933827814569536	-0.161271523178808	-0.15194701986755	-1.11258278145695	0.426490066225167	-1.32026490066225				0.832529801324503	-0.144529801324503	-0.437721854304636	4.72291390728477	1.5835761589404	-2.85562913907285				0.884026490066225	0.00349668874172187	0.469933774834437	3.5917880794702	-3.02807947019868	2.18251655629139				0.319788079470199	-0.622834437086093	-0.692238410596026	0.580397350993377	-0.122384105960265	-5.51470198675497			
156	3120	0.967841059602649	0.0187549668874172	-0.023523178807947	-1.92662251655629	-1.5446357615894	-0.624900662251656				0.736953642384106	-0.0322119205298013	0.765139072847682	-1.80609271523179	2.54781456953642	1.37403973509934				0.933827814569536	-0.145271523178808	-0.16794701986755	0.00741721854304636	-0.133509933774833	-1.60026490066225				0.880529801324503	-0.144529801324503	-0.437721854304636	8.08291390728477	2.4235761589404	-2.01562913907285				0.868026490066225	0.0194966887417219	0.469933774834437	4.1517880794702	-3.02807947019868	1.62251655629139				0.351788079470199	-0.590834437086093	-0.708238410596026	-5.85960264900662	1.55761589403974	-2.15470198675497			
157	3140	0.967841059602649	0.0347549668874172	-0.00752317880794696	-1.64662251655629	0.135364238410596	-1.18490066225166				0.704953642384106	-0.0322119205298013	0.765139072847682	-4.04609271523179	0.867814569536424	0.81403973509934				0.949827814569536	-0.161271523178808	-0.15194701986755	1.96741721854305	-0.693509933774834	-0.76026490066225				0.880529801324503	-0.160529801324503	-0.453721854304636	8.36291390728477	-0.3764238410596	-0.615629139072848				0.868026490066225	0.00349668874172187	0.453933774834437	4.9917880794702	-2.74807947019868	1.62251655629139				0.351788079470199	-0.574834437086093	-0.676238410596026	-0.819602649006623	0.717615894039735	-1.87470198675497			
158	3160	0.999841059602649	0.0507549668874172	-0.00752317880794696	0.593377483443709	2.9353642384106	-1.46490066225166				0.720953642384106	-0.0482119205298013	0.765139072847682	-4.04609271523179	1.98781456953642	-0.30596026490066				0.933827814569536	-0.177271523178808	-0.16794701986755	1.96741721854305	-1.25350993377483	-0.48026490066225				0.880529801324503	-0.160529801324503	-0.437721854304636	5.28291390728477	-4.2964238410596	0.504370860927152				0.868026490066225	0.0194966887417219	0.453933774834437	6.1117880794702	-2.46807947019868	2.46251655629139				0.367788079470199	-0.542834437086093	-0.692238410596026	-6.97960264900662	-6.84238410596027	-3.27470198675497			
159	3180	0.983841059602649	0.0347549668874172	0.024476821192053	1.43337748344371	1.8153642384106	-1.46490066225166				0.720953642384106	-0.0642119205298013	0.749139072847682	2.95390728476821	-0.252185430463576	0.53403973509934				0.933827814569536	-0.161271523178808	-0.16794701986755	1.96741721854305	-1.53350993377483	0.0797350993377501				0.864529801324503	-0.160529801324503	-0.437721854304636	3.32291390728477	-3.7364238410596	1.06437086092715				0.868026490066225	0.0194966887417219	0.453933774834437	6.3917880794702	-3.58807947019868	2.74251655629139				0.319788079470199	-0.590834437086093	-0.692238410596026	-17.0596026490066	-11.6023841059603	-3.27470198675497			
160	3200	0.983841059602649	0.0347549668874172	0.024476821192053	0.0333774834437086	-0.144635761589404	-1.46490066225166				0.704953642384106	-0.0642119205298013	0.749139072847682	4.63390728476821	3.66781456953642	1.37403973509934				0.933827814569536	-0.161271523178808	-0.15194701986755	2.24741721854305	-1.53350993377483	-0.76026490066225				0.832529801324503	-0.144529801324503	-0.437721854304636	3.60291390728477	-2.0564238410596	1.06437086092715				0.868026490066225	0.00349668874172187	0.469933774834437	6.9517880794702	-3.30807947019868	2.46251655629139				0.335788079470199	-0.590834437086093	-0.692238410596026	-11.4596026490066	-7.96238410596027	-4.11470198675497			
161	3220	0.967841059602649	0.0347549668874172	0.00847682119205304	0.593377483443709	-2.3846357615894	-2.02490066225166				0.720953642384106	-0.0642119205298013	0.765139072847682	4.63390728476821	1.98781456953642	1.09403973509934				0.949827814569536	-0.145271523178808	-0.16794701986755	3.08741721854305	-1.25350993377483	-0.48026490066225				0.832529801324503	-0.144529801324503	-0.421721854304636	5.56291390728477	-2.0564238410596	0.224370860927152				0.868026490066225	0.00349668874172187	0.453933774834437	9.1917880794702	-2.18807947019868	2.18251655629139				0.367788079470199	-0.574834437086093	-0.676238410596026	-5.01960264900662	-6.56238410596027	-5.51470198675497			
162	3240	0.951841059602649	0.0187549668874172	-0.023523178807947	3.67337748344371	-3.7846357615894	-1.74490066225166				0.704953642384106	-0.0642119205298013	0.717139072847682	3.79390728476821	1.98781456953642	0.25403973509934				0.949827814569536	-0.161271523178808	-0.16794701986755	4.20741721854305	-0.693509933774834	-0.76026490066225				0.848529801324503	-0.160529801324503	-0.437721854304636	7.80291390728477	0.4635761589404	-0.0556291390728476				0.868026490066225	0.0194966887417219	0.469933774834437	9.1917880794702	-3.02807947019868	1.90251655629139				0.367788079470199	-0.574834437086093	-0.660238410596027	-0.819602649006623	-4.88238410596027	-5.51470198675497			
163	3260	0.967841059602649	0.00275496688741723	-0.071523178807947	3.11337748344371	-5.4646357615894	-1.18490066225166				0.704953642384106	-0.0482119205298013	0.717139072847682	-1.24609271523179	6.46781456953642	-0.0259602649006601				0.949827814569536	-0.161271523178808	-0.18394701986755	4.76741721854305	-0.413509933774833	-0.48026490066225				0.864529801324503	-0.144529801324503	-0.453721854304636	8.08291390728477	1.5835761589404	1.34437086092715				0.852026490066225	0.0194966887417219	0.485933774834437	8.6317880794702	-3.02807947019868	2.74251655629139				0.351788079470199	-0.574834437086093	-0.676238410596026	0.580397350993377	-2.92238410596027	-6.35470198675497			
164	3280	0.983841059602649	0.0187549668874172	-0.039523178807947	0.593377483443709	-5.7446357615894	-0.0649006622516557				0.704953642384106	-0.0482119205298013	0.765139072847682	-6.00609271523179	12.3478145695364	-0.0259602649006601				0.949827814569536	-0.161271523178808	-0.18394701986755	2.80741721854305	-1.81350993377483	-0.48026490066225				0.896529801324503	-0.128529801324503	-0.453721854304636	3.32291390728477	-0.9364238410596	0.224370860927152				0.868026490066225	0.00349668874172187	0.453933774834437	9.4717880794702	-2.46807947019868	2.46251655629139				0.367788079470199	-0.590834437086093	-0.676238410596026	3.10039735099338	-1.52238410596026	-8.03470198675497			
165	3300	0.951841059602649	0.0187549668874172	0.00847682119205304	0.873377483443709	-3.2246357615894	1.05509933774834				0.720953642384106	-0.0482119205298013	0.781139072847682	-6.84609271523179	9.54781456953642	-0.585960264900661				0.933827814569536	-0.177271523178808	-0.16794701986755	1.12741721854305	-2.65350993377483	-0.20026490066225				0.864529801324503	-0.128529801324503	-0.453721854304636	0.522913907284768	-4.8564238410596	-1.45562913907285				0.868026490066225	0.0194966887417219	0.485933774834437	11.7117880794702	-1.90807947019868	1.62251655629139				0.367788079470199	-0.606834437086093	-0.676238410596026	4.78039735099338	0.437615894039735	-7.75470198675497			
166	3320	0.967841059602649	0.0507549668874172	-0.00752317880794696	1.71337748344371	-1.5446357615894	-0.0649006622516557				0.720953642384106	-0.0642119205298013	0.765139072847682	-4.60609271523179	7.30781456953642	1.09403973509934				0.965827814569536	-0.161271523178808	-0.16794701986755	-0.272582781456954	-2.37350993377483	0.0797350993377501				0.864529801324503	-0.160529801324503	-0.453721854304636	-0.597086092715232	-5.4164238410596	-4.25562913907285				0.868026490066225	0.0354966887417219	0.437933774834437	10.5917880794702	-2.46807947019868	0.782516556291392				0.367788079470199	-0.590834437086093	-0.676238410596026	1.98039735099338	1.55761589403974	-5.79470198675497			
167	3340	0.983841059602649	0.0507549668874172	-0.00752317880794696	1.71337748344371	-3.2246357615894	-0.904900662251656				0.704953642384106	-0.0642119205298013	0.797139072847682	-1.24609271523179	9.82781456953643	2.77403973509934				0.949827814569536	-0.145271523178808	-0.16794701986755	-0.832582781456954	-2.65350993377483	0.35973509933775				0.848529801324503	-0.192529801324503	-0.453721854304636	-1.15708609271523	-2.6164238410596	-3.41562913907285				0.868026490066225	0.0354966887417219	0.453933774834437	10.8717880794702	-2.18807947019868	0.782516556291392				0.351788079470199	-0.574834437086093	-0.660238410596027	-0.539602649006623	4.07761589403974	-4.67470198675497			
168	3360	0.983841059602649	0.0347549668874172	-0.039523178807947	1.99337748344371	-6.8646357615894	-0.624900662251656				0.688953642384106	-0.0482119205298013	0.797139072847682	-0.406092715231788	6.18781456953642	2.21403973509934				0.933827814569536	-0.145271523178808	-0.16794701986755	-1.11258278145695	-2.09350993377483	0.35973509933775				0.816529801324503	-0.160529801324503	-0.469721854304636	-1.71708609271523	-1.4964238410596	-2.29562913907285				0.868026490066225	0.0354966887417219	0.453933774834437	9.1917880794702	-0.788079470198675	0.222516556291392				0.367788079470199	-0.558834437086093	-0.660238410596027	0.0203973509933773	6.03761589403974	-5.79470198675497			
169	3380	0.951841059602649	0.0347549668874172	-0.039523178807947	1.71337748344371	-7.7046357615894	-0.344900662251656				0.704953642384106	-0.0482119205298013	0.765139072847682	-1.52609271523179	2.26781456953642	0.25403973509934				0.933827814569536	-0.145271523178808	-0.16794701986755	0.00741721854304636	-3.77350993377483	0.63973509933775				0.816529801324503	-0.144529801324503	-0.453721854304636	2.48291390728477	-2.6164238410596	-1.45562913907285				0.884026490066225	0.0194966887417219	0.437933774834437	5.5517880794702	-1.90807947019868	-0.617483443708608				0.367788079470199	-0.590834437086093	-0.676238410596026	-1.09960264900662	6.03761589403974	-6.63470198675497			
170	3400	0.951841059602649	0.0507549668874172	0.024476821192053	0.0333774834437086	-3.7846357615894	0.775099337748344				0.720953642384106	-0.0642119205298013	0.781139072847682	-3.48609271523179	0.307814569536424	0.53403973509934				0.933827814569536	-0.145271523178808	-0.18394701986755	2.24741721854305	-4.33350993377483	0.63973509933775				0.848529801324503	-0.160529801324503	-0.469721854304636	1.08291390728477	-4.2964238410596	-1.73562913907285				0.868026490066225	0.0354966887417219	0.437933774834437	5.5517880794702	-2.18807947019868	0.502516556291392				0.367788079470199	-0.574834437086093	-0.708238410596026	-5.29960264900662	6.03761589403974	-5.51470198675497			
171	3420	0.983841059602649	0.0347549668874172	0.040476821192053	0.313377483443709	0.695364238410596	-0.624900662251656				0.720953642384106	-0.0642119205298013	0.781139072847682	-4.32609271523179	1.14781456953642	0.53403973509934				0.949827814569536	-0.145271523178808	-0.16794701986755	1.68741721854305	-3.49350993377483	1.19973509933775				0.848529801324503	-0.160529801324503	-0.469721854304636	-1.71708609271523	-4.5764238410596	-1.45562913907285				0.884026490066225	0.0194966887417219	0.421933774834437	6.6717880794702	-0.788079470198675	1.06251655629139				0.383788079470199	-0.574834437086093	-0.740238410596026	-5.57960264900662	6.59761589403974	-3.27470198675497			
172	3440	0.999841059602649	0.0347549668874172	-0.00752317880794696	1.15337748344371	-1.8246357615894	-0.904900662251656				0.704953642384106	-0.0322119205298013	0.765139072847682	-2.36609271523179	0.867814569536424	-0.0259602649006601				0.949827814569536	-0.161271523178808	-0.16794701986755	-0.552582781456954	-4.61350993377483	0.63973509933775				0.832529801324503	-0.144529801324503	-0.453721854304636	-3.95708609271523	-6.2564238410596	-1.45562913907285				0.884026490066225	0.0354966887417219	0.437933774834437	6.9517880794702	-1.62807947019868	1.90251655629139				0.367788079470199	-0.542834437086093	-0.724238410596026	-3.61960264900662	3.79761589403974	-1.87470198675497			
173	3460	0.983841059602649	0.0347549668874172	-0.071523178807947	-0.806622516556291	-5.7446357615894	-0.344900662251656				0.720953642384106	-0.0322119205298013	0.749139072847682	2.67390728476821	0.0278145695364242	1.65403973509934				0.933827814569536	-0.161271523178808	-0.18394701986755	-1.11258278145695	-3.77350993377483	0.63973509933775				0.816529801324503	-0.128529801324503	-0.453721854304636	-2.27708609271523	-3.4564238410596	-1.45562913907285				0.884026490066225	0.0194966887417219	0.437933774834437	4.4317880794702	-1.90807947019868	1.06251655629139				0.367788079470199	-0.558834437086093	-0.724238410596026	-2.21960264900662	0.437615894039735	-2.43470198675497			
174	3480	0.967841059602649	0.0507549668874172	-0.071523178807947	-1.64662251655629	-7.1446357615894	0.215099337748344				0.720953642384106	-0.0322119205298013	0.749139072847682	3.23390728476821	-0.252185430463576	1.37403973509934				0.933827814569536	-0.145271523178808	-0.18394701986755	-0.552582781456954	-2.37350993377483	0.63973509933775				0.816529801324503	-0.144529801324503	-0.453721854304636	0.522913907284768	-1.2164238410596	-3.41562913907285				0.884026490066225	0.0194966887417219	0.437933774834437	3.5917880794702	-1.34807947019868	0.782516556291392				0.383788079470199	-0.542834437086093	-0.724238410596026	-2.21960264900662	-1.52238410596026	-2.99470198675497			
175	3500	0.951841059602649	0.0347549668874172	-0.055523178807947	2.27337748344371	-5.7446357615894	-1.18490066225166				0.720953642384106	-0.0802119205298013	0.765139072847682	0.993907284768212	0.307814569536424	0.81403973509934				0.933827814569536	-0.161271523178808	-0.18394701986755	1.96741721854305	-2.09350993377483	1.19973509933775				0.832529801324503	-0.160529801324503	-0.453721854304636	3.04291390728477	1.0235761589404	-2.01562913907285				0.884026490066225	0.0194966887417219	0.421933774834437	4.4317880794702	-1.90807947019868	0.782516556291392				0.367788079470199	-0.542834437086093	-0.708238410596026	-0.259602649006623	-2.92238410596027	-1.59470198675497			
176	3520	0.967841059602649	0.0187549668874172	-0.055523178807947	3.67337748344371	-4.9046357615894	-0.0649006622516557				0.720953642384106	-0.0802119205298013	0.749139072847682	0.993907284768212	-1.09218543046358	-0.0259602649006601				0.917827814569536	-0.161271523178808	-0.18394701986755	3.08741721854305	-2.09350993377483	1.19973509933775				0.832529801324503	-0.160529801324503	-0.453721854304636	1.64291390728477	1.3035761589404	0.224370860927152				0.884026490066225	0.0354966887417219	0.421933774834437	5.5517880794702	-1.90807947019868	2.46251655629139				0.351788079470199	-0.542834437086093	-0.708238410596026	-0.259602649006623	-3.48238410596027	-0.474701986754968			
177	3540	0.951841059602649	0.0187549668874172	-0.087523178807947	0.593377483443709	-4.6246357615894	0.215099337748344				0.720953642384106	-0.0802119205298013	0.733139072847682	0.153907284768212	-0.812185430463576	0.81403973509934				0.933827814569536	-0.177271523178808	-0.19994701986755	2.24741721854305	-0.413509933774833	1.75973509933775				0.816529801324503	-0.144529801324503	-0.469721854304636	3.04291390728477	2.4235761589404	1.06437086092715				0.884026490066225	0.0194966887417219	0.437933774834437	3.3117880794702	-1.90807947019868	1.34251655629139				0.351788079470199	-0.558834437086093	-0.692238410596026	1.98039735099338	-6.56238410596027	-3.55470198675497			
