No	Time	12-AccX	12-AccY	12-AccZ	12-GyroX	12-GyroY	12-GyroZ	13-AccX	13-AccY	13-AccZ	13-GyroX	13-GyroY	13-GyroZ	14-AccX	14-AccY	14-AccZ	14-GyroX	14-GyroY	14-GyroZ	15-AccX	15-AccY	15-AccZ	15-GyroX	15-GyroY	15-GyroZ	16-AccX	16-AccY	16-AccZ	16-GyroX	16-GyroY	16-GyroZ	17-AccX	17-AccY	17-AccZ	17-GyroX	17-GyroY	17-GyroZ
0	0	-0.264158940397351	0.146754966887417	-0.919523178807947	-0.246622516556291	-0.144635761589404	-0.624900662251656				0.960953642384106	0.0637880794701987	0.301139072847682	-2.08609271523179	-4.17218543046358	-0.0259602649006601				-0.250172185430464	-0.209271523178808	-0.87194701986755	1.96741721854305	-0.413509933774833	-1.04026490066225				0	0	0	0	0	0				0	0	0	0	0	0				0	0	0	0	0	0			
1	20	-0.248158940397351	0.146754966887417	-0.919523178807947	0.593377483443709	-0.424635761589404	-0.904900662251656				0.960953642384106	0.0637880794701987	0.301139072847682	-0.686092715231788	-4.17218543046358	0.53403973509934				-0.250172185430464	-0.209271523178808	-0.87194701986755	1.40741721854305	0.426490066225167	-1.04026490066225				0	0	0	0	0	0				0	0	0	0	0	0				0	0	0	0	0	0			
2	40	-0.248158940397351	0.146754966887417	-0.919523178807947	0.873377483443709	-0.424635761589404	-0.904900662251656				0.960953642384106	0.0637880794701987	0.285139072847682	1.27390728476821	-3.33218543046358	0.53403973509934				-0.250172185430464	-0.193271523178808	-0.85594701986755	1.68741721854305	-0.413509933774833	-0.76026490066225				0.704529801324503	-0.208529801324503	-0.613721854304636	-0.317086092715232	-5.6964238410596	3.02437086092715				0.932026490066225	0.0354966887417219	0.229933774834437	4.7117880794702	-1.06807947019868	1.34251655629139				0.607788079470199	-0.126834437086093	-0.724238410596026	1.42039735099338	-6.28238410596027	0.365298013245032			
3	60	-0.248158940397351	0.146754966887417	-0.935523178807947	1.43337748344371	-0.424635761589404	-0.624900662251656				0.944953642384106	0.0637880794701987	0.301139072847682	5.19390728476821	-3.05218543046358	0.81403973509934				-0.266172185430464	-0.209271523178808	-0.85594701986755	0.847417218543046	0.426490066225167	0.0797350993377501				0.720529801324503	-0.224529801324503	-0.613721854304636	-1.71708609271523	-5.4164238410596	2.18437086092715				0.964026490066225	0.0674966887417219	0.181933774834437	1.9117880794702	-3.58807947019868	0.782516556291392				0.591788079470199	-0.110834437086093	-0.724238410596026	0.300397350993377	-3.48238410596027	0.925298013245032			
4	80	-0.248158940397351	0.146754966887417	-0.919523178807947	1.71337748344371	-0.424635761589404	-0.0649006622516557				0.960953642384106	0.0637880794701987	0.285139072847682	6.31390728476821	-3.33218543046358	2.21403973509934				-0.250172185430464	-0.193271523178808	-0.87194701986755	0.287417218543046	-0.133509933774833	0.0797350993377501				0.720529801324503	-0.224529801324503	-0.613721854304636	-0.317086092715232	-4.5764238410596	2.46437086092715				0.948026490066225	0.0514966887417219	0.229933774834437	-1.4482119205298	1.17192052980133	-0.617483443708608				0.591788079470199	-0.0948344370860927	-0.724238410596026	0.580397350993377	-3.48238410596027	1.76529801324503			
5	100	-0.248158940397351	0.146754966887417	-0.919523178807947	0.873377483443709	-0.424635761589404	-0.904900662251656				0.944953642384106	0.0477880794701987	0.285139072847682	4.91390728476821	-5.85218543046358	2.77403973509934				-0.250172185430464	-0.209271523178808	-0.85594701986755	0.287417218543046	-1.25350993377483	0.0797350993377501				0.704529801324503	-0.208529801324503	-0.613721854304636	-0.0370860927152318	-4.2964238410596	2.18437086092715				0.932026490066225	0.0514966887417219	0.213933774834437	-0.888211920529802	-1.34807947019868	-0.0574834437086077				0.591788079470199	-0.0948344370860927	-0.740238410596026	0.300397350993377	-4.32238410596027	0.645298013245032			
6	120	-0.248158940397351	0.146754966887417	-0.919523178807947	1.15337748344371	-0.984635761589404	-1.18490066225166				0.960953642384106	0.0637880794701987	0.285139072847682	2.11390728476821	-8.37218543046358	1.09403973509934				-0.250172185430464	-0.193271523178808	-0.85594701986755	1.12741721854305	-0.413509933774833	0.0797350993377501				0.704529801324503	-0.192529801324503	-0.613721854304636	0.802913907284768	-4.0164238410596	2.46437086092715				0.948026490066225	0.0514966887417219	0.213933774834437	0.231788079470198	-0.508079470198675	-0.897483443708608				0.591788079470199	-0.0948344370860927	-0.740238410596026	2.26039735099338	-6.56238410596027	-0.474701986754968			
7	140	-0.264158940397351	0.146754966887417	-0.919523178807947	0.593377483443709	-1.2646357615894	-1.46490066225166				0.960953642384106	0.0637880794701987	0.269139072847682	2.39390728476821	-11.4521854304636	1.37403973509934				-0.266172185430464	-0.193271523178808	-0.85594701986755	1.40741721854305	-0.693509933774834	-0.48026490066225				0.704529801324503	-0.224529801324503	-0.629721854304636	0.802913907284768	-3.4564238410596	2.18437086092715				0.948026490066225	0.0354966887417219	0.229933774834437	1.9117880794702	-1.90807947019868	-0.337483443708608				0.575788079470199	-0.0948344370860927	-0.740238410596026	0.580397350993377	-5.44238410596027	-2.15470198675497			
8	160	-0.264158940397351	0.146754966887417	-0.919523178807947	0.0333774834437086	-0.424635761589404	-2.02490066225166				0.976953642384106	0.0637880794701987	0.269139072847682	7.15390728476821	-12.2921854304636	1.09403973509934				-0.266172185430464	-0.193271523178808	-0.87194701986755	-0.272582781456954	-0.133509933774833	-0.48026490066225				0.704529801324503	-0.224529801324503	-0.613721854304636	1.36291390728477	-4.0164238410596	1.06437086092715				0.948026490066225	0.0354966887417219	0.197933774834437	0.791788079470198	-1.34807947019868	0.502516556291392				0.591788079470199	-0.110834437086093	-0.724238410596026	-0.539602649006623	-4.88238410596027	-3.55470198675497			
9	180	-0.264158940397351	0.146754966887417	-0.935523178807947	0.593377483443709	-0.144635761589404	-0.904900662251656				0.976953642384106	0.0637880794701987	0.253139072847682	8.55390728476821	-13.1321854304636	1.09403973509934				-0.266172185430464	-0.193271523178808	-0.87194701986755	0.00741721854304636	0.146490066225167	0.63973509933775				0.720529801324503	-0.240529801324503	-0.613721854304636	1.36291390728477	-3.4564238410596	1.06437086092715				0.964026490066225	0.0354966887417219	0.213933774834437	-0.328211920529802	-2.74807947019868	-1.17748344370861				0.575788079470199	-0.110834437086093	-0.756238410596026	-1.37960264900662	-4.60238410596027	-4.11470198675497			
10	200	-0.264158940397351	0.146754966887417	-0.935523178807947	1.15337748344371	-0.144635761589404	-0.904900662251656				0.976953642384106	0.0637880794701987	0.237139072847682	5.19390728476821	-12.0121854304636	0.81403973509934				-0.266172185430464	-0.193271523178808	-0.87194701986755	1.96741721854305	0.706490066225167	-0.20026490066225				0.720529801324503	-0.240529801324503	-0.613721854304636	2.48291390728477	-2.0564238410596	2.46437086092715				0.948026490066225	0.0354966887417219	0.197933774834437	0.791788079470198	-4.14807947019868	-1.45748344370861				0.575788079470199	-0.110834437086093	-0.756238410596026	-2.21960264900662	-4.60238410596027	-4.39470198675497			
11	220	-0.264158940397351	0.146754966887417	-0.935523178807947	-0.246622516556291	0.135364238410596	-0.904900662251656				0.960953642384106	0.0637880794701987	0.253139072847682	1.83390728476821	-9.21218543046358	-0.585960264900661				-0.266172185430464	-0.209271523178808	-0.87194701986755	1.96741721854305	-0.133509933774833	-0.76026490066225				0.704529801324503	-0.256529801324503	-0.629721854304636	3.04291390728477	-1.2164238410596	1.90437086092715				0.964026490066225	0.0354966887417219	0.213933774834437	0.791788079470198	-4.14807947019868	-2.01748344370861				0.559788079470199	-0.110834437086093	-0.740238410596026	-2.77960264900662	-3.76238410596027	-4.39470198675497			
12	240	-0.248158940397351	0.146754966887417	-0.935523178807947	0.313377483443709	0.695364238410596	-0.904900662251656				0.976953642384106	0.0637880794701987	0.253139072847682	2.67390728476821	-12.2921854304636	-1.42596026490066				-0.250172185430464	-0.209271523178808	-0.85594701986755	1.40741721854305	-0.133509933774833	-0.48026490066225				0.720529801324503	-0.256529801324503	-0.629721854304636	3.04291390728477	-2.3364238410596	2.46437086092715				0.964026490066225	0.0354966887417219	0.197933774834437	1.0717880794702	-5.26807947019868	-2.57748344370861				0.559788079470199	-0.110834437086093	-0.772238410596026	-5.01960264900662	-0.962384105960265	-5.23470198675497			
13	260	-0.264158940397351	0.130754966887417	-0.935523178807947	-0.246622516556291	0.415364238410596	-1.18490066225166				0.976953642384106	0.0477880794701987	0.221139072847682	5.19390728476821	-11.4521854304636	-1.42596026490066				-0.266172185430464	-0.209271523178808	-0.85594701986755	0.567417218543046	0.426490066225167	0.35973509933775				0.720529801324503	-0.240529801324503	-0.629721854304636	2.48291390728477	-3.7364238410596	3.02437086092715				0.964026490066225	0.0514966887417219	0.181933774834437	0.791788079470198	-6.38807947019868	-2.29748344370861				0.559788079470199	-0.0948344370860927	-0.772238410596026	-6.41960264900662	-0.962384105960265	-4.95470198675497			
14	280	-0.264158940397351	0.130754966887417	-0.935523178807947	-0.246622516556291	-0.144635761589404	-1.18490066225166				0.960953642384106	0.0637880794701987	0.221139072847682	4.07390728476821	-8.37218543046358	-1.70596026490066				-0.250172185430464	-0.209271523178808	-0.85594701986755	-0.272582781456954	0.706490066225167	0.35973509933775				0.720529801324503	-0.240529801324503	-0.629721854304636	0.802913907284768	-5.6964238410596	3.58437086092715				0.964026490066225	0.0674966887417219	0.181933774834437	1.6317880794702	-6.94807947019868	-1.73748344370861				0.575788079470199	-0.0788344370860927	-0.772238410596026	-6.13960264900662	-1.52238410596026	-3.83470198675497			
15	300	-0.264158940397351	0.130754966887417	-0.935523178807947	-0.246622516556291	0.415364238410596	-0.904900662251656				0.960953642384106	0.0637880794701987	0.237139072847682	2.67390728476821	-6.13218543046358	-1.14596026490066				-0.250172185430464	-0.209271523178808	-0.87194701986755	0.00741721854304636	0.146490066225167	-0.48026490066225				0.688529801324503	-0.224529801324503	-0.645721854304636	-0.597086092715232	-5.6964238410596	3.30437086092715				0.964026490066225	0.0674966887417219	0.181933774834437	2.4717880794702	-7.22807947019868	-2.57748344370861				0.543788079470199	-0.0788344370860927	-0.772238410596026	-5.01960264900662	-2.08238410596027	-3.83470198675497			
16	320	-0.264158940397351	0.146754966887417	-0.919523178807947	-1.36662251655629	0.975364238410596	-0.624900662251656				0.976953642384106	0.0637880794701987	0.237139072847682	3.51390728476821	-5.01218543046358	-0.585960264900661				-0.266172185430464	-0.209271523178808	-0.87194701986755	0.847417218543046	0.146490066225167	-0.20026490066225				0.672529801324503	-0.240529801324503	-0.629721854304636	0.802913907284768	-5.9764238410596	3.58437086092715				0.932026490066225	0.0674966887417219	0.181933774834437	2.7517880794702	-5.82807947019868	-1.73748344370861				0.543788079470199	-0.0628344370860927	-0.772238410596026	-3.61960264900662	-3.20238410596026	-3.83470198675497			
17	340	-0.264158940397351	0.130754966887417	-0.935523178807947	-1.08662251655629	0.975364238410596	-1.18490066225166				0.960953642384106	0.0637880794701987	0.221139072847682	4.91390728476821	-5.29218543046358	-0.585960264900661				-0.250172185430464	-0.209271523178808	-0.85594701986755	-0.272582781456954	0.426490066225167	-0.76026490066225				0.672529801324503	-0.224529801324503	-0.645721854304636	-0.597086092715232	-6.5364238410596	2.18437086092715				0.948026490066225	0.0674966887417219	0.181933774834437	3.5917880794702	-3.58807947019868	-1.17748344370861				0.559788079470199	-0.0788344370860927	-0.772238410596026	-1.09960264900662	-3.76238410596027	-2.15470198675497			
18	360	-0.264158940397351	0.130754966887417	-0.919523178807947	-1.08662251655629	0.695364238410596	-0.624900662251656				0.960953642384106	0.0637880794701987	0.269139072847682	3.79390728476821	-5.29218543046358	-0.585960264900661				-0.250172185430464	-0.209271523178808	-0.83994701986755	-0.552582781456954	0.706490066225167	0.0797350993377501				0.672529801324503	-0.224529801324503	-0.645721854304636	0.522913907284768	-5.1364238410596	1.90437086092715				0.948026490066225	0.0514966887417219	0.165933774834437	4.1517880794702	-2.18807947019868	-2.01748344370861				0.559788079470199	-0.0788344370860927	-0.772238410596026	-0.819602649006623	-3.48238410596027	-1.59470198675497			
19	380	-0.248158940397351	0.146754966887417	-0.935523178807947	-0.246622516556291	0.695364238410596	-0.624900662251656				0.960953642384106	0.0797880794701987	0.221139072847682	0.993907284768212	-1.65218543046358	-0.86596026490066				-0.250172185430464	-0.193271523178808	-0.87194701986755	1.12741721854305	0.146490066225167	-0.48026490066225				0.640529801324503	-0.224529801324503	-0.629721854304636	-0.0370860927152318	-5.4164238410596	1.62437086092715				0.948026490066225	0.0674966887417219	0.165933774834437	3.5917880794702	-3.02807947019868	-1.17748344370861				0.559788079470199	-0.0628344370860927	-0.772238410596026	-0.539602649006623	-2.92238410596027	-1.31470198675497			
20	400	-0.264158940397351	0.146754966887417	-0.919523178807947	-0.246622516556291	0.415364238410596	0.215099337748344				0.960953642384106	0.0797880794701987	0.237139072847682	1.55390728476821	1.42781456953642	-0.86596026490066				-0.250172185430464	-0.193271523178808	-0.87194701986755	0.567417218543046	0.146490066225167	-0.20026490066225				0.656529801324503	-0.240529801324503	-0.645721854304636	-0.877086092715232	-6.2564238410596	0.784370860927152				0.948026490066225	0.0674966887417219	0.165933774834437	1.9117880794702	-1.90807947019868	-0.0574834437086077				0.559788079470199	-0.0788344370860927	-0.756238410596026	0.860397350993377	-3.48238410596027	-0.194701986754968			
21	420	-0.248158940397351	0.146754966887417	-0.919523178807947	-0.526622516556291	-0.144635761589404	-0.904900662251656				0.976953642384106	0.0797880794701987	0.237139072847682	2.11390728476821	1.98781456953642	-0.585960264900661				-0.250172185430464	-0.193271523178808	-0.85594701986755	0.00741721854304636	0.426490066225167	0.0797350993377501				0.672529801324503	-0.240529801324503	-0.661721854304636	-0.877086092715232	-5.6964238410596	0.224370860927152				0.948026490066225	0.0514966887417219	0.165933774834437	1.3517880794702	-0.788079470198675	-1.17748344370861				0.559788079470199	-0.0788344370860927	-0.756238410596026	1.14039735099338	-2.92238410596027	0.645298013245032			
22	440	-0.248158940397351	0.146754966887417	-0.919523178807947	-0.526622516556291	-0.144635761589404	-0.904900662251656				0.976953642384106	0.0637880794701987	0.237139072847682	0.993907284768212	1.14781456953642	-1.42596026490066				-0.266172185430464	-0.209271523178808	-0.87194701986755	0.847417218543046	0.426490066225167	-0.48026490066225				0.672529801324503	-0.240529801324503	-0.645721854304636	-2.27708609271523	-5.4164238410596	1.06437086092715				0.932026490066225	0.0674966887417219	0.165933774834437	-0.0482119205298018	-0.508079470198675	-2.01748344370861				0.559788079470199	-0.0788344370860927	-0.772238410596026	1.14039735099338	-2.08238410596027	1.76529801324503			
23	460	-0.264158940397351	0.146754966887417	-0.919523178807947	-0.526622516556291	-0.144635761589404	-0.624900662251656				0.960953642384106	0.0797880794701987	0.237139072847682	-1.24609271523179	2.26781456953642	-1.42596026490066				-0.250172185430464	-0.209271523178808	-0.87194701986755	1.12741721854305	0.426490066225167	0.0797350993377501				0.656529801324503	-0.208529801324503	-0.661721854304636	-5.91708609271523	-5.9764238410596	0.224370860927152				0.948026490066225	0.0674966887417219	0.165933774834437	-1.1682119205298	0.891920529801325	-1.45748344370861				0.559788079470199	-0.0788344370860927	-0.756238410596026	1.14039735099338	-2.64238410596027	2.32529801324503			
24	480	-0.248158940397351	0.146754966887417	-0.935523178807947	-0.246622516556291	0.135364238410596	-1.46490066225166				0.960953642384106	0.0797880794701987	0.253139072847682	-1.80609271523179	5.06781456953642	-1.42596026490066				-0.250172185430464	-0.193271523178808	-0.85594701986755	-0.552582781456954	0.426490066225167	-0.48026490066225				0.672529801324503	-0.224529801324503	-0.645721854304636	-5.63708609271523	-5.6964238410596	-1.17562913907285				0.932026490066225	0.0674966887417219	0.165933774834437	-1.4482119205298	1.17192052980133	-1.17748344370861				0.559788079470199	-0.0788344370860927	-0.740238410596026	0.300397350993377	-3.20238410596026	3.16529801324503			
25	500	-0.248158940397351	0.146754966887417	-0.935523178807947	0.593377483443709	0.135364238410596	-1.18490066225166				0.976953642384106	0.0797880794701987	0.253139072847682	-1.52609271523179	2.26781456953642	-0.0259602649006601				-0.266172185430464	-0.193271523178808	-0.87194701986755	-0.552582781456954	0.426490066225167	0.0797350993377501				0.672529801324503	-0.224529801324503	-0.645721854304636	-5.63708609271523	-6.2564238410596	-1.17562913907285				0.932026490066225	0.0834966887417219	0.181933774834437	-1.4482119205298	1.17192052980133	-1.45748344370861				0.575788079470199	-0.0628344370860927	-0.756238410596026	-0.539602649006623	-3.20238410596026	4.84529801324503			
26	520	-0.264158940397351	0.146754966887417	-0.935523178807947	0.313377483443709	-0.424635761589404	-0.904900662251656				0.976953642384106	0.0797880794701987	0.237139072847682	0.153907284768212	-0.532185430463576	-0.0259602649006601				-0.266172185430464	-0.193271523178808	-0.87194701986755	0.287417218543046	-0.133509933774833	-0.48026490066225				0.672529801324503	-0.208529801324503	-0.645721854304636	-6.47708609271523	-4.2964238410596	-1.73562913907285				0.948026490066225	0.0674966887417219	0.197933774834437	-0.888211920529802	3.97192052980133	-0.337483443708608				0.575788079470199	-0.0628344370860927	-0.756238410596026	1.98039735099338	-1.52238410596026	5.12529801324503			
27	540	-0.264158940397351	0.146754966887417	-0.919523178807947	-0.246622516556291	0.415364238410596	-1.74490066225166				0.976953642384106	0.0797880794701987	0.237139072847682	3.23390728476821	-2.21218543046358	0.25403973509934				-0.266172185430464	-0.193271523178808	-0.87194701986755	0.567417218543046	-0.133509933774833	0.0797350993377501				0.672529801324503	-0.208529801324503	-0.645721854304636	-5.07708609271523	-1.2164238410596	-1.45562913907285				0.948026490066225	0.0674966887417219	0.197933774834437	0.231788079470198	4.25192052980133	-1.17748344370861				0.575788079470199	-0.0788344370860927	-0.756238410596026	0.860397350993377	0.717615894039735	3.72529801324503			
28	560	-0.264158940397351	0.146754966887417	-0.919523178807947	0.313377483443709	0.415364238410596	-1.18490066225166				0.976953642384106	0.0797880794701987	0.221139072847682	4.91390728476821	-1.09218543046358	1.09403973509934				-0.266172185430464	-0.177271523178808	-0.87194701986755	0.00741721854304636	-0.133509933774833	-0.48026490066225				0.672529801324503	-0.208529801324503	-0.629721854304636	-2.83708609271523	1.3035761589404	-1.45562913907285				0.964026490066225	0.0674966887417219	0.181933774834437	-0.888211920529802	2.57192052980133	-0.337483443708608				0.575788079470199	-0.0788344370860927	-0.756238410596026	-1.09960264900662	1.55761589403974	2.88529801324503			
29	580	-0.264158940397351	0.146754966887417	-0.919523178807947	0.593377483443709	0.135364238410596	-1.74490066225166				0.960953642384106	0.0797880794701987	0.237139072847682	4.07390728476821	-1.37218543046358	0.81403973509934				-0.250172185430464	-0.193271523178808	-0.85594701986755	0.567417218543046	-0.413509933774833	-0.76026490066225				0.672529801324503	-0.208529801324503	-0.629721854304636	-0.877086092715232	2.7035761589404	0.784370860927152				0.964026490066225	0.0674966887417219	0.197933774834437	-0.328211920529802	2.01192052980133	0.782516556291392				0.575788079470199	-0.0788344370860927	-0.756238410596026	-2.49960264900662	1.27761589403974	2.88529801324503			
30	600	-0.248158940397351	0.146754966887417	-0.919523178807947	0.313377483443709	-0.424635761589404	-1.46490066225166				0.960953642384106	0.0797880794701987	0.237139072847682	1.55390728476821	-0.812185430463576	1.65403973509934				-0.250172185430464	-0.177271523178808	-0.85594701986755	1.12741721854305	0.426490066225167	-0.48026490066225				0.672529801324503	-0.224529801324503	-0.629721854304636	2.76291390728477	5.2235761589404	1.62437086092715				0.948026490066225	0.0674966887417219	0.197933774834437	-0.0482119205298018	0.0519205298013249	0.502516556291392				0.575788079470199	-0.0788344370860927	-0.756238410596026	-3.05960264900662	1.83761589403974	2.88529801324503			
31	620	-0.264158940397351	0.146754966887417	-0.935523178807947	0.0333774834437086	0.415364238410596	-0.904900662251656				0.976953642384106	0.0797880794701987	0.237139072847682	1.83390728476821	-3.89218543046358	-0.0259602649006601				-0.250172185430464	-0.193271523178808	-0.85594701986755	1.40741721854305	1.82649006622517	-0.48026490066225				0.688529801324503	-0.224529801324503	-0.645721854304636	3.60291390728477	5.7835761589404	2.74437086092715				0.948026490066225	0.0674966887417219	0.229933774834437	1.0717880794702	2.57192052980133	-0.0574834437086077				0.575788079470199	-0.0948344370860927	-0.756238410596026	-2.21960264900662	2.11761589403974	2.60529801324503			
32	640	-0.264158940397351	0.146754966887417	-0.935523178807947	0.593377483443709	0.135364238410596	-1.18490066225166				0.960953642384106	0.0797880794701987	0.221139072847682	4.91390728476821	-5.57218543046358	-0.86596026490066				-0.250172185430464	-0.193271523178808	-0.85594701986755	1.96741721854305	0.146490066225167	-0.48026490066225				0.704529801324503	-0.224529801324503	-0.645721854304636	2.20291390728477	5.5035761589404	3.02437086092715				0.964026490066225	0.0514966887417219	0.181933774834437	0.231788079470198	-1.34807947019868	0.502516556291392				0.559788079470199	-0.0788344370860927	-0.772238410596026	-1.93960264900662	2.67761589403974	2.60529801324503			
33	660	-0.264158940397351	0.146754966887417	-0.935523178807947	0.0333774834437086	0.135364238410596	-0.624900662251656				0.976953642384106	0.0957880794701987	0.205139072847682	4.63390728476821	-5.01218543046358	0.81403973509934				-0.266172185430464	-0.193271523178808	-0.87194701986755	2.52741721854305	-0.133509933774833	-0.48026490066225				0.704529801324503	-0.240529801324503	-0.645721854304636	1.92291390728477	3.5435761589404	2.18437086092715				0.948026490066225	0.0514966887417219	0.197933774834437	-2.5682119205298	-0.228079470198675	-0.617483443708608				0.575788079470199	-0.0948344370860927	-0.756238410596026	-1.65960264900662	1.55761589403974	2.32529801324503			
34	680	-0.248158940397351	0.146754966887417	-0.919523178807947	0.0333774834437086	0.415364238410596	-1.18490066225166				0.976953642384106	0.0797880794701987	0.221139072847682	1.55390728476821	0.0278145695364242	0.81403973509934				-0.250172185430464	-0.193271523178808	-0.85594701986755	2.52741721854305	0.986490066225167	-0.76026490066225				0.672529801324503	-0.224529801324503	-0.661721854304636	1.92291390728477	3.5435761589404	3.02437086092715				0.948026490066225	0.0674966887417219	0.197933774834437	-3.4082119205298	0.0519205298013249	-0.897483443708608				0.559788079470199	-0.110834437086093	-0.772238410596026	-3.61960264900662	0.157615894039735	2.60529801324503			
35	700	-0.264158940397351	0.146754966887417	-0.935523178807947	0.593377483443709	0.135364238410596	-0.904900662251656				0.976953642384106	0.0637880794701987	0.269139072847682	0.993907284768212	-3.33218543046358	-0.585960264900661				-0.250172185430464	-0.193271523178808	-0.85594701986755	1.68741721854305	0.986490066225167	-0.48026490066225				0.688529801324503	-0.240529801324503	-0.661721854304636	-0.0370860927152318	1.8635761589404	2.74437086092715				0.964026490066225	0.0674966887417219	0.181933774834437	-1.4482119205298	0.0519205298013249	-1.17748344370861				0.559788079470199	-0.0948344370860927	-0.772238410596026	-3.89960264900662	-0.402384105960265	3.72529801324503			
36	720	-0.248158940397351	0.162754966887417	-0.919523178807947	0.873377483443709	0.415364238410596	-1.46490066225166				0.992953642384106	0.0797880794701987	0.237139072847682	2.11390728476821	-7.53218543046358	-0.0259602649006601				-0.250172185430464	-0.209271523178808	-0.87194701986755	2.24741721854305	0.706490066225167	-0.76026490066225				0.704529801324503	-0.224529801324503	-0.661721854304636	-2.55708609271523	0.7435761589404	3.30437086092715				0.964026490066225	0.0674966887417219	0.197933774834437	-0.0482119205298018	-0.228079470198675	-0.897483443708608				0.575788079470199	-0.0788344370860927	-0.772238410596026	-4.17960264900662	0.157615894039735	4.28529801324503			
37	740	-0.248158940397351	0.146754966887417	-0.935523178807947	0.0333774834437086	0.975364238410596	-0.624900662251656				0.976953642384106	0.0797880794701987	0.237139072847682	4.07390728476821	-7.81218543046358	-0.86596026490066				-0.250172185430464	-0.209271523178808	-0.87194701986755	2.24741721854305	0.146490066225167	-0.20026490066225				0.688529801324503	-0.224529801324503	-0.661721854304636	-2.83708609271523	-0.3764238410596	3.58437086092715				0.964026490066225	0.0674966887417219	0.181933774834437	-1.7282119205298	0.0519205298013249	-0.337483443708608				0.575788079470199	-0.0948344370860927	-0.772238410596026	-3.33960264900662	-0.402384105960265	4.56529801324503			
38	760	-0.248158940397351	0.146754966887417	-0.919523178807947	0.593377483443709	1.2553642384106	-0.904900662251656				0.960953642384106	0.0637880794701987	0.221139072847682	4.91390728476821	-5.57218543046358	1.09403973509934				-0.266172185430464	-0.209271523178808	-0.85594701986755	2.24741721854305	1.26649006622517	-0.76026490066225				0.688529801324503	-0.240529801324503	-0.645721854304636	-0.597086092715232	0.4635761589404	4.70437086092715				0.980026490066225	0.0674966887417219	0.181933774834437	-1.7282119205298	-0.788079470198675	0.782516556291392				0.575788079470199	-0.0948344370860927	-0.788238410596027	-2.77960264900662	-0.682384105960265	4.84529801324503			
39	780	-0.248158940397351	0.146754966887417	-0.935523178807947	-0.246622516556291	0.975364238410596	-1.46490066225166				0.976953642384106	0.0797880794701987	0.205139072847682	4.91390728476821	-3.61218543046358	1.65403973509934				-0.266172185430464	-0.209271523178808	-0.85594701986755	1.40741721854305	0.986490066225167	-1.04026490066225				0.688529801324503	-0.224529801324503	-0.645721854304636	-0.877086092715232	0.7435761589404	5.26437086092715				0.948026490066225	0.0514966887417219	0.181933774834437	-1.1682119205298	-1.06807947019868	-0.337483443708608				0.559788079470199	-0.0948344370860927	-0.772238410596026	-3.33960264900662	-3.48238410596027	5.68529801324503			
40	800	-0.264158940397351	0.146754966887417	-0.935523178807947	-0.246622516556291	1.5353642384106	-1.46490066225166				0.976953642384106	0.0797880794701987	0.221139072847682	2.39390728476821	-3.05218543046358	1.09403973509934				-0.250172185430464	-0.193271523178808	-0.85594701986755	0.287417218543046	1.26649006622517	-0.76026490066225				0.688529801324503	-0.240529801324503	-0.645721854304636	-1.99708609271523	-0.0964238410596001	5.82437086092715				0.948026490066225	0.0514966887417219	0.181933774834437	-2.2882119205298	-1.90807947019868	-0.617483443708608				0.575788079470199	-0.0948344370860927	-0.772238410596026	-3.61960264900662	-5.44238410596027	7.92529801324503			
41	820	-0.264158940397351	0.130754966887417	-0.919523178807947	-0.246622516556291	1.5353642384106	-0.344900662251656				0.976953642384106	0.0637880794701987	0.221139072847682	-0.686092715231788	-2.49218543046358	-0.585960264900661				-0.266172185430464	-0.193271523178808	-0.85594701986755	1.96741721854305	0.146490066225167	-0.20026490066225				0.672529801324503	-0.240529801324503	-0.645721854304636	-1.99708609271523	-0.0964238410596001	7.50437086092715				0.948026490066225	0.0674966887417219	0.181933774834437	-2.0082119205298	-0.508079470198675	-3.69748344370861				0.575788079470199	-0.110834437086093	-0.772238410596026	-5.01960264900662	-4.88238410596027	9.32529801324503			
42	840	-0.248158940397351	0.130754966887417	-0.919523178807947	-1.36662251655629	1.2553642384106	-0.0649006622516557				0.976953642384106	0.0637880794701987	0.221139072847682	-1.80609271523179	-3.05218543046358	-1.14596026490066				-0.250172185430464	-0.209271523178808	-0.85594701986755	3.08741721854305	0.986490066225167	0.35973509933775				0.672529801324503	-0.256529801324503	-0.645721854304636	-1.71708609271523	0.4635761589404	8.62437086092715				0.948026490066225	0.0514966887417219	0.181933774834437	-3.1282119205298	-0.228079470198675	-0.617483443708608				0.559788079470199	-0.110834437086093	-0.772238410596026	-5.29960264900662	-4.04238410596027	11.005298013245			
43	860	-0.248158940397351	0.130754966887417	-0.935523178807947	-1.36662251655629	0.975364238410596	-0.0649006622516557				0.960953642384106	0.0637880794701987	0.221139072847682	-2.92609271523179	-1.93218543046358	-1.98596026490066				-0.250172185430464	-0.209271523178808	-0.87194701986755	1.12741721854305	0.426490066225167	0.35973509933775				0.672529801324503	-0.240529801324503	-0.645721854304636	-4.51708609271523	-0.9364238410596	8.62437086092715				0.948026490066225	0.0354966887417219	0.197933774834437	-4.5282119205298	-0.228079470198675	-0.617483443708608				0.559788079470199	-0.110834437086093	-0.756238410596026	-5.01960264900662	-3.76238410596027	12.405298013245			
44	880	-0.248158940397351	0.130754966887417	-0.935523178807947	-1.08662251655629	0.975364238410596	-0.0649006622516557				0.960953642384106	0.0637880794701987	0.221139072847682	-4.32609271523179	0.587814569536424	-1.98596026490066				-0.250172185430464	-0.225271523178808	-0.85594701986755	1.68741721854305	1.26649006622517	-0.48026490066225				0.672529801324503	-0.256529801324503	-0.645721854304636	-6.47708609271523	-1.2164238410596	9.18437086092715				0.948026490066225	0.0354966887417219	0.181933774834437	-4.8082119205298	-0.788079470198675	-0.617483443708608				0.559788079470199	-0.110834437086093	-0.756238410596026	-5.85960264900662	-4.60238410596027	13.805298013245			
45	900	-0.232158940397351	0.130754966887417	-0.935523178807947	-2.48662251655629	0.695364238410596	-0.624900662251656				0.976953642384106	0.0477880794701987	0.221139072847682	-4.60609271523179	0.0278145695364242	-2.26596026490066				-0.234172185430464	-0.225271523178808	-0.83994701986755	0.847417218543046	1.26649006622517	-0.76026490066225				0.672529801324503	-0.240529801324503	-0.629721854304636	-6.75708609271523	-0.9364238410596	9.46437086092715				0.932026490066225	0.0354966887417219	0.197933774834437	-3.9682119205298	1.17192052980133	-0.617483443708608				0.575788079470199	-0.110834437086093	-0.756238410596026	-9.77960264900662	-4.32238410596027	14.365298013245			
46	920	-0.248158940397351	0.146754966887417	-0.951523178807947	-3.04662251655629	-0.144635761589404	-0.904900662251656				0.976953642384106	0.0637880794701987	0.205139072847682	-3.20609271523179	-1.09218543046358	-1.70596026490066				-0.234172185430464	-0.209271523178808	-0.85594701986755	0.567417218543046	1.82649006622517	-1.32026490066225				0.672529801324503	-0.224529801324503	-0.645721854304636	-6.19708609271523	1.0235761589404	10.8643708609272				0.932026490066225	0.0514966887417219	0.197933774834437	-6.2082119205298	0.611920529801325	-0.0574834437086077				0.559788079470199	-0.110834437086093	-0.788238410596027	-6.97960264900662	-5.44238410596027	15.485298013245			
47	960	-0.264158940397351	0.146754966887417	-0.935523178807947	-1.92662251655629	0.135364238410596	0.775099337748344				0.976953642384106	0.0797880794701987	0.205139072847682	-1.52609271523179	-3.61218543046358	-3.66596026490066				-0.250172185430464	-0.225271523178808	-0.85594701986755	-0.552582781456954	-0.413509933774833	0.63973509933775				0.688529801324503	-0.224529801324503	-0.645721854304636	-7.03708609271523	-0.6564238410596	12.5443708609272				0.948026490066225	0.0514966887417219	0.197933774834437	-6.7682119205298	-0.228079470198675	0.222516556291392				0.559788079470199	-0.110834437086093	-0.788238410596027	-8.37960264900662	-5.16238410596027	17.445298013245			
48	980	-0.264158940397351	0.130754966887417	-0.919523178807947	-2.76662251655629	0.695364238410596	1.05509933774834				0.992953642384106	0.0957880794701987	0.189139072847682	0.993907284768212	-6.41218543046358	-3.66596026490066				-0.266172185430464	-0.209271523178808	-0.83994701986755	-0.552582781456954	-0.413509933774833	0.35973509933775				0.704529801324503	-0.224529801324503	-0.645721854304636	-5.07708609271523	-2.3364238410596	13.1043708609272				0.964026490066225	0.0514966887417219	0.197933774834437	-7.3282119205298	-0.788079470198675	0.222516556291392				0.575788079470199	-0.0948344370860927	-0.788238410596027	-10.3396026490066	-7.96238410596027	18.005298013245			
49	1000	-0.264158940397351	0.146754966887417	-0.919523178807947	-4.72662251655629	0.695364238410596	1.05509933774834				1.00895364238411	0.0957880794701987	0.189139072847682	6.03390728476821	-15.3721854304636	-4.78596026490066				-0.282172185430464	-0.209271523178808	-0.85594701986755	0.567417218543046	0.706490066225167	0.0797350993377501				0.704529801324503	-0.240529801324503	-0.645721854304636	-2.27708609271523	-3.4564238410596	13.9443708609272				0.980026490066225	0.0514966887417219	0.213933774834437	-6.2082119205298	-1.90807947019868	1.62251655629139				0.575788079470199	-0.110834437086093	-0.804238410596027	-8.37960264900662	-10.7623841059603	17.445298013245			
50	1020	-0.264158940397351	0.146754966887417	-0.935523178807947	-4.72662251655629	1.2553642384106	1.33509933774834				0.992953642384106	0.0957880794701987	0.189139072847682	9.67390728476821	-20.1321854304636	-3.66596026490066				-0.250172185430464	-0.209271523178808	-0.87194701986755	1.40741721854305	0.426490066225167	-0.20026490066225				0.720529801324503	-0.224529801324503	-0.661721854304636	-2.83708609271523	-6.2564238410596	14.7843708609272				0.980026490066225	0.0514966887417219	0.197933774834437	-5.6482119205298	-3.30807947019868	0.782516556291392				0.559788079470199	-0.110834437086093	-0.820238410596026	-5.01960264900662	-12.4423841059603	16.885298013245			
51	1040	-0.232158940397351	0.146754966887417	-0.935523178807947	-5.00662251655629	1.2553642384106	1.89509933774834				1.00895364238411	0.0797880794701987	0.205139072847682	7.71390728476821	-19.5721854304636	-3.94596026490066				-0.218172185430464	-0.193271523178808	-0.87194701986755	1.40741721854305	0.706490066225167	-0.76026490066225				0.768529801324503	-0.240529801324503	-0.661721854304636	-8.43708609271523	-12.9764238410596	14.5043708609272				0.980026490066225	0.0834966887417219	0.197933774834437	-5.0882119205298	-4.70807947019868	1.34251655629139				0.575788079470199	-0.110834437086093	-0.836238410596026	-3.89960264900662	-16.0823841059603	15.765298013245			
52	1060	-0.200158940397351	0.146754966887417	-0.935523178807947	-6.68662251655629	0.975364238410596	3.01509933774834				1.39295364238411	0.0797880794701987	0.429139072847682	6.87390728476821	-91.8121854304636	-10.6659602649007				-0.186172185430464	-0.209271523178808	-0.87194701986755	1.96741721854305	-0.413509933774833	-1.32026490066225				0.736529801324503	-0.256529801324503	-0.693721854304636	-9.55708609271523	-17.7364238410596	16.1843708609272				0.980026490066225	0.0674966887417219	0.181933774834437	-3.1282119205298	-6.10807947019868	2.74251655629139				0.559788079470199	-0.0788344370860927	-0.836238410596026	-5.57960264900662	-20.8423841059603	17.445298013245			
53	1080	-0.200158940397351	0.162754966887417	-0.951523178807947	-7.52662251655629	0.975364238410596	3.85509933774834				0.720953642384106	0.111788079470199	0.109139072847682	28.7139072847682	-169.372185430464	2.49403973509934				-0.170172185430464	-0.289271523178808	-0.85594701986755	1.12741721854305	0.146490066225167	-1.60026490066225				0.672529801324503	-0.272529801324503	-0.709721854304636	-6.19708609271523	-20.5364238410596	17.5843708609272				0.916026490066225	0.0514966887417219	0.197933774834437	-0.608211920529802	-6.94807947019868	2.46251655629139				0.511788079470199	-0.0788344370860927	-0.852238410596026	-0.539602649006623	-27.0023841059603	16.605298013245			
54	1100	-0.232158940397351	0.146754966887417	-0.935523178807947	-5.00662251655629	-0.704635761589404	4.13509933774834				0.672953642384106	0.0477880794701987	-0.194860927152318	15.5539072847682	-46.7321854304636	6.41403973509934				-0.202172185430464	-0.353271523178808	-0.82394701986755	-5.59258278145695	0.146490066225167	2.87973509933775				0.608529801324503	-0.288529801324503	-0.709721854304636	-12.0770860927152	-31.4564238410596	17.0243708609272				0.884026490066225	0.0514966887417219	0.213933774834437	-0.608211920529802	7.33192052980133	0.782516556291392				0.479788079470199	-0.0628344370860927	-0.868238410596026	6.18039735099338	-27.8423841059603	14.925298013245			
55	1120	-0.232158940397351	0.162754966887417	-0.935523178807947	-1.36662251655629	-0.424635761589404	4.41509933774834				0.992953642384106	0.0477880794701987	0.173139072847682	-0.406092715231788	4.78781456953642	2.77403973509934				-0.202172185430464	-0.369271523178808	-0.85594701986755	-12.312582781457	0.426490066225167	7.35973509933775				0.640529801324503	-0.288529801324503	-0.757721854304636	-18.2370860927152	-42.9364238410596	16.7443708609272				0.932026490066225	0.0674966887417219	0.165933774834437	-2.0082119205298	7.61192052980133	-0.337483443708608				0.447788079470199	-0.0788344370860927	-0.900238410596026	7.86039735099338	-26.4423841059603	12.965298013245			
56	1140	-0.200158940397351	0.194754966887417	-0.903523178807947	-4.16662251655629	-0.144635761589404	7.49509933774834				1.05695364238411	0.0797880794701987	0.0771390728476822	-9.36609271523179	-23.7721854304636	6.41403973509934				-0.170172185430464	-0.321271523178808	-0.80794701986755	-12.312582781457	1.82649006622517	8.47973509933775				0.704529801324503	-0.320529801324503	-0.821721854304636	-17.6770860927152	-56.6564238410596	16.7443708609272				0.964026490066225	0.0514966887417219	0.149933774834437	-1.7282119205298	8.45192052980133	-1.73748344370861				0.495788079470199	-0.0788344370860927	-0.916238410596027	-5.29960264900662	-21.9623841059603	17.725298013245			
57	1160	-0.248158940397351	0.162754966887417	-0.903523178807947	-8.08662251655629	2.6553642384106	8.89509933774834				0.960953642384106	0.0797880794701987	-0.0348609271523178	-14.9660927152318	-28.8121854304636	6.41403973509934				-0.234172185430464	-0.209271523178808	-0.80794701986755	-17.352582781457	-1.53350993377483	12.1197350993378				0.720529801324503	-0.352529801324503	-0.917721854304636	-5.91708609271523	-69.2564238410596	11.1443708609272				1.01202649006623	0.0354966887417219	0.133933774834437	-2.2882119205298	4.81192052980133	-2.29748344370861				0.511788079470199	-0.0788344370860927	-1.07623841059603	17.1003973509934	-36.8023841059603	18.005298013245			
58	1180	-0.344158940397351	0.130754966887417	-0.887523178807947	-20.1266225165563	-0.424635761589404	10.5750993377483				1.07295364238411	0.0957880794701987	-0.130860927152318	-16.6460927152318	-17.8921854304636	12.8540397350993				-0.298172185430464	-0.193271523178808	-0.87194701986755	-20.712582781457	-1.53350993377483	14.3597350993378				0.704529801324503	-0.288529801324503	-1.04572185430464	-17.3970860927152	-84.6564238410596	3.30437086092715				1.07602649006623	0.0514966887417219	0.101933774834437	-7.8882119205298	2.29192052980133	-3.41748344370861				0.655788079470199	-0.158834437086093	-1.20423841059603	37.5403973509934	-54.1623841059603	23.885298013245			
59	1200	-0.440158940397351	0.114754966887417	-1.01552317880795	-16.2066225165563	-1.5446357615894	10.2950993377483				1.08895364238411	0.0957880794701987	-0.274860927152318	-7.12609271523179	-4.73218543046358	16.7740397350993				-0.426172185430464	-0.161271523178808	-0.88794701986755	-15.112582781457	-0.413509933774833	14.3597350993378				0.736529801324503	-0.512529801324503	-1.22172185430464	1.36291390728477	-113.77642384106	-5.65562913907285				1.14002649006623	0.0354966887417219	0.0699337748344371	-13.4882119205298	-3.30807947019868	-3.13748344370861				0.799788079470199	-0.126834437086093	-1.44423841059603	77.0203973509934	-73.2023841059603	36.205298013245			
60	1220	-0.408158940397351	0.194754966887417	-0.935523178807947	-51.7666225165563	-2.1046357615894	14.2150993377483				1.08895364238411	0.0637880794701987	-0.0988609271523179	-7.96609271523179	5.90781456953642	19.2940397350993				-0.458172185430464	-0.0972715231788079	-0.87194701986755	-6.99258278145695	-4.89350993377483	11.2797350993378				0.752529801324503	-0.528529801324503	-1.31772185430464	-34.4770860927152	-137.29642384106	-22.1756291390729				1.23602649006623	0.0194966887417219	0.0379337748344371	-24.9682119205298	-1.06807947019868	-9.29748344370861				0.799788079470199	-0.462834437086093	-1.22023841059603	110.060397350993	-119.96238410596	64.765298013245			
61	1240	-0.568158940397351	0.258754966887417	-1.15952317880795	-53.7266225165563	-2.9446357615894	11.9750993377483				1.08895364238411	-0.0322119205298013	-0.0668609271523178	-22.8060927152318	4.22781456953642	20.9740397350993				-0.538172185430464	-0.0972715231788079	-0.95194701986755	-11.192582781457	-9.65350993377483	11.8397350993378				0.528529801324503	-0.288529801324503	-1.12572185430464	-114.277086092715	-162.77642384106	-28.3356291390729				1.33202649006623	0.0354966887417219	0.00593377483443711	-20.2082119205298	-8.34807947019868	-7.61748344370861				0.287788079470199	-0.606834437086093	-1.04423841059603	34.1803973509934	-168.12238410596	99.205298013245			
62	1260	-0.520158940397351	0.242754966887417	-1.11152317880795	-70.8066225165563	46.0553642384106	11.6950993377483				1.04095364238411	0.111788079470199	-0.194860927152318	-41.8460927152318	29.1478145695364	10.0540397350993				-0.602172185430464	-0.129271523178808	-1.30394701986755	20.447417218543	12.1864900662252	12.9597350993378				0.352529801324503	-0.144529801324503	-0.901721854304636	-143.397086092715	-170.33642384106	-35.6156291390729				1.46002649006623	0.0514966887417219	-0.154066225165563	-23.2882119205298	-10.8680794701987	-2.01748344370861				-0.0802119205298013	-0.334834437086093	-0.980238410596026	-18.7396026490066	-140.40238410596	129.725298013245			
63	1280	-0.344158940397351	0.322754966887417	-0.839523178807947	-4.16662251655629	34.8553642384106	8.89509933774834				1.26495364238411	0.159788079470199	-0.194860927152318	-37.0860927152318	61.0678145695364	10.8940397350993				-0.442172185430464	-0.161271523178808	-0.98394701986755	15.967417218543	33.4664900662252	1.19973509933775				0.256529801324503	-0.0965298013245033	-0.885721854304636	-102.237086092715	-154.09642384106	-38.6956291390729				1.31602649006623	0.115496688741722	-0.154066225165563	-10.9682119205298	-23.7480794701987	8.90251655629139				-0.0322119205298013	-0.190834437086093	-1.07623841059603	-65.4996026490066	-72.9223841059603	135.325298013245			
64	1300	-0.488158940397351	0.210754966887417	-1.06352317880795	-43.0866225165563	48.2953642384106	17.2950993377483				1.44095364238411	0.191788079470199	0.173139072847682	-27.8460927152318	108.107814569536	14.2540397350993				-0.554172185430464	-0.0332715231788079	-1.09594701986755	4.76741721854305	32.0664900662252	-1.88026490066225				0.176529801324503	-0.0965298013245033	-0.965721854304636	-58.5570860927152	-116.85642384106	-34.7756291390728				1.15602649006623	0.147496688741722	0.245933774834437	-9.8482119205298	-9.74807947019868	8.34251655629139				0.0477880794701987	-0.0308344370860927	-1.07623841059603	-4.73960264900662	-81.0423841059603	110.965298013245			
65	1320	-0.280158940397351	0.258754966887417	-1.19152317880795	-24.6066225165563	49.4153642384106	26.5350993377483				1.63295364238411	0.0317880794701987	0.781139072847682	-15.2460927152318	97.1878145695364	13.4140397350993				-0.506172185430464	-0.113271523178808	-1.19194701986755	3.08741721854305	52.7864900662252	-6.92026490066225				0.288529801324503	-0.0325298013245033	-0.981721854304636	-35.3170860927152	-68.9764238410596	-31.9756291390729				1.07602649006623	0.0994966887417219	0.549933774834437	29.0717880794702	14.8919205298013	10.5825165562914				0.175788079470199	-0.0948344370860927	-0.964238410596026	47.6203973509934	-71.2423841059603	74.845298013245			
66	1340	-0.264158940397351	0.306754966887417	-1.15952317880795	-9.20662251655629	62.5753642384106	31.5750993377483				1.64895364238411	0.0157880794701987	0.717139072847682	-9.08609271523179	29.1478145695364	1.65403973509934				-0.266172185430464	-0.225271523178808	-1.01594701986755	-2.79258278145695	60.0664900662252	-11.4002649006623				0.464529801324503	-0.0485298013245033	-0.949721854304636	-0.317086092715232	-19.4164238410596	-27.7756291390729				1.30002649006623	-0.0765033112582781	0.613933774834437	25.9917880794702	40.0919205298013	5.26251655629139				0.303788079470199	-0.238834437086093	-0.948238410596026	39.7803973509934	-27.2823841059603	43.205298013245			
67	1360	-0.184158940397351	0.402754966887417	-1.09552317880795	1.43337748344371	78.5353642384106	35.7750993377484				1.55295364238411	-0.0802119205298013	0.413139072847682	0.713907284768212	4.78781456953642	-4.50596026490066				-0.202172185430464	-0.321271523178808	-1.12794701986755	-19.592582781457	72.6664900662252	-13.0802649006623				0.544529801324503	-0.0805298013245033	-0.981721854304636	25.1629139072848	26.5035761589404	-7.89562913907285				1.38002649006623	-0.0125033112582781	0.549933774834437	12.8317880794702	32.5319205298013	-3.69748344370861				0.399788079470199	-0.382834437086093	-0.900238410596026	32.7803973509934	25.0776158940397	21.365298013245			
68	1380	-0.040158940397351	0.386754966887417	-1.07952317880795	23.2733774834437	88.3353642384106	32.4150993377484				1.32895364238411	-0.0322119205298013	0.285139072847682	-7.96609271523179	5.62781456953642	-9.26596026490066				-0.170172185430464	-0.241271523178808	-1.04794701986755	-17.072582781457	88.3464900662252	-13.3602649006623				0.592529801324503	-0.000529801324503289	-0.997721854304636	31.0429139072848	67.1035761589404	10.5843708609272				1.26802649006623	0.147496688741722	0.565933774834437	27.6717880794702	21.6119205298013	2.74251655629139				0.367788079470199	-0.638834437086093	-0.756238410596026	11.7803973509934	48.5976158940397	11.565298013245			
69	1400	0.071841059602649	0.354754966887417	-1.06352317880795	46.7933774834437	97.8553642384106	29.3350993377483				1.29695364238411	-0.0322119205298013	0.269139072847682	-23.0860927152318	14.0278145695364	-9.26596026490066				-0.0261721854304636	-0.225271523178808	-1.06394701986755	-24.072582781457	100.946490066225	-10.8402649006623				0.736529801324503	0.111470198675497	-1.07772185430464	44.4829139072848	73.5435761589404	13.9443708609272				1.23602649006623	0.0674966887417219	0.533933774834437	18.7117880794702	8.73192052980133	7.50251655629139				0.479788079470199	-0.638834437086093	-0.900238410596026	-29.9396026490066	58.6776158940397	10.725298013245			
70	1420	0.135841059602649	0.162754966887417	-1.06352317880795	34.7533774834437	107.655364238411	25.1350993377483				1.37695364238411	0.0797880794701987	0.285139072847682	-25.8860927152318	7.86781456953642	-7.86596026490066				0.101827814569536	-0.129271523178808	-1.04794701986755	-8.67258278145695	106.266490066225	-11.9602649006623				0.784529801324503	0.0154701986754967	-1.22172185430464	63.2429139072848	58.4235761589404	13.9443708609272				1.26802649006623	0.0674966887417219	0.581933774834437	19.8317880794702	-11.9880794701987	4.98251655629139				0.559788079470199	-0.510834437086093	-1.10823841059603	-51.7796026490066	63.7176158940397	9.32529801324503			
71	1440	0.167841059602649	0.258754966887417	-1.03152317880795	21.3133774834437	119.415364238411	22.3350993377483				1.29695364238411	0.175788079470199	0.445139072847682	0.433907284768212	-11.4521854304636	-1.70596026490066				0.0538278145695364	-0.209271523178808	-1.03194701986755	-1.39258278145695	117.746490066225	-15.0402649006623				0.736529801324503	-0.208529801324503	-1.25372185430464	50.3629139072848	44.7035761589404	10.3043708609272				1.25202649006623	0.131496688741722	0.485933774834437	6.6717880794702	-15.9080794701987	4.98251655629139				0.511788079470199	-0.334834437086093	-1.26823841059603	-49.2596026490066	67.6376158940397	9.04529801324503			
72	1460	0.199841059602649	0.290754966887417	-0.999523178807947	21.0333774834437	125.575364238411	22.6150993377483				1.24895364238411	0.0157880794701987	0.381139072847682	7.43390728476821	-32.1721854304636	-0.0259602649006601				0.133827814569536	-0.209271523178808	-0.91994701986755	-9.51258278145695	128.946490066225	-18.6802649006623				0.528529801324503	-0.256529801324503	-1.15772185430464	-4.79708609271523	43.3035761589404	-4.53562913907285				1.15602649006623	0.147496688741722	0.261933774834437	-7.6082119205298	2.57192052980133	3.30251655629139				0.399788079470199	-0.206834437086093	-1.18823841059603	2.26039735099338	52.2376158940397	10.445298013245			
73	1480	0.247841059602649	0.210754966887417	-0.999523178807947	9.83337748344371	129.775364238411	22.6150993377483				1.18495364238411	-0.000211920529801304	0.173139072847682	-22.5260927152318	-29.3721854304636	1.09403973509934				0.165827814569536	-0.0972715231788079	-0.91994701986755	1.68741721854305	133.426490066225	-19.2402649006623				0.384529801324503	-0.0965298013245033	-0.965721854304636	-37.2770860927152	41.6235761589404	-14.0556291390728				1.10802649006623	0.0834966887417219	0.117933774834437	-10.1282119205298	10.9719205298013	2.46251655629139				0.271788079470199	-0.254834437086093	-0.980238410596026	15.4203973509934	60.0776158940397	11.005298013245			
74	1500	0.295841059602649	0.194754966887417	-0.967523178807947	0.313377483443709	133.415364238411	20.6550993377483				1.18495364238411	0.111788079470199	0.0931390728476822	-9.36609271523179	-25.4521854304636	3.33403973509934				0.229827814569536	-0.129271523178808	-0.88794701986755	-1.39258278145695	133.986490066225	-21.4802649006623				0.320529801324503	0.0154701986754967	-0.869721854304636	-15.4370860927152	46.1035761589404	-11.8156291390728				1.06002649006623	0.0674966887417219	0.149933774834437	-0.608211920529802	20.4919205298013	5.82251655629139				0.271788079470199	-0.286834437086093	-0.900238410596026	14.0203973509934	63.1576158940397	10.445298013245			
75	1520	0.263841059602649	0.258754966887417	-0.855523178807947	1.15337748344371	137.055364238411	18.4150993377483				1.07295364238411	0.127788079470199	0.0771390728476822	30.1139072847682	-38.8921854304636	9.21403973509934				0.197827814569536	-0.129271523178808	-0.90394701986755	1.68741721854305	132.586490066225	-22.8802649006623				0.336529801324503	-0.000529801324503289	-0.837721854304636	8.08291390728477	53.6635761589404	-8.73562913907285				1.07602649006623	0.0514966887417219	0.181933774834437	0.511788079470198	27.2119205298013	10.0225165562914				0.255788079470199	-0.254834437086093	-0.852238410596026	15.7003973509934	66.5176158940397	5.96529801324503			
76	1540	0.279841059602649	0.290754966887417	-0.839523178807947	7.87337748344371	138.175364238411	13.9350993377483				0.992953642384106	-0.0642119205298013	0.0451390728476822	12.7539072847682	-39.1721854304636	13.4140397350993				0.197827814569536	-0.0972715231788079	-0.83994701986755	0.847417218543046	127.266490066225	-23.1602649006623				0.384529801324503	-0.0805298013245033	-0.853721854304636	22.3629139072848	61.7835761589404	-5.65562913907285				1.02802649006623	0.0514966887417219	0.197933774834437	-4.5282119205298	24.1319205298013	10.3025165562914				0.239788079470199	-0.254834437086093	-0.788238410596027	2.82039735099338	82.7576158940397	-1.59470198675497			
77	1560	0.295841059602649	0.226754966887417	-0.791523178807947	8.99337748344371	136.775364238411	11.4150993377483				0.896953642384106	0.0477880794701987	-0.0668609271523178	-19.4460927152318	-34.4121854304636	6.41403973509934				0.197827814569536	-0.0652715231788079	-0.77594701986755	-1.11258278145695	122.226490066225	-24.5602649006623				0.400529801324503	-0.144529801324503	-0.789721854304636	28.5229139072848	68.5035761589404	-5.65562913907285				0.980026490066225	-0.0285033112582781	0.197933774834437	-7.8882119205298	7.05192052980133	10.5825165562914				0.271788079470199	-0.270834437086093	-0.708238410596026	-12.0196026490066	98.7176158940397	-3.83470198675497			
78	1580	0.279841059602649	0.146754966887417	-0.775523178807947	14.5933774834437	135.375364238411	7.21509933774835				0.992953642384106	0.159788079470199	-0.0988609271523179	-9.64609271523179	-15.9321854304636	6.97403973509934				0.229827814569536	-0.0492715231788079	-0.80794701986755	3.64741721854305	125.866490066225	-29.3202649006623				0.432529801324503	-0.160529801324503	-0.709721854304636	34.4029139072848	76.9035761589404	-12.6556291390728				0.932026490066225	-0.0285033112582781	0.133933774834437	-14.6082119205298	-9.18807947019868	10.0225165562914				0.271788079470199	-0.254834437086093	-0.676238410596026	-19.8596026490066	102.63761589404	-2.71470198675497			
79	1600	0.327841059602649	0.178754966887417	-0.743523178807947	20.1933774834437	132.855364238411	0.495099337748344				0.928953642384106	0.0477880794701987	0.0611390728476822	4.35390728476821	-24.8921854304636	7.81403973509934				0.213827814569536	-0.0332715231788079	-0.71194701986755	6.44741721854305	133.146490066225	-29.6002649006623				0.432529801324503	-0.144529801324503	-0.677721854304636	33.2829139072848	78.0235761589404	-19.9356291390729				0.868026490066225	-0.0125033112582781	0.117933774834437	-6.2082119205298	-22.0680794701987	7.50251655629139				0.271788079470199	-0.190834437086093	-0.692238410596026	-28.5396026490066	102.91761589404	-6.35470198675497			
80	1620	0.327841059602649	0.146754966887417	-0.759523178807947	23.2733774834437	129.775364238411	-2.02490066225166				0.688953642384106	0.0477880794701987	-0.0988609271523179	-1.80609271523179	-62.6921854304636	8.37403973509934				0.213827814569536	-0.0812715231788079	-0.71194701986755	-4.47258278145695	136.226490066225	-30.7202649006623				0.448529801324503	-0.144529801324503	-0.661721854304636	27.4029139072848	76.6235761589404	-21.8956291390728				0.788026490066225	0.0354966887417219	0.133933774834437	-8.4482119205298	-31.0280794701987	4.14251655629139				0.367788079470199	-0.142834437086093	-0.692238410596026	-16.2196026490066	108.79761589404	-6.63470198675497			
81	1640	0.311841059602649	0.130754966887417	-0.743523178807947	30.2733774834437	126.695364238411	1.89509933774834				0.608953642384106	0.127788079470199	-0.210860927152318	-7.96609271523179	-24.6121854304636	5.57403973509934				0.277827814569536	-0.0172715231788079	-0.74394701986755	-6.71258278145695	134.266490066225	-31.8402649006623				0.480529801324503	-0.128529801324503	-0.613721854304636	29.3629139072848	74.9435761589404	-23.0156291390729				0.756026490066225	0.0514966887417219	0.101933774834437	-6.2082119205298	-42.2280794701987	7.78251655629139				0.415788079470199	-0.190834437086093	-0.596238410596026	-1.09960264900662	108.23761589404	-1.87470198675497			
82	1660	0.359841059602649	0.114754966887417	-0.743523178807947	28.3133774834437	130.895364238411	0.775099337748344				0.816953642384106	0.143788079470199	-0.0508609271523178	4.35390728476821	-13.1321854304636	-0.86596026490066				0.373827814569536	-0.0492715231788079	-0.72794701986755	-11.192582781457	135.386490066225	-31.0002649006623				0.480529801324503	-0.112529801324503	-0.581721854304636	31.6029139072848	67.6635761589404	-21.6156291390729				0.740026490066225	0.0834966887417219	0.0219337748344371	0.231788079470198	-51.7480794701987	11.9825165562914				0.383788079470199	-0.190834437086093	-0.596238410596026	-4.45960264900662	102.35761589404	-3.27470198675497			
83	1680	0.439841059602649	0.114754966887417	-0.695523178807947	7.31337748344371	135.655364238411	3.57509933774835				0.768953642384106	0.127788079470199	-0.0188609271523178	-2.08609271523179	-37.2121854304636	2.21403973509934				0.405827814569536	-0.0332715231788079	-0.63194701986755	-4.19258278145695	137.906490066225	-27.3602649006623				0.432529801324503	-0.112529801324503	-0.597721854304636	32.4429139072848	60.9435761589404	-24.1356291390729				0.708026490066225	0.0834966887417219	0.0219337748344371	-0.608211920529802	-50.3480794701987	10.8625165562914				0.319788079470199	-0.158834437086093	-0.612238410596026	-17.6196026490066	92.5576158940397	-4.39470198675497			
84	1700	0.487841059602649	0.146754966887417	-0.647523178807947	5.07337748344371	136.775364238411	10.0150993377483				0.624953642384106	0.0477880794701987	-0.0988609271523179	1.55390728476821	-46.7321854304636	7.53403973509934				0.469827814569536	-0.0492715231788079	-0.64794701986755	-0.832582781456954	138.466490066225	-23.7202649006623				0.432529801324503	-0.0805298013245033	-0.581721854304636	36.9229139072848	56.4635761589404	-32.2556291390729				0.660026490066225	0.00349668874172187	0.0859337748344371	11.4317880794702	-36.9080794701987	9.18251655629139				0.367788079470199	-0.110834437086093	-0.532238410596027	-37.2196026490066	96.1976158940397	-0.754701986754968			
85	1720	0.503841059602649	0.226754966887417	-0.599523178807947	11.2333774834437	136.215364238411	10.8550993377483				0.768953642384106	-0.0162119205298013	-0.0188609271523178	5.19390728476821	-16.7721854304636	5.29403973509934				0.565827814569536	-0.0332715231788079	-0.48794701986755	-18.752582781457	142.106490066225	-19.2402649006623				0.464529801324503	-0.112529801324503	-0.549721854304636	45.0429139072848	58.9835761589404	-31.6956291390729				0.692026490066225	0.00349668874172187	0.149933774834437	9.7517880794702	-38.3080794701987	6.94251655629139				0.431788079470199	-0.0948344370860927	-0.564238410596026	-28.8196026490066	91.7176158940397	0.645298013245032			
86	1740	0.551841059602649	0.194754966887417	-0.487523178807947	21.5933774834437	143.775364238411	9.45509933774835				0.784953642384106	0.0957880794701987	-0.0188609271523178	-0.406092715231788	-34.4121854304636	-4.50596026490066				0.565827814569536	-0.0332715231788079	-0.40794701986755	-25.192582781457	141.266490066225	-14.2002649006623				0.496529801324503	-0.208529801324503	-0.533721854304636	47.0029139072848	57.3035761589404	-26.0956291390729				0.756026490066225	0.00349668874172187	0.0699337748344371	4.7117880794702	-52.3080794701987	7.78251655629139				0.479788079470199	-0.0948344370860927	-0.548238410596027	-22.3796026490066	90.5976158940397	-0.474701986754968			
87	1760	0.647841059602649	0.146754966887417	-0.455523178807947	10.6733774834437	143.775364238411	12.5350993377483				0.560953642384106	0.127788079470199	-0.146860927152318	0.433907284768212	-42.5321854304636	-5.34596026490066				0.565827814569536	-0.0972715231788079	-0.51994701986755	-32.192582781457	138.186490066225	-16.4402649006623				0.496529801324503	-0.256529801324503	-0.533721854304636	35.5229139072848	51.9835761589404	-24.6956291390729				0.724026490066225	0.00349668874172187	-0.0100662251655629	-0.328211920529802	-55.6680794701987	6.10251655629139				0.511788079470199	-0.0788344370860927	-0.548238410596027	-18.1796026490066	88.9176158940397	-1.03470198675497			
88	1780	0.615841059602649	0.114754966887417	-0.423523178807947	4.23337748344371	143.495364238411	13.3750993377483				0.576953642384106	-0.000211920529801304	-0.0348609271523178	3.79390728476821	-27.9721854304636	4.73403973509934				0.677827814569536	-0.0652715231788079	-0.50394701986755	-27.152582781457	135.666490066225	-20.3602649006623				0.480529801324503	-0.256529801324503	-0.565721854304636	20.9629139072848	46.9435761589404	-25.5356291390728				0.676026490066225	0.0194966887417219	-0.0420662251655629	3.3117880794702	-42.2280794701987	3.58251655629139				0.511788079470199	-0.110834437086093	-0.516238410596026	-22.0996026490066	78.8376158940397	-1.31470198675497			
89	1800	0.695841059602649	0.194754966887417	-0.359523178807947	23.5533774834437	140.695364238411	12.5350993377483				0.720953642384106	0.0157880794701987	0.0131390728476822	6.59390728476821	-25.4521854304636	3.89403973509934				0.741827814569536	-0.0332715231788079	-0.39194701986755	-27.152582781457	135.946490066225	-10.2802649006622				0.464529801324503	-0.208529801324503	-0.565721854304636	18.4429139072848	46.6635761589404	-20.4956291390729				0.724026490066225	-0.0125033112582781	-0.0100662251655629	4.7117880794702	-34.3880794701987	0.222516556291392				0.527788079470199	-0.142834437086093	-0.500238410596026	-28.8196026490066	78.2776158940397	-6.07470198675497			
90	1820	0.775841059602649	0.194754966887417	-0.343523178807947	20.4733774834437	141.255364238411	10.2950993377483				0.672953642384106	0.111788079470199	-0.00286092715231785	5.47390728476821	-24.0521854304636	-7.30596026490066				0.693827814569536	0.0307284768211921	-0.35994701986755	-27.432582781457	125.586490066225	-3.56026490066225				0.432529801324503	-0.160529801324503	-0.517721854304636	19.2829139072848	46.3835761589404	-18.8156291390729				0.708026490066225	-0.0445033112582781	-0.0420662251655629	-1.4482119205298	-40.5480794701987	2.46251655629139				0.543788079470199	-0.142834437086093	-0.532238410596027	-33.2996026490066	71.2776158940397	-5.23470198675497			
91	1840	0.727841059602649	0.0987549668874172	-0.311523178807947	22.7133774834437	139.575364238411	7.49509933774834				0.496953642384106	0.0317880794701987	-0.0508609271523178	7.99390728476821	-17.3321854304636	-2.82596026490066				0.581827814569536	-0.0652715231788079	-0.42394701986755	-38.352582781457	109.066490066225	-4.68026490066225				0.400529801324503	-0.208529801324503	-0.517721854304636	22.6429139072848	39.3835761589404	-17.4156291390728				0.612026490066225	0.00349668874172187	-0.0100662251655629	-7.0482119205298	-35.7880794701987	-0.0574834437086077				0.543788079470199	-0.0948344370860927	-0.516238410596026	-24.6196026490066	59.7976158940397	-4.67470198675497			
92	1860	0.631841059602649	0.162754966887417	-0.423523178807947	14.3133774834437	121.935364238411	9.17509933774834				0.496953642384106	-0.112211920529801	-0.0188609271523178	-5.44609271523179	0.307814569536424	-0.0259602649006601				0.629827814569536	-0.0332715231788079	-0.48794701986755	-34.992582781457	90.0264900662252	1.19973509933775				0.368529801324503	-0.240529801324503	-0.517721854304636	22.0829139072848	29.5835761589404	-6.77562913907285				0.532026490066225	0.00349668874172187	-0.0100662251655629	-5.6482119205298	-34.1080794701987	-0.617483443708608				0.511788079470199	-0.0468344370860927	-0.516238410596026	-33.2996026490066	52.7976158940397	-7.47470198675497			
93	1880	0.663841059602649	0.0987549668874172	-0.679523178807947	-1.64662251655629	97.0153642384106	10.0150993377483				0.624953642384106	0.0797880794701987	-0.00286092715231785	-7.12609271523179	12.0678145695364	-11.2259602649007				0.741827814569536	0.0467284768211921	-0.55194701986755	1.40741721854305	62.8664900662252	3.15973509933775				0.416529801324503	-0.240529801324503	-0.485721854304636	12.5629139072848	17.5435761589404	-0.615629139072848				0.548026490066225	-0.0765033112582781	0.00593377483443711	-1.4482119205298	-22.3480794701987	1.62251655629139				0.543788079470199	-0.0468344370860927	-0.532238410596027	-26.0196026490066	37.3976158940397	-6.35470198675497			
94	1900	0.887841059602649	0.0827549668874172	-0.855523178807947	-21.8066225165563	66.4953642384106	4.69509933774834				0.592953642384106	0.111788079470199	-0.0188609271523178	4.63390728476821	6.74781456953642	-10.3859602649007				0.757827814569536	0.0947284768211921	-0.55194701986755	25.4874172185431	39.0664900662252	-3.00026490066225				0.480529801324503	-0.176529801324503	-0.469721854304636	-5.35708609271523	-2.6164238410596	-1.45562913907285				0.564026490066225	0.0354966887417219	0.00593377483443711	-9.0082119205298	-19.8280794701987	1.90251655629139				0.495788079470199	-0.126834437086093	-0.516238410596026	-13.1396026490066	15.2776158940397	1.76529801324503			
95	1920	0.743841059602649	0.194754966887417	-0.823523178807947	-19.5666225165563	41.0153642384106	7.77509933774834				0.592953642384106	-0.0482119205298013	0.0931390728476822	0.993907284768212	4.50781456953642	0.53403973509934				0.677827814569536	0.0467284768211921	-0.48794701986755	22.6874172185431	25.9064900662252	-6.36026490066225				0.528529801324503	-0.112529801324503	-0.485721854304636	-17.1170860927152	-16.6164238410596	-0.0556291390728476				0.548026490066225	0.0674966887417219	0.00593377483443711	-11.8082119205298	-15.9080794701987	0.222516556291392				0.479788079470199	-0.142834437086093	-0.468238410596026	-17.8996026490066	0.717615894039735	8.76529801324503			
96	1940	0.775841059602649	0.0347549668874172	-0.487523178807947	9.27337748344371	30.9353642384106	9.45509933774835				0.784953642384106	-0.0322119205298013	-0.00286092715231785	-13.8460927152318	-0.252185430463576	-1.42596026490066				0.757827814569536	-0.0652715231788079	-0.45594701986755	-1.11258278145695	28.7064900662252	-1.04026490066225				0.544529801324503	-0.128529801324503	-0.533721854304636	-10.3970860927152	-11.8564238410596	5.54437086092715				0.612026490066225	-0.0285033112582781	0.0859337748344371	-3.9682119205298	-6.66807947019868	-0.897483443708608				0.527788079470199	-0.0628344370860927	-0.500238410596026	-24.0596026490066	-1.52238410596026	13.245298013245			
97	1960	0	0	0	0	0	0				1.15295364238411	-0.000211920529801304	0.0931390728476822	-22.8060927152318	15.1478145695364	-7.86596026490066				0.933827814569536	-0.177271523178808	-0.40794701986755	-11.752582781457	24.2264900662252	3.15973509933775				0	0	0	0	0	0				0	0	0	0	0	0				0	0	0	0	0	0			
98	1980	0.967841059602649	-0.0932450331125828	-0.135523178807947	-22.0866225165563	35.9753642384106	13.6550993377483				1.07295364238411	0.0157880794701987	0.125139072847682	-22.8060927152318	-5.57218543046358	-10.3859602649007				0.981827814569536	-0.177271523178808	-0.24794701986755	-15.392582781457	19.1864900662252	-0.48026490066225				0	0	0	0	0	0				1.02802649006623	0.00349668874172187	0.117933774834437	-7.0482119205298	12.0919205298013	-5.09748344370861				0	0	0	0	0	0			
99	2000	1.01584105960265	0.0507549668874172	-0.119523178807947	-27.9666225165563	43.8153642384106	7.21509933774835				1.08895364238411	-0.0802119205298013	-0.0348609271523178	-4.60609271523179	-25.1721854304636	-4.50596026490066				1.04582781456954	-0.113271523178808	-0.23194701986755	-7.55258278145695	15.8264900662252	-1.60026490066225				0.912529801324503	-0.112529801324503	-0.677721854304636	-7.31708609271523	3.5435761589404	-2.57562913907285				1.22002649006623	-0.0285033112582781	0.0379337748344371	-7.3282119205298	10.6919205298013	-4.25748344370861				0.927788079470199	-0.254834437086093	-0.628238410596026	2.54039735099338	-4.88238410596027	1.48529801324503			
100	2020	1.03184105960265	0.258754966887417	-0.151523178807947	-22.3666225165563	35.4153642384106	-5.38490066225166				1.00895364238411	0.0477880794701987	-0.0828609271523179	-20.0060927152318	-8.65218543046358	-5.90596026490066				0.981827814569536	-0.0812715231788079	-0.21594701986755	-28.552582781457	23.1064900662252	0.63973509933775				0.864529801324503	-0.176529801324503	-0.613721854304636	1.92291390728477	13.6235761589404	-5.65562913907285				1.23602649006623	-0.0605033112582781	-0.0100662251655629	-7.3282119205298	4.25192052980133	-2.01748344370861				0.959788079470199	-0.222834437086093	-0.580238410596026	-12.0196026490066	15.5576158940397	-0.194701986754968			
101	2040	0.935841059602649	0.274754966887417	-0.167523178807947	-5.84662251655629	26.4553642384106	-7.06490066225166				0.896953642384106	0.175788079470199	0.0131390728476822	-13.2860927152318	13.7478145695364	-4.22596026490066				0.869827814569536	-0.0492715231788079	-0.16794701986755	-35.832582781457	29.2664900662252	3.99973509933775				0.784529801324503	-0.208529801324503	-0.613721854304636	2.76291390728477	9.7035761589404	-3.97562913907285				1.10802649006623	0.00349668874172187	-0.0260662251655629	-11.2482119205298	-6.10807947019868	1.62251655629139				0.783788079470199	-0.190834437086093	-0.596238410596026	-15.6596026490066	18.0776158940397	-8.03470198675497			
102	2060	0.823841059602649	0.114754966887417	-0.119523178807947	9.27337748344371	25.0553642384106	-0.624900662251656				0.944953642384106	0.0157880794701987	-0.00286092715231785	6.59390728476821	13.1878145695364	5.01403973509934				0.869827814569536	-0.0172715231788079	-0.19994701986755	-19.312582781457	33.7464900662252	7.35973509933775				0.720529801324503	-0.192529801324503	-0.645721854304636	-5.91708609271523	3.8235761589404	-1.45562913907285				0.900026490066225	0.0834966887417219	0.00593377483443711	-8.7282119205298	-9.46807947019868	2.74251655629139				0.671788079470199	-0.158834437086093	-0.548238410596027	-10.3396026490066	18.3576158940397	-9.43470198675497			
103	2080	0.887841059602649	-0.0612450331125828	-0.215523178807947	16.5533774834437	28.9753642384106	2.73509933774834				0.912953642384106	0.0477880794701987	0.0611390728476822	-7.40609271523179	14.8678145695364	0.81403973509934				0.869827814569536	0.0307284768211921	-0.29594701986755	-13.152582781457	34.5864900662252	8.75973509933775				0.672529801324503	-0.160529801324503	-0.629721854304636	-8.43708609271523	0.4635761589404	-2.57562913907285				0.836026490066225	0.00349668874172187	0.0379337748344371	-2.5682119205298	-4.70807947019868	1.06251655629139				0.623788079470199	-0.158834437086093	-0.580238410596026	-8.93960264900662	17.5176158940397	0.0852980132450323			
104	2100	0.999841059602649	-0.0612450331125828	-0.295523178807947	-0.526622516556291	25.8953642384106	0.215099337748344				0.880953642384106	0.127788079470199	0.0771390728476822	-20.0060927152318	12.0678145695364	-1.98596026490066				0.901827814569536	0.0627284768211921	-0.35994701986755	-10.632582781457	28.9864900662252	6.23973509933775				0.672529801324503	-0.128529801324503	-0.613721854304636	-7.31708609271523	-2.0564238410596	-3.97562913907285				0.820026490066225	0.00349668874172187	0.0379337748344371	-4.2482119205298	0.331920529801325	-0.337483443708608				0.703788079470199	-0.158834437086093	-0.596238410596026	-10.6196026490066	15.8376158940397	7.64529801324503			
105	2120	0.951841059602649	0.0507549668874172	-0.279523178807947	-20.6866225165563	17.2153642384106	1.33509933774834				0.944953642384106	-0.000211920529801304	0.0291390728476822	-13.8460927152318	13.4678145695364	4.17403973509934				0.933827814569536	0.0307284768211921	-0.42394701986755	1.12741721854305	20.5864900662252	3.99973509933775				0.688529801324503	-0.144529801324503	-0.565721854304636	-14.5970860927152	-5.1364238410596	-7.33562913907285				0.804026490066225	0.0674966887417219	0.0219337748344371	-7.3282119205298	7.33192052980133	-3.13748344370861				0.719788079470199	-0.110834437086093	-0.564238410596026	-3.89960264900662	9.39761589403974	6.24529801324503			
106	2140	0.871841059602649	0.114754966887417	-0.247523178807947	-19.5666225165563	14.6953642384106	3.57509933774835				0.912953642384106	0.0477880794701987	0.0291390728476822	-3.48609271523179	16.5478145695364	5.85403973509934				0.917827814569536	0.0467284768211921	-0.34394701986755	-0.552582781456954	16.6664900662252	0.35973509933775				0.688529801324503	-0.112529801324503	-0.549721854304636	-22.7170860927152	-5.4164238410596	-8.45562913907285				0.852026490066225	0.00349668874172187	0.0539337748344371	-6.2082119205298	14.0519205298013	-4.53748344370861				0.687788079470199	-0.110834437086093	-0.548238410596027	3.38039735099338	3.23761589403974	5.12529801324503			
107	2160	0.951841059602649	0.162754966887417	-0.231523178807947	-8.36662251655629	16.0953642384106	1.61509933774834				0.960953642384106	0.111788079470199	0.0451390728476822	-1.24609271523179	19.0678145695364	6.13403973509934				0.885827814569536	0.0627284768211921	-0.31194701986755	-6.43258278145695	16.3864900662252	-1.60026490066225				0.704529801324503	-0.0645298013245033	-0.501721854304636	-18.2370860927152	-0.0964238410596001	-7.61562913907285				0.884026490066225	0.0194966887417219	0.0859337748344371	-5.0882119205298	16.2919205298013	-3.13748344370861				0.719788079470199	-0.174834437086093	-0.532238410596027	17.6603973509934	1.55761589403974	6.80529801324503			
108	2180	0.999841059602649	0.162754966887417	-0.215523178807947	2.27337748344371	10.2153642384106	-1.18490066225166				0.976953642384106	0.0797880794701987	0.0451390728476822	-2.36609271523179	13.7478145695364	4.17403973509934				0.901827814569536	0.0627284768211921	-0.34394701986755	-1.67258278145695	12.4664900662252	-3.56026490066225				0.752529801324503	-0.0645298013245033	-0.501721854304636	-9.83708609271523	4.3835761589404	-4.53562913907285				0.948026490066225	0.0514966887417219	0.0859337748344371	-3.4082119205298	17.1319205298013	-2.85748344370861				0.767788079470199	-0.238834437086093	-0.516238410596026	15.1403973509934	0.717615894039735	7.08529801324503			
109	2200	0.903841059602649	0.114754966887417	-0.167523178807947	0.593377483443709	-0.424635761589404	2.45509933774835				0.992953642384106	0.0317880794701987	0.0131390728476822	5.47390728476821	13.1878145695364	5.01403973509934				0.933827814569536	0.0147284768211921	-0.34394701986755	23.5274172185431	11.3464900662252	-5.52026490066225				0.784529801324503	-0.0965298013245033	-0.533721854304636	-0.877086092715232	11.1035761589404	-0.335629139072848				0.996026490066225	0.0194966887417219	0.0859337748344371	-0.608211920529802	16.0119205298013	-3.13748344370861				0.783788079470199	-0.270834437086093	-0.500238410596026	4.50039735099338	5.47761589403974	8.76529801324503			
110	2220	0.935841059602649	0.0507549668874172	-0.151523178807947	10.1133774834437	4.8953642384106	1.33509933774834				1.05695364238411	0.0637880794701987	0.0451390728476822	6.87390728476821	19.3478145695364	4.73403973509934				0.981827814569536	-0.0172715231788079	-0.26394701986755	15.407417218543	18.3464900662252	-3.56026490066225				0.800529801324503	-0.0805298013245033	-0.533721854304636	0.242913907284768	17.8235761589404	2.74437086092715				1.01202649006623	0.00349668874172187	0.117933774834437	0.511788079470198	14.8919205298013	-2.01748344370861				0.799788079470199	-0.270834437086093	-0.516238410596026	-0.259602649006623	10.5176158940397	10.725298013245			
111	2240	0.983841059602649	0.0507549668874172	-0.231523178807947	6.47337748344371	7.9753642384106	-0.344900662251656				0.992953642384106	0.0797880794701987	0.0451390728476822	4.07390728476821	20.4678145695364	2.77403973509934				0.949827814569536	-0.113271523178808	-0.27994701986755	6.44741721854305	15.8264900662252	2.59973509933775				0.800529801324503	-0.0965298013245033	-0.565721854304636	-5.07708609271523	21.1835761589404	3.02437086092715				1.01202649006623	0.0194966887417219	0.117933774834437	-1.7282119205298	10.4119205298013	-1.45748344370861				0.831788079470199	-0.238834437086093	-0.532238410596027	-3.61960264900662	11.3576158940397	11.845298013245			
112	2260	0.935841059602649	0.0987549668874172	-0.279523178807947	1.43337748344371	6.5753642384106	-1.18490066225166				0.960953642384106	-0.000211920529801304	0.0771390728476822	2.67390728476821	15.4278145695364	2.49403973509934				0.901827814569536	-0.113271523178808	-0.32794701986755	0.847417218543046	10.5064900662252	4.55973509933775				0.816529801324503	-0.0805298013245033	-0.549721854304636	-0.877086092715232	20.9035761589404	3.30437086092715				0.996026490066225	0.0194966887417219	0.101933774834437	-1.4482119205298	9.01192052980133	-0.617483443708608				0.831788079470199	-0.222834437086093	-0.532238410596027	-2.77960264900662	9.67761589403974	8.76529801324503			
113	2280	0.871841059602649	0.0667549668874172	-0.263523178807947	8.15337748344371	3.4953642384106	0.215099337748344				0.912953642384106	-0.0162119205298013	0.0451390728476822	9.11390728476821	8.70781456953642	4.17403973509934				0.853827814569536	-0.0492715231788079	-0.29594701986755	4.76741721854305	5.74649006622517	2.87973509933775				0.784529801324503	-0.0805298013245033	-0.581721854304636	0.802913907284768	20.0635761589404	1.06437086092715				0.932026490066225	-0.0125033112582781	0.101933774834437	0.231788079470198	8.45192052980133	-0.337483443708608				0.767788079470199	-0.222834437086093	-0.516238410596026	-0.819602649006623	9.67761589403974	7.64529801324503			
114	2300	0.887841059602649	0.0187549668874172	-0.247523178807947	7.87337748344371	3.7753642384106	1.61509933774834				0.992953642384106	-0.000211920529801304	0.0771390728476822	3.51390728476821	9.82781456953643	5.57403973509934				0.885827814569536	0.0147284768211921	-0.27994701986755	-2.79258278145695	4.90649006622517	0.91973509933775				0.752529801324503	-0.0805298013245033	-0.549721854304636	-3.39708609271523	14.7435761589404	-3.41562913907285				0.900026490066225	-0.0125033112582781	0.117933774834437	0.231788079470198	7.05192052980133	-0.0574834437086077				0.735788079470199	-0.222834437086093	-0.516238410596026	1.70039735099338	8.55761589403974	9.60529801324503			
115	2320	0.967841059602649	0.00275496688741723	-0.311523178807947	0.873377483443709	6.5753642384106	-1.18490066225166				1.04095364238411	-0.0162119205298013	0.0611390728476822	-7.68609271523179	8.42781456953642	5.29403973509934				0.949827814569536	-0.0332715231788079	-0.31194701986755	1.40741721854305	5.18649006622517	-0.20026490066225				0.752529801324503	-0.112529801324503	-0.533721854304636	-8.43708609271523	6.0635761589404	-4.25562913907285				0.916026490066225	0.00349668874172187	0.117933774834437	0.791788079470198	7.89192052980133	-0.0574834437086077				0.735788079470199	-0.206834437086093	-0.516238410596026	3.94039735099338	5.19761589403974	10.165298013245			
116	2340	0.951841059602649	0.0347549668874172	-0.263523178807947	-4.16662251655629	8.8153642384106	-1.74490066225166				0.992953642384106	0.0317880794701987	0.0291390728476822	-6.28609271523179	3.94781456953642	2.21403973509934				0.917827814569536	-0.0172715231788079	-0.27994701986755	0.00741721854304636	9.38649006622517	-1.60026490066225				0.768529801324503	-0.128529801324503	-0.565721854304636	-8.15708609271523	5.5035761589404	-3.41562913907285				0.964026490066225	0.00349668874172187	0.133933774834437	0.511788079470198	14.3319205298013	0.782516556291392				0.783788079470199	-0.238834437086093	-0.500238410596026	3.94039735099338	4.91761589403974	10.445298013245			
117	2360	0.919841059602649	0.0827549668874172	-0.231523178807947	-4.16662251655629	6.8553642384106	-1.18490066225166				0.992953642384106	0.0317880794701987	0.0771390728476822	-2.08609271523179	3.66781456953642	3.05403973509934				0.901827814569536	-0.00127152317880793	-0.21594701986755	-4.19258278145695	7.98649006622517	-2.44026490066225				0.784529801324503	-0.128529801324503	-0.565721854304636	-6.19708609271523	10.2635761589404	-2.29562913907285				0.996026490066225	0.00349668874172187	0.101933774834437	-4.5282119205298	12.9319205298013	0.222516556291392				0.799788079470199	-0.270834437086093	-0.500238410596026	3.94039735099338	4.63761589403974	10.725298013245			
118	2380	0.935841059602649	0.0987549668874172	-0.231523178807947	-5.00662251655629	5.1753642384106	0.495099337748344				0.992953642384106	0.0157880794701987	0.0451390728476822	-1.52609271523179	-1.09218543046358	3.61403973509934				0.933827814569536	-0.0332715231788079	-0.26394701986755	-1.67258278145695	7.98649006622517	-2.44026490066225				0.784529801324503	-0.112529801324503	-0.581721854304636	-4.79708609271523	12.2235761589404	-1.73562913907285				1.01202649006623	-0.0125033112582781	0.101933774834437	-5.6482119205298	9.57192052980133	0.502516556291392				0.815788079470199	-0.238834437086093	-0.500238410596026	-3.61960264900662	7.43761589403974	8.48529801324503			
119	2400	0.935841059602649	0.0987549668874172	-0.199523178807947	-1.36662251655629	5.4553642384106	-0.0649006622516557				0.976953642384106	0.0477880794701987	0.0291390728476822	-2.92609271523179	3.66781456953642	2.49403973509934				0.917827814569536	-0.0492715231788079	-0.27994701986755	-0.552582781456954	6.58649006622517	-1.32026490066225				0.768529801324503	-0.112529801324503	-0.565721854304636	-3.11708609271523	13.3435761589404	-0.0556291390728476				0.996026490066225	0.00349668874172187	0.101933774834437	-9.0082119205298	6.77192052980133	1.06251655629139				0.799788079470199	-0.238834437086093	-0.516238410596026	-3.61960264900662	7.15761589403974	4.28529801324503			
120	2420	0.935841059602649	0.114754966887417	-0.183523178807947	-2.20662251655629	9.0953642384106	-0.624900662251656				0.992953642384106	0.0477880794701987	0.0771390728476822	-1.24609271523179	6.18781456953642	2.21403973509934				0.917827814569536	-0.0172715231788079	-0.29594701986755	-2.79258278145695	7.98649006622517	-1.04026490066225				0.768529801324503	-0.0965298013245033	-0.565721854304636	-0.317086092715232	11.3835761589404	-0.0556291390728476				0.964026490066225	0.0194966887417219	0.117933774834437	-5.6482119205298	7.33192052980133	1.62251655629139				0.767788079470199	-0.206834437086093	-0.516238410596026	0.580397350993377	6.03761589403974	3.16529801324503			
121	2440	0.935841059602649	0.114754966887417	-0.215523178807947	-1.36662251655629	8.2553642384106	-1.18490066225166				1.00895364238411	0.0317880794701987	0.0771390728476822	2.11390728476821	0.307814569536424	2.21403973509934				0.901827814569536	0.0147284768211921	-0.29594701986755	-10.072582781457	6.02649006622517	-1.04026490066225				0.800529801324503	-0.0805298013245033	-0.549721854304636	0.242913907284768	9.9835761589404	0.784370860927152				0.948026490066225	0.0354966887417219	0.117933774834437	-3.6882119205298	5.09192052980133	1.34251655629139				0.751788079470199	-0.222834437086093	-0.532238410596027	-4.17960264900662	6.31761589403974	7.64529801324503			
122	2460	0.935841059602649	0.0987549668874172	-0.199523178807947	2.55337748344371	7.4153642384106	-0.904900662251656				1.00895364238411	0.0317880794701987	0.0611390728476822	0.433907284768212	-1.93218543046358	2.77403973509934				0.917827814569536	0.0147284768211921	-0.26394701986755	-2.51258278145695	9.66649006622517	-0.48026490066225				0.832529801324503	-0.0965298013245033	-0.533721854304636	-1.43708609271523	5.7835761589404	3.30437086092715				0.948026490066225	0.0194966887417219	0.117933774834437	-2.5682119205298	6.49192052980132	2.18251655629139				0.783788079470199	-0.238834437086093	-0.516238410596026	-2.77960264900662	6.87761589403974	7.08529801324503			
123	2480	0.919841059602649	0.0667549668874172	-0.199523178807947	4.23337748344371	7.6953642384106	-0.624900662251656				0.976953642384106	0.0477880794701987	0.0451390728476822	0.433907284768212	-1.65218543046358	1.65403973509934				0.933827814569536	-0.00127152317880793	-0.24794701986755	-1.11258278145695	9.66649006622517	0.63973509933775				0.832529801324503	-0.112529801324503	-0.549721854304636	-1.99708609271523	1.3035761589404	3.58437086092715				0.964026490066225	0.00349668874172187	0.117933774834437	-1.1682119205298	5.65192052980133	1.90251655629139				0.783788079470199	-0.222834437086093	-0.532238410596027	-0.539602649006623	6.87761589403974	5.96529801324503			
124	2500	0.951841059602649	0.0347549668874172	-0.231523178807947	1.43337748344371	7.1353642384106	-0.344900662251656				0.944953642384106	0.0797880794701987	0.0611390728476822	8.27390728476821	-1.65218543046358	0.53403973509934				0.933827814569536	0.0147284768211921	-0.27994701986755	-2.79258278145695	9.10649006622517	0.0797350993377501				0.816529801324503	-0.0965298013245033	-0.549721854304636	-4.79708609271523	-0.9364238410596	-0.335629139072848				0.964026490066225	0.0194966887417219	0.117933774834437	0.511788079470198	5.65192052980133	0.502516556291392				0.751788079470199	-0.222834437086093	-0.516238410596026	1.14039735099338	5.19761589403974	4.56529801324503			
125	2520	0.951841059602649	0.0827549668874172	-0.215523178807947	-2.48662251655629	4.3353642384106	0.215099337748344				0.992953642384106	0.0477880794701987	0.0611390728476822	11.3539072847682	-1.09218543046358	2.49403973509934				0.949827814569536	0.0307284768211921	-0.26394701986755	6.16741721854305	6.86649006622517	-1.32026490066225				0.816529801324503	-0.0805298013245033	-0.533721854304636	-7.87708609271523	-1.2164238410596	-2.29562913907285				0.964026490066225	0.0354966887417219	0.117933774834437	1.0717880794702	3.41192052980132	-0.337483443708608				0.751788079470199	-0.238834437086093	-0.516238410596026	-1.65960264900662	2.95761589403974	5.12529801324503			
126	2540	0.951841059602649	0.114754966887417	-0.183523178807947	-1.92662251655629	4.8953642384106	-0.0649006622516557				0.992953642384106	0.0317880794701987	0.0611390728476822	6.31390728476821	-3.05218543046358	3.05403973509934				0.917827814569536	-0.00127152317880793	-0.23194701986755	4.76741721854305	8.82649006622517	-1.32026490066225				0.816529801324503	-0.0805298013245033	-0.517721854304636	-0.0370860927152318	-0.3764238410596	-0.335629139072848				0.964026490066225	0.0194966887417219	0.117933774834437	1.9117880794702	1.73192052980133	-2.01748344370861				0.751788079470199	-0.206834437086093	-0.516238410596026	-4.45960264900662	3.23761589403974	4.28529801324503			
127	2560	0.935841059602649	0.114754966887417	-0.183523178807947	0.873377483443709	6.5753642384106	-0.344900662251656				0.976953642384106	0.0317880794701987	0.0611390728476822	-2.64609271523179	-1.09218543046358	0.81403973509934				0.933827814569536	-0.0172715231788079	-0.24794701986755	3.36741721854305	6.86649006622517	-0.20026490066225				0.816529801324503	-0.0965298013245033	-0.549721854304636	1.64291390728477	-2.6164238410596	-1.45562913907285				0.964026490066225	-0.0125033112582781	0.133933774834437	1.9117880794702	0.0519205298013249	-3.13748344370861				0.767788079470199	-0.190834437086093	-0.516238410596026	-3.33960264900662	4.35761589403974	0.925298013245032			
128	2580	0.951841059602649	0.0987549668874172	-0.215523178807947	3.39337748344371	5.1753642384106	-0.624900662251656				0.976953642384106	0.0317880794701987	0.0771390728476822	1.27390728476821	0.0278145695364242	0.25403973509934				0.949827814569536	-0.0172715231788079	-0.23194701986755	-0.832582781456954	6.02649006622517	-0.48026490066225				0.800529801324503	-0.0805298013245033	-0.549721854304636	-0.0370860927152318	-3.1764238410596	-5.09562913907285				0.964026490066225	0.0194966887417219	0.117933774834437	0.791788079470198	0.611920529801325	-2.85748344370861				0.767788079470199	-0.222834437086093	-0.516238410596026	-0.539602649006623	4.35761589403974	-0.474701986754968			
129	2600	0.967841059602649	0.0827549668874172	-0.199523178807947	3.11337748344371	4.0553642384106	-1.18490066225166				0.976953642384106	0.0317880794701987	0.0451390728476822	7.15390728476821	-3.89218543046358	0.25403973509934				0.917827814569536	-0.00127152317880793	-0.23194701986755	0.00741721854304636	4.34649006622517	-0.20026490066225				0.800529801324503	-0.112529801324503	-0.517721854304636	0.242913907284768	-2.6164238410596	-5.37562913907285				0.964026490066225	0.0194966887417219	0.117933774834437	3.8717880794702	2.29192052980133	-2.57748344370861				0.783788079470199	-0.238834437086093	-0.500238410596026	-3.05960264900662	6.59761589403974	-2.71470198675497			
130	2620	0.935841059602649	0.0827549668874172	-0.167523178807947	0.593377483443709	3.4953642384106	-0.624900662251656				0.976953642384106	0.0477880794701987	0.0131390728476822	5.47390728476821	-4.45218543046358	-0.585960264900661				0.933827814569536	0.0147284768211921	-0.21594701986755	0.567417218543046	3.22649006622517	0.63973509933775				0.784529801324503	-0.112529801324503	-0.565721854304636	2.48291390728477	-2.3364238410596	-4.25562913907285				0.964026490066225	0.0194966887417219	0.101933774834437	4.4317880794702	-0.508079470198675	-3.69748344370861				0.783788079470199	-0.222834437086093	-0.500238410596026	-4.45960264900662	7.43761589403974	-6.91470198675497			
131	2640	0.935841059602649	0.0987549668874172	-0.199523178807947	0.873377483443709	3.4953642384106	-0.904900662251656				0.976953642384106	0.0317880794701987	0.0291390728476822	3.51390728476821	1.70781456953642	-0.30596026490066				0.917827814569536	0.0147284768211921	-0.23194701986755	-0.272582781456954	2.66649006622517	-0.76026490066225				0.784529801324503	-0.0965298013245033	-0.565721854304636	-1.71708609271523	-4.2964238410596	-5.37562913907285				0.948026490066225	0.0194966887417219	0.117933774834437	2.4717880794702	-0.228079470198675	-4.81748344370861				0.767788079470199	-0.206834437086093	-0.516238410596026	0.580397350993377	5.47761589403974	-9.15470198675497			
132	2660	0.967841059602649	0.0827549668874172	-0.231523178807947	1.71337748344371	1.8153642384106	-1.74490066225166				1.00895364238411	0.0157880794701987	0.0771390728476822	4.91390728476821	5.90781456953642	0.53403973509934				0.981827814569536	0.0307284768211921	-0.26394701986755	1.96741721854305	2.38649006622517	-0.48026490066225				0.768529801324503	-0.0805298013245033	-0.549721854304636	-4.79708609271523	-5.4164238410596	-6.21562913907285				0.948026490066225	0.0194966887417219	0.101933774834437	2.7517880794702	-0.508079470198675	-4.81748344370861				0.767788079470199	-0.222834437086093	-0.532238410596027	0.0203973509933773	4.63761589403974	-7.47470198675497			
133	2680	0.935841059602649	0.0827549668874172	-0.199523178807947	1.99337748344371	-1.8246357615894	-1.46490066225166				0.976953642384106	0.0317880794701987	0.0771390728476822	5.47390728476821	0.0278145695364242	-0.30596026490066				0.949827814569536	-0.0172715231788079	-0.23194701986755	3.64741721854305	0.426490066225167	0.0797350993377501				0.752529801324503	-0.0965298013245033	-0.549721854304636	0.802913907284768	-1.7764238410596	-5.93562913907285				0.964026490066225	0.0194966887417219	0.101933774834437	2.1917880794702	0.891920529801325	-4.81748344370861				0.799788079470199	-0.206834437086093	-0.532238410596027	-2.77960264900662	5.75761589403974	-6.35470198675497			
134	2700	0.903841059602649	0.0667549668874172	-0.167523178807947	1.99337748344371	-0.704635761589404	-0.344900662251656				0.944953642384106	0.0637880794701987	0.0451390728476822	3.23390728476821	-1.65218543046358	-1.14596026490066				0.901827814569536	-0.0492715231788079	-0.23194701986755	5.32741721854305	0.706490066225167	-1.04026490066225				0.752529801324503	-0.0805298013245033	-0.565721854304636	3.60291390728477	-0.3764238410596	-5.09562913907285				0.932026490066225	0.0354966887417219	0.101933774834437	2.1917880794702	1.73192052980133	-3.97748344370861				0.799788079470199	-0.142834437086093	-0.516238410596026	-0.259602649006623	5.19761589403974	-10.274701986755			
135	2720	0.935841059602649	0.0667549668874172	-0.151523178807947	1.15337748344371	1.8153642384106	-0.904900662251656				0.960953642384106	0.0477880794701987	0.0291390728476822	6.87390728476821	-0.252185430463576	-1.14596026490066				0.917827814569536	-0.0172715231788079	-0.21594701986755	0.567417218543046	2.10649006622517	0.0797350993377501				0.768529801324503	-0.0645298013245033	-0.565721854304636	0.242913907284768	-1.7764238410596	-7.05562913907285				0.932026490066225	0.0514966887417219	0.101933774834437	3.0317880794702	3.41192052980132	-4.25748344370861				0.799788079470199	-0.158834437086093	-0.532238410596027	8.14039735099338	0.717615894039735	-13.354701986755			
136	2740	0.967841059602649	0.0827549668874172	-0.183523178807947	-0.806622516556291	-0.424635761589404	-1.18490066225166				0.992953642384106	0.0317880794701987	0.0451390728476822	10.2339072847682	-0.252185430463576	0.81403973509934				0.949827814569536	-0.00127152317880793	-0.24794701986755	0.287417218543046	0.426490066225167	1.75973509933775				0.784529801324503	-0.0325298013245033	-0.565721854304636	0.522913907284768	-1.4964238410596	-10.1356291390728				0.980026490066225	0.0514966887417219	0.101933774834437	4.9917880794702	3.41192052980132	-3.41748344370861				0.799788079470199	-0.222834437086093	-0.532238410596027	12.6203973509934	-2.92238410596027	-13.634701986755			
137	2760	0.951841059602649	0.0667549668874172	-0.199523178807947	2.55337748344371	-2.1046357615894	-0.344900662251656				0.960953642384106	0.0317880794701987	0.0611390728476822	7.43390728476821	1.42781456953642	0.53403973509934				0.949827814569536	-0.00127152317880793	-0.26394701986755	2.24741721854305	-0.973509933774833	1.19973509933775				0.784529801324503	-0.0485298013245033	-0.549721854304636	6.68291390728477	0.4635761589404	-11.2556291390728				0.980026490066225	0.0514966887417219	0.0859337748344371	4.7117880794702	0.891920529801325	-2.29748344370861				0.815788079470199	-0.222834437086093	-0.548238410596027	3.38039735099338	-0.402384105960265	-9.15470198675497			
138	2780	0.935841059602649	0.0667549668874172	-0.183523178807947	3.95337748344371	-2.9446357615894	-0.344900662251656				0.960953642384106	0.0637880794701987	0.0291390728476822	4.63390728476821	3.10781456953642	1.37403973509934				0.917827814569536	0.0147284768211921	-0.24794701986755	3.36741721854305	0.146490066225167	0.63973509933775				0.768529801324503	-0.0805298013245033	-0.549721854304636	9.20291390728477	0.7435761589404	-9.01562913907285				0.948026490066225	0.0514966887417219	0.0859337748344371	6.6717880794702	1.17192052980133	-1.73748344370861				0.799788079470199	-0.158834437086093	-0.532238410596027	-0.259602649006623	0.157615894039735	-8.03470198675497			
139	2800	0.951841059602649	0.0827549668874172	-0.199523178807947	1.15337748344371	-1.8246357615894	-0.0649006622516557				1.00895364238411	0.0477880794701987	0.0451390728476822	6.59390728476821	3.94781456953642	2.21403973509934				0.917827814569536	0.0147284768211921	-0.26394701986755	4.20741721854305	1.82649006622517	-0.48026490066225				0.752529801324503	-0.0645298013245033	-0.565721854304636	3.60291390728477	-2.0564238410596	-8.73562913907285				0.932026490066225	0.0514966887417219	0.101933774834437	8.0717880794702	3.97192052980133	-2.01748344370861				0.783788079470199	-0.142834437086093	-0.516238410596026	8.98039735099338	-0.402384105960265	-9.43470198675497			
140	2820	0.967841059602649	0.0987549668874172	-0.231523178807947	2.83337748344371	-1.2646357615894	-0.904900662251656				0.992953642384106	0.0317880794701987	0.0611390728476822	9.67390728476821	2.26781456953642	1.65403973509934				0.933827814569536	0.0147284768211921	-0.27994701986755	5.88741721854305	0.706490066225167	0.63973509933775				0.752529801324503	-0.0485298013245033	-0.565721854304636	3.04291390728477	-0.9364238410596	-10.4156291390728				0.932026490066225	0.0514966887417219	0.117933774834437	10.8717880794702	5.37192052980133	-0.897483443708608				0.783788079470199	-0.222834437086093	-0.516238410596026	15.1403973509934	-1.80238410596026	-7.47470198675497			
141	2840	0.951841059602649	0.0987549668874172	-0.215523178807947	6.75337748344371	-4.6246357615894	-0.904900662251656				0.976953642384106	0.0317880794701987	0.0451390728476822	12.7539072847682	1.14781456953642	2.49403973509934				0.933827814569536	0.0147284768211921	-0.31194701986755	7.56741721854305	-2.37350993377483	0.0797350993377501				0.768529801324503	-0.0485298013245033	-0.549721854304636	10.6029139072848	2.1435761589404	-9.85562913907285				0.948026490066225	0.0354966887417219	0.101933774834437	11.4317880794702	5.65192052980133	-0.897483443708608				0.799788079470199	-0.238834437086093	-0.516238410596026	11.2203973509934	-3.20238410596026	-5.79470198675497			
142	2860	0.935841059602649	0.0667549668874172	-0.215523178807947	6.75337748344371	-7.1446357615894	-1.18490066225166				0.992953642384106	0.0317880794701987	0.0451390728476822	13.8739072847682	0.587814569536424	4.17403973509934				0.917827814569536	-0.00127152317880793	-0.27994701986755	8.40741721854305	-2.93350993377483	-0.76026490066225				0.784529801324503	-0.0965298013245033	-0.549721854304636	11.7229139072848	3.8235761589404	-8.73562913907285				0.948026490066225	0.0354966887417219	0.117933774834437	11.7117880794702	5.37192052980133	-0.0574834437086077				0.799788079470199	-0.190834437086093	-0.516238410596026	5.90039735099338	-2.08238410596027	-6.07470198675497			
143	2880	0.919841059602649	0.0667549668874172	-0.199523178807947	7.03337748344371	-5.4646357615894	-0.344900662251656				0.976953642384106	0.0317880794701987	0.0131390728476822	11.6339072847682	-3.33218543046358	1.65403973509934				0.917827814569536	-0.0172715231788079	-0.24794701986755	8.12741721854305	-1.81350993377483	-0.20026490066225				0.784529801324503	-0.0805298013245033	-0.549721854304636	4.44291390728477	1.0235761589404	-8.73562913907285				0.964026490066225	0.0194966887417219	0.117933774834437	11.9917880794702	5.65192052980133	0.782516556291392				0.799788079470199	-0.174834437086093	-0.516238410596026	8.70039735099338	-3.76238410596027	-7.75470198675497			
144	2900	0.935841059602649	0.0667549668874172	-0.215523178807947	7.59337748344371	-3.5046357615894	0.215099337748344				0.992953642384106	0.0317880794701987	0.0131390728476822	9.11390728476821	1.14781456953642	-0.30596026490066				0.933827814569536	-0.0172715231788079	-0.23194701986755	4.76741721854305	0.146490066225167	0.63973509933775				0.784529801324503	-0.0485298013245033	-0.549721854304636	2.48291390728477	-0.9364238410596	-9.85562913907285				0.964026490066225	0.0354966887417219	0.165933774834437	12.8317880794702	9.01192052980133	-0.337483443708608				0.799788079470199	-0.238834437086093	-0.500238410596026	15.4203973509934	-5.16238410596027	-6.35470198675497			
145	2920	0.967841059602649	0.0987549668874172	-0.263523178807947	7.03337748344371	-4.6246357615894	-0.0649006622516557				1.02495364238411	0.0157880794701987	0.0611390728476822	6.59390728476821	2.54781456953642	1.37403973509934				0.949827814569536	-0.0172715231788079	-0.26394701986755	4.76741721854305	-1.25350993377483	0.63973509933775				0.784529801324503	-0.0645298013245033	-0.565721854304636	9.20291390728477	1.3035761589404	-9.57562913907285				0.980026490066225	0.0354966887417219	0.101933774834437	11.4317880794702	1.17192052980133	0.502516556291392				0.799788079470199	-0.238834437086093	-0.516238410596026	8.42039735099338	-4.60238410596027	-5.51470198675497			
146	2940	0.951841059602649	0.0827549668874172	-0.231523178807947	7.87337748344371	-6.0246357615894	-1.18490066225166				0	0	0	0	0	0				0.933827814569536	-0.00127152317880793	-0.24794701986755	3.92741721854305	-2.65350993377483	-0.48026490066225				0.816529801324503	-0.0805298013245033	-0.565721854304636	14.8029139072848	1.0235761589404	-7.05562913907285				0	0	0	0	0	0				0.799788079470199	-0.190834437086093	-0.516238410596026	3.66039735099338	-4.04238410596027	-5.51470198675497			
147	2960	0	0	0	0	0	0				0	0	0	0	0	0				0	0	0	0	0	0				0	0	0	0	0	0				0.964026490066225	0.0354966887417219	0.117933774834437	7.7917880794702	4.81192052980133	-0.337483443708608				0.799788079470199	-0.206834437086093	-0.516238410596026	10.1003973509934	-4.60238410596027	-6.63470198675497			
148	2980	0.903841059602649	0.0507549668874172	-0.215523178807947	7.59337748344371	-6.0246357615894	0.495099337748344				0.992953642384106	0.0317880794701987	0.0291390728476822	9.39390728476821	-3.33218543046358	1.09403973509934				0.933827814569536	-0.0332715231788079	-0.24794701986755	6.72741721854305	0.426490066225167	-0.20026490066225				0.768529801324503	-0.0645298013245033	-0.565721854304636	3.88291390728477	-1.7764238410596	-8.73562913907285				0.948026490066225	0.0194966887417219	0.133933774834437	8.6317880794702	1.45192052980132	-0.337483443708608				0.783788079470199	-0.222834437086093	-0.516238410596026	12.0603973509934	-5.72238410596027	-6.91470198675497			
149	3000	0.919841059602649	0.0507549668874172	-0.231523178807947	5.63337748344371	-2.6646357615894	0.215099337748344				1.00895364238411	0.0157880794701987	0.0291390728476822	6.59390728476821	-3.05218543046358	-0.0259602649006601				0.933827814569536	-0.0332715231788079	-0.26394701986755	-0.272582781456954	-0.973509933774833	0.63973509933775				0.768529801324503	-0.0645298013245033	-0.549721854304636	5.28291390728477	-2.3364238410596	-7.61562913907285				0.964026490066225	0.0354966887417219	0.133933774834437	10.5917880794702	1.45192052980132	1.62251655629139				0.783788079470199	-0.222834437086093	-0.500238410596026	5.34039735099338	-3.76238410596027	-6.35470198675497			
150	3020	0.951841059602649	0.0667549668874172	-0.231523178807947	5.07337748344371	-0.984635761589404	0.775099337748344				1.00895364238411	0.0157880794701987	0.0611390728476822	5.47390728476821	-5.85218543046358	-1.14596026490066				0.933827814569536	-0.0172715231788079	-0.26394701986755	0.287417218543046	-0.133509933774833	0.91973509933775				0.768529801324503	-0.0805298013245033	-0.565721854304636	10.0429139072848	-2.0564238410596	-5.37562913907285				0.980026490066225	0.0354966887417219	0.149933774834437	7.7917880794702	1.45192052980132	0.782516556291392				0.799788079470199	-0.222834437086093	-0.516238410596026	2.54039735099338	-3.48238410596027	-6.63470198675497			
151	3040	0.935841059602649	0.0827549668874172	-0.215523178807947	1.71337748344371	-2.3846357615894	1.33509933774834				0.976953642384106	0.0317880794701987	0.0291390728476822	5.19390728476821	-11.4521854304636	-0.0259602649006601				0.917827814569536	-0.0172715231788079	-0.27994701986755	3.92741721854305	1.82649006622517	-1.32026490066225				0.784529801324503	-0.0965298013245033	-0.581721854304636	8.64291390728477	-1.2164238410596	-4.25562913907285				0.964026490066225	0.0194966887417219	0.117933774834437	7.7917880794702	0.611920529801325	0.782516556291392				0.815788079470199	-0.190834437086093	-0.516238410596026	3.94039735099338	-2.92238410596027	-6.91470198675497			
152	3060	0.935841059602649	0.0667549668874172	-0.215523178807947	2.55337748344371	-0.704635761589404	-0.624900662251656				0.992953642384106	0.0317880794701987	-0.00286092715231785	4.07390728476821	-10.8921854304636	0.81403973509934				0.933827814569536	0.0147284768211921	-0.24794701986755	0.847417218543046	4.62649006622517	-1.60026490066225				0.768529801324503	-0.0965298013245033	-0.565721854304636	6.40291390728477	-1.2164238410596	-3.69562913907285				0.980026490066225	0.0354966887417219	0.117933774834437	6.9517880794702	0.611920529801325	1.34251655629139				0.799788079470199	-0.206834437086093	-0.516238410596026	4.22039735099338	-2.64238410596027	-8.03470198675497			
153	3080	0.951841059602649	0.0507549668874172	-0.231523178807947	4.23337748344371	1.2553642384106	-0.0649006622516557				1.00895364238411	0.0317880794701987	-0.00286092715231785	5.75390728476821	-10.3321854304636	-0.86596026490066				0.933827814569536	-0.00127152317880793	-0.27994701986755	2.52741721854305	4.62649006622517	-1.88026490066225				0.768529801324503	-0.0805298013245033	-0.565721854304636	8.64291390728477	-1.4964238410596	-3.69562913907285				0.980026490066225	0.0194966887417219	0.117933774834437	5.8317880794702	0.0519205298013249	0.782516556291392				0.799788079470199	-0.206834437086093	-0.516238410596026	1.98039735099338	-2.64238410596027	-8.03470198675497			
154	3100	0.919841059602649	0.0347549668874172	-0.231523178807947	2.27337748344371	2.3753642384106	0.495099337748344				0.992953642384106	0.0317880794701987	-0.00286092715231785	7.43390728476821	-10.6121854304636	0.25403973509934				0.933827814569536	-0.00127152317880793	-0.27994701986755	4.20741721854305	3.50649006622517	-3.00026490066225				0.768529801324503	-0.0965298013245033	-0.565721854304636	9.20291390728477	-0.3764238410596	-3.97562913907285				0.964026490066225	0.0194966887417219	0.117933774834437	5.2717880794702	-1.62807947019868	1.34251655629139				0.799788079470199	-0.206834437086093	-0.532238410596027	-0.539602649006623	-0.402384105960265	-8.03470198675497			
155	3120	0.919841059602649	0.0507549668874172	-0.231523178807947	2.83337748344371	1.8153642384106	0.775099337748344				0.976953642384106	0.0317880794701987	-0.00286092715231785	5.47390728476821	-9.49218543046358	-0.0259602649006601				0.933827814569536	-0.00127152317880793	-0.27994701986755	3.36741721854305	4.06649006622517	-2.16026490066225				0.768529801324503	-0.0805298013245033	-0.565721854304636	9.76291390728477	-1.4964238410596	-3.13562913907285				0.948026490066225	0.0194966887417219	0.101933774834437	5.2717880794702	-1.06807947019868	2.46251655629139				0.783788079470199	-0.206834437086093	-0.548238410596027	1.98039735099338	-1.52238410596026	-6.07470198675497			
156	3140	0.935841059602649	0.0507549668874172	-0.231523178807947	3.11337748344371	0.695364238410596	-0.0649006622516557				0.976953642384106	0.0477880794701987	-0.00286092715231785	5.19390728476821	-5.85218543046358	-0.0259602649006601				0.917827814569536	-0.0332715231788079	-0.24794701986755	5.32741721854305	3.78649006622517	-1.88026490066225				0.768529801324503	-0.0965298013245033	-0.549721854304636	8.64291390728477	-2.3364238410596	-2.29562913907285				0.948026490066225	0.0354966887417219	0.101933774834437	6.1117880794702	-0.508079470198675	3.02251655629139				0.767788079470199	-0.190834437086093	-0.548238410596027	3.10039735099338	-0.962384105960265	-4.95470198675497			
157	3160	0.935841059602649	0.0667549668874172	-0.247523178807947	0.873377483443709	-1.2646357615894	0.775099337748344				0.976953642384106	0.0637880794701987	-0.0188609271523178	7.43390728476821	-5.85218543046358	1.09403973509934				0.917827814569536	-0.0332715231788079	-0.26394701986755	6.72741721854305	1.26649006622517	-1.88026490066225				0.768529801324503	-0.112529801324503	-0.565721854304636	8.36291390728477	-0.9364238410596	-1.73562913907285				0.964026490066225	0.0354966887417219	0.0859337748344371	5.2717880794702	-1.62807947019868	2.46251655629139				0.751788079470199	-0.190834437086093	-0.548238410596027	2.26039735099338	-2.08238410596027	-5.23470198675497			
158	3180	0.919841059602649	0.0667549668874172	-0.215523178807947	4.51337748344371	0.695364238410596	0.215099337748344				0.976953642384106	0.0317880794701987	-0.0348609271523178	12.1939072847682	-5.85218543046358	3.05403973509934				0.933827814569536	-0.0172715231788079	-0.26394701986755	5.88741721854305	1.82649006622517	-1.88026490066225				0.784529801324503	-0.112529801324503	-0.581721854304636	10.3229139072848	-0.0964238410596001	-0.0556291390728476				0.948026490066225	0.0354966887417219	0.117933774834437	6.6717880794702	0.331920529801325	3.02251655629139				0.767788079470199	-0.190834437086093	-0.548238410596027	3.94039735099338	-2.64238410596027	-4.11470198675497			
159	3200	0.951841059602649	0.0507549668874172	-0.215523178807947	4.79337748344371	0.695364238410596	-0.624900662251656				1.00895364238411	-0.000211920529801304	-0.00286092715231785	9.39390728476821	-3.33218543046358	3.05403973509934				0.949827814569536	-0.0332715231788079	-0.26394701986755	6.16741721854305	2.38649006622517	-0.76026490066225				0.704529801324503	-0.256529801324503	-0.613721854304636	4.16291390728477	-2.8964238410596	6.66437086092715				0.980026490066225	0.0194966887417219	0.0379337748344371	0.791788079470198	-6.38807947019868	-0.0574834437086077				0.719788079470199	-0.110834437086093	-0.612238410596026	-4.73960264900662	-4.60238410596027	-5.79470198675497			
160	3220	0.951841059602649	0.0507549668874172	-0.263523178807947	1.43337748344371	0.135364238410596	-0.624900662251656				0.992953642384106	0.0157880794701987	-0.00286092715231785	2.11390728476821	-6.41218543046358	1.09403973509934				0.949827814569536	-0.0332715231788079	-0.24794701986755	5.60741721854305	0.986490066225167	-0.20026490066225				0.784529801324503	-0.0965298013245033	-0.581721854304636	9.76291390728477	1.8635761589404	-2.57562913907285				0.996026490066225	-0.0125033112582781	0.101933774834437	6.6717880794702	-3.58807947019868	2.18251655629139				0.783788079470199	-0.222834437086093	-0.532238410596027	3.38039735099338	-1.52238410596026	-2.43470198675497			
161	3240	0.919841059602649	0.0667549668874172	-0.247523178807947	0.0333774834437086	-1.8246357615894	-0.904900662251656				0.976953642384106	0.0317880794701987	-0.0348609271523178	0.153907284768212	-3.61218543046358	0.53403973509934				0.933827814569536	-0.0332715231788079	-0.23194701986755	3.64741721854305	0.426490066225167	-1.32026490066225				0.672529801324503	-0.224529801324503	-0.645721854304636	4.72291390728477	1.3035761589404	-3.13562913907285				0.980026490066225	0.00349668874172187	0.101933774834437	4.1517880794702	-5.26807947019868	2.74251655629139				0.607788079470199	-0.350834437086093	-0.644238410596026	-0.819602649006623	1.27761589403974	-1.31470198675497			
162	3260	0.935841059602649	0.0507549668874172	-0.231523178807947	3.95337748344371	2.0953642384106	-1.74490066225166				0.992953642384106	0.0157880794701987	-0.00286092715231785	2.11390728476821	-1.37218543046358	1.65403973509934				0.917827814569536	-0.0332715231788079	-0.23194701986755	0.287417218543046	1.26649006622517	-2.44026490066225				0.752529801324503	-0.112529801324503	-0.581721854304636	9.76291390728477	-0.6564238410596	-7.61562913907285				0.964026490066225	0.0354966887417219	0.0859337748344371	2.4717880794702	-4.70807947019868	2.74251655629139				0.783788079470199	-0.190834437086093	-0.548238410596027	1.42039735099338	-2.92238410596027	-3.55470198675497			
163	3280	0.935841059602649	0.0507549668874172	-0.215523178807947	2.27337748344371	1.8153642384106	-1.46490066225166				1.02495364238411	-0.000211920529801304	-0.0188609271523178	2.39390728476821	-4.73218543046358	1.37403973509934				0.933827814569536	-0.00127152317880793	-0.26394701986755	-0.832582781456954	4.34649006622517	-0.76026490066225				0.768529801324503	-0.0965298013245033	-0.581721854304636	10.8829139072848	-0.9364238410596	-7.05562913907285				0.964026490066225	0.0194966887417219	0.101933774834437	2.4717880794702	-4.42807947019868	3.02251655629139				0.783788079470199	-0.190834437086093	-0.516238410596026	4.22039735099338	-1.24238410596026	-3.83470198675497			
164	3300	0.951841059602649	0.0667549668874172	-0.247523178807947	-0.246622516556291	0.695364238410596	-1.46490066225166				0.976953642384106	0.0317880794701987	-0.0188609271523178	3.23390728476821	-7.53218543046358	-0.0259602649006601				0.949827814569536	-0.0172715231788079	-0.27994701986755	1.12741721854305	3.22649006622517	-0.48026490066225				0.784529801324503	-0.112529801324503	-0.581721854304636	7.80291390728477	-0.3764238410596	-7.33562913907285				0.964026490066225	0.0194966887417219	0.101933774834437	2.1917880794702	-3.86807947019868	3.58251655629139				0.783788079470199	-0.206834437086093	-0.532238410596027	5.06039735099338	-0.402384105960265	-2.43470198675497			
165	3320	0.919841059602649	0.0827549668874172	-0.231523178807947	-0.246622516556291	0.695364238410596	-1.74490066225166				0.960953642384106	0.0637880794701987	-0.0348609271523178	3.23390728476821	-5.57218543046358	-0.0259602649006601				0.933827814569536	-0.00127152317880793	-0.24794701986755	2.80741721854305	2.94649006622517	-1.88026490066225				0.784529801324503	-0.112529801324503	-0.565721854304636	6.40291390728477	-1.7764238410596	-6.21562913907285				0.964026490066225	0.0354966887417219	0.0859337748344371	2.7517880794702	-3.58807947019868	3.02251655629139				0.783788079470199	-0.206834437086093	-0.516238410596026	1.70039735099338	-0.682384105960265	-1.03470198675497			
166	3340	0.919841059602649	0.0667549668874172	-0.199523178807947	4.23337748344371	1.5353642384106	-1.46490066225166				0.960953642384106	0.0317880794701987	-0.0348609271523178	4.07390728476821	-1.65218543046358	2.21403973509934				0.917827814569536	-0.00127152317880793	-0.24794701986755	0.847417218543046	1.54649006622517	-0.76026490066225				0.768529801324503	-0.112529801324503	-0.581721854304636	8.64291390728477	0.1835761589404	-3.69562913907285				0.948026490066225	0.0354966887417219	0.0859337748344371	2.7517880794702	-3.86807947019868	3.30251655629139				0.783788079470199	-0.174834437086093	-0.532238410596027	-1.93960264900662	-0.682384105960265	-0.194701986754968			
167	3360	0.935841059602649	0.0507549668874172	-0.215523178807947	4.51337748344371	1.2553642384106	-1.46490066225166				1.00895364238411	0.0317880794701987	-0.0348609271523178	2.67390728476821	-0.812185430463576	3.05403973509934				0.933827814569536	0.0147284768211921	-0.26394701986755	2.52741721854305	3.78649006622517	0.0797350993377501				0.768529801324503	-0.0965298013245033	-0.581721854304636	8.36291390728477	0.4635761589404	-2.29562913907285				0.948026490066225	0.0194966887417219	0.117933774834437	3.3117880794702	-2.46807947019868	3.02251655629139				0.767788079470199	-0.190834437086093	-0.516238410596026	0.860397350993377	-2.36238410596027	0.365298013245032			
168	3380	0.935841059602649	0.0507549668874172	-0.231523178807947	2.83337748344371	0.975364238410596	-1.74490066225166				0.992953642384106	0.0317880794701987	0.0131390728476822	0.433907284768212	-1.65218543046358	2.21403973509934				0.965827814569536	-0.0172715231788079	-0.26394701986755	3.64741721854305	2.38649006622517	0.0797350993377501				0.768529801324503	-0.0965298013245033	-0.565721854304636	8.08291390728477	0.4635761589404	-1.73562913907285				0.964026490066225	0.0194966887417219	0.117933774834437	3.0317880794702	-1.90807947019868	2.74251655629139				0.783788079470199	-0.206834437086093	-0.548238410596027	3.38039735099338	-2.36238410596027	1.76529801324503			
169	3400	0.951841059602649	0.0667549668874172	-0.247523178807947	1.99337748344371	-0.704635761589404	-1.74490066225166				0.976953642384106	0.0477880794701987	0.0131390728476822	3.51390728476821	-4.73218543046358	2.49403973509934				0.933827814569536	-0.0332715231788079	-0.24794701986755	3.92741721854305	0.426490066225167	-0.48026490066225				0.784529801324503	-0.0965298013245033	-0.565721854304636	8.36291390728477	1.3035761589404	-1.45562913907285				0.948026490066225	0.0194966887417219	0.0859337748344371	1.6317880794702	-3.30807947019868	2.18251655629139				0.783788079470199	-0.206834437086093	-0.548238410596027	3.38039735099338	-3.20238410596026	0.925298013245032			
170	3420	0.935841059602649	0.0827549668874172	-0.215523178807947	2.55337748344371	-2.3846357615894	-1.74490066225166				0.960953642384106	0.0157880794701987	-0.0348609271523178	4.63390728476821	-5.85218543046358	2.21403973509934				0.933827814569536	-0.0172715231788079	-0.21594701986755	2.24741721854305	0.146490066225167	-0.48026490066225				0.768529801324503	-0.0965298013245033	-0.565721854304636	7.52291390728477	1.5835761589404	-1.17562913907285				0.948026490066225	0.0194966887417219	0.0859337748344371	3.0317880794702	-2.74807947019868	3.30251655629139				0.783788079470199	-0.190834437086093	-0.532238410596027	1.70039735099338	-4.04238410596027	0.365298013245032			
171	3440	0.935841059602649	0.0667549668874172	-0.215523178807947	2.83337748344371	-2.1046357615894	-1.46490066225166				0.992953642384106	-0.000211920529801304	-0.0348609271523178	1.83390728476821	-1.93218543046358	2.21403973509934				0.949827814569536	-0.0172715231788079	-0.21594701986755	-0.552582781456954	0.146490066225167	0.0797350993377501				0.768529801324503	-0.0805298013245033	-0.565721854304636	6.12291390728477	1.0235761589404	-0.615629139072848				0.948026490066225	0.00349668874172187	0.117933774834437	5.5517880794702	-1.90807947019868	3.30251655629139				0.783788079470199	-0.190834437086093	-0.516238410596026	5.06039735099338	-6.84238410596027	0.365298013245032			
172	3460	0.919841059602649	0.0347549668874172	-0.199523178807947	2.55337748344371	-0.424635761589404	-1.74490066225166				0.992953642384106	-0.000211920529801304	-0.0348609271523178	-2.08609271523179	-0.252185430463576	1.93403973509934				0.949827814569536	-0.0332715231788079	-0.24794701986755	1.40741721854305	-0.973509933774833	0.35973509933775				0.800529801324503	-0.0965298013245033	-0.565721854304636	4.16291390728477	2.4235761589404	-0.335629139072848				0.964026490066225	-0.0125033112582781	0.133933774834437	4.9917880794702	-1.34807947019868	3.30251655629139				0.783788079470199	-0.238834437086093	-0.548238410596027	6.74039735099338	-8.80238410596027	0.925298013245032			
173	3480	0.951841059602649	0.0347549668874172	-0.231523178807947	-0.806622516556291	-0.704635761589404	-2.02490066225166				0.960953642384106	0.0477880794701987	-0.00286092715231785	-0.686092715231788	1.98781456953642	0.81403973509934				0.933827814569536	-0.0172715231788079	-0.23194701986755	0.00741721854304636	-0.413509933774833	-0.20026490066225				0.800529801324503	-0.128529801324503	-0.565721854304636	6.96291390728477	4.1035761589404	-1.17562913907285				0.980026490066225	-0.0125033112582781	0.0859337748344371	2.1917880794702	-4.98807947019868	2.74251655629139				0.799788079470199	-0.222834437086093	-0.532238410596027	1.98039735099338	-7.40238410596027	2.04529801324503			
174	3500	0.967841059602649	0.0667549668874172	-0.247523178807947	-3.88662251655629	-2.6646357615894	-2.02490066225166				0.992953642384106	0.0157880794701987	0.0131390728476822	-2.08609271523179	-3.89218543046358	1.37403973509934				0.917827814569536	-0.00127152317880793	-0.23194701986755	-2.23258278145695	-2.09350993377483	0.35973509933775				0.768529801324503	-0.112529801324503	-0.581721854304636	5.28291390728477	2.7035761589404	-2.29562913907285				0.964026490066225	0.00349668874172187	0.101933774834437	0.511788079470198	-3.86807947019868	1.34251655629139				0.767788079470199	-0.206834437086093	-0.516238410596026	-1.37960264900662	-6.56238410596027	2.32529801324503			
175	3520	0.919841059602649	0.0827549668874172	-0.215523178807947	-0.526622516556291	-2.3846357615894	-0.904900662251656				0.992953642384106	0.0157880794701987	-0.0828609271523179	-2.36609271523179	-5.57218543046358	0.25403973509934				0.949827814569536	-0.00127152317880793	-0.24794701986755	2.80741721854305	-0.413509933774833	0.35973509933775				0.768529801324503	-0.112529801324503	-0.565721854304636	5.56291390728477	2.1435761589404	-0.335629139072848				0.964026490066225	0.00349668874172187	0.101933774834437	-1.4482119205298	-2.74807947019868	1.90251655629139				0.751788079470199	-0.190834437086093	-0.516238410596026	-0.819602649006623	-5.16238410596027	2.04529801324503			
176	3540	0.919841059602649	0.0507549668874172	-0.247523178807947	1.15337748344371	-0.144635761589404	-2.02490066225166				0.992953642384106	0.0157880794701987	-0.0828609271523179	-3.20609271523179	0.587814569536424	-0.0259602649006601				0.949827814569536	-0.0172715231788079	-0.24794701986755	-0.552582781456954	-0.693509933774834	0.63973509933775				0.784529801324503	-0.144529801324503	-0.549721854304636	6.40291390728477	1.3035761589404	1.90437086092715				0.964026490066225	-0.0125033112582781	0.0859337748344371	1.0717880794702	-3.30807947019868	3.02251655629139				0.751788079470199	-0.206834437086093	-0.516238410596026	0.0203973509933773	-2.92238410596027	2.32529801324503			
177	3560	0.951841059602649	0.0507549668874172	-0.247523178807947	-1.64662251655629	-0.424635761589404	-2.86490066225166				0.992953642384106	0.0477880794701987	0.0131390728476822	-4.32609271523179	5.34781456953642	-0.0259602649006601				0.917827814569536	-0.00127152317880793	-0.27994701986755	-1.95258278145695	1.54649006622517	0.35973509933775				0.800529801324503	-0.144529801324503	-0.581721854304636	1.92291390728477	1.3035761589404	4.42437086092715				0.964026490066225	0.00349668874172187	0.101933774834437	1.6317880794702	-4.70807947019868	2.46251655629139				0.767788079470199	-0.222834437086093	-0.516238410596026	-5.01960264900662	-0.122384105960265	2.88529801324503			
178	3580	0.935841059602649	0.0667549668874172	-0.231523178807947	-2.76662251655629	-2.1046357615894	-1.46490066225166				0.992953642384106	0.0157880794701987	0.0771390728476822	-1.80609271523179	-3.33218543046358	0.81403973509934				0.917827814569536	0.0147284768211921	-0.26394701986755	1.68741721854305	2.10649006622517	-0.48026490066225				0.800529801324503	-0.112529801324503	-0.581721854304636	-2.55708609271523	3.2635761589404	3.86437086092715				0.964026490066225	0.00349668874172187	0.0859337748344371	-1.7282119205298	-4.14807947019868	1.62251655629139				0.783788079470199	-0.222834437086093	-0.532238410596027	-5.85960264900662	0.717615894039735	3.16529801324503			
