No	Time	12-AccX	12-AccY	12-AccZ	12-GyroX	12-GyroY	12-GyroZ	13-AccX	13-AccY	13-AccZ	13-GyroX	13-GyroY	13-GyroZ	14-AccX	14-AccY	14-AccZ	14-GyroX	14-GyroY	14-GyroZ	15-AccX	15-AccY	15-AccZ	15-GyroX	15-GyroY	15-GyroZ	16-AccX	16-AccY	16-AccZ	16-GyroX	16-GyroY	16-GyroZ	17-AccX	17-AccY	17-AccZ	17-GyroX	17-GyroY	17-GyroZ
0	0	0	0	0	0	0	0				0	0	0	0	0	0				-0.218172185430464	0.0147284768211921	-0.88794701986755	-1.11258278145695	-0.693509933774834	1.19973509933775				0	0	0	0	0	0				0	0	0	0	0	0				0	0	0	0	0	0			
1	20	-0.200158940397351	0.0507549668874172	-0.951523178807947	-1.64662251655629	0.695364238410596	-0.344900662251656				0.912953642384106	0.0477880794701987	0.381139072847682	0.993907284768212	2.82781456953642	-3.94596026490066				-0.218172185430464	0.0307284768211921	-0.88794701986755	0.00741721854304636	-0.133509933774833	1.47973509933775				0.592529801324503	-0.112529801324503	-0.773721854304636	1.92291390728477	2.4235761589404	3.30437086092715				0.948026490066225	0.0354966887417219	0.293933774834437	-0.328211920529802	0.0519205298013249	-0.897483443708608				0.415788079470199	-0.206834437086093	-0.868238410596026	-0.819602649006623	-2.36238410596027	0.925298013245032			
2	40	-0.184158940397351	0.0347549668874172	-0.951523178807947	0.0333774834437086	0.975364238410596	-0.344900662251656				0.928953642384106	0.0477880794701987	0.365139072847682	2.11390728476821	0.587814569536424	-3.10596026490066				-0.234172185430464	0.0147284768211921	-0.88794701986755	0.567417218543046	0.146490066225167	2.59973509933775				0.592529801324503	-0.112529801324503	-0.789721854304636	0.522913907284768	-0.6564238410596	3.30437086092715				0.932026490066225	0.0514966887417219	0.277933774834437	-0.608211920529802	-0.228079470198675	-0.337483443708608				0.415788079470199	-0.190834437086093	-0.852238410596026	0.300397350993377	-4.32238410596027	1.48529801324503			
3	60	-0.200158940397351	0.0347549668874172	-0.967523178807947	-0.246622516556291	0.695364238410596	-1.18490066225166				0.928953642384106	0.0317880794701987	0.397139072847682	4.07390728476821	-0.532185430463576	-2.54596026490066				-0.234172185430464	0.0147284768211921	-0.88794701986755	-0.272582781456954	-0.133509933774833	2.31973509933775				0.592529801324503	-0.112529801324503	-0.773721854304636	1.08291390728477	-1.4964238410596	2.18437086092715				0.932026490066225	0.0514966887417219	0.293933774834437	0.511788079470198	-0.788079470198675	-0.897483443708608				0.415788079470199	-0.206834437086093	-0.836238410596026	1.98039735099338	-6.56238410596027	2.04529801324503			
4	80	-0.200158940397351	0.0667549668874172	-0.951523178807947	-2.48662251655629	-0.704635761589404	-0.0649006622516557				0.928953642384106	0.0477880794701987	0.381139072847682	6.31390728476821	-1.93218543046358	-2.54596026490066				-0.218172185430464	0.0147284768211921	-0.88794701986755	-0.832582781456954	-1.25350993377483	2.03973509933775				0.592529801324503	-0.112529801324503	-0.773721854304636	1.64291390728477	-2.0564238410596	2.74437086092715				0.948026490066225	0.0674966887417219	0.277933774834437	0.511788079470198	-1.90807947019868	-0.897483443708608				0.399788079470199	-0.206834437086093	-0.804238410596027	0.860397350993377	-6.28238410596027	2.32529801324503			
5	100	-0.184158940397351	0.0347549668874172	-0.951523178807947	-1.36662251655629	-0.424635761589404	-0.344900662251656				0.944953642384106	0.0317880794701987	0.381139072847682	8.55390728476821	-2.77218543046358	-0.585960264900661				-0.218172185430464	0.0147284768211921	-0.88794701986755	0.287417218543046	-0.133509933774833	2.03973509933775				0.592529801324503	-0.112529801324503	-0.773721854304636	-1.15708609271523	-2.3364238410596	1.62437086092715				0.948026490066225	0.0514966887417219	0.277933774834437	2.7517880794702	-2.18807947019868	-0.617483443708608				0.399788079470199	-0.206834437086093	-0.836238410596026	-0.259602649006623	-4.60238410596027	2.04529801324503			
6	120	-0.200158940397351	0.0187549668874172	-0.951523178807947	0.593377483443709	0.415364238410596	-1.46490066225166				0.944953642384106	0.0157880794701987	0.397139072847682	8.55390728476821	-3.05218543046358	0.25403973509934				-0.202172185430464	-0.00127152317880793	-0.88794701986755	1.68741721854305	0.426490066225167	1.19973509933775				0.592529801324503	-0.0965298013245033	-0.773721854304636	0.522913907284768	-2.6164238410596	2.18437086092715				0.948026490066225	0.0514966887417219	0.277933774834437	3.3117880794702	-2.74807947019868	-0.617483443708608				0.399788079470199	-0.190834437086093	-0.836238410596026	-0.259602649006623	-3.48238410596027	2.60529801324503			
7	140	-0.200158940397351	0.0347549668874172	-0.967523178807947	-0.806622516556291	-0.144635761589404	-2.30490066225166				0.928953642384106	0.0157880794701987	0.413139072847682	5.19390728476821	-1.65218543046358	0.25403973509934				-0.218172185430464	-0.00127152317880793	-0.91994701986755	0.847417218543046	0.426490066225167	0.63973509933775				0.576529801324503	-0.112529801324503	-0.773721854304636	2.20291390728477	-2.6164238410596	1.06437086092715				0.932026490066225	0.0354966887417219	0.277933774834437	3.5917880794702	-2.46807947019868	0.222516556291392				0.383788079470199	-0.190834437086093	-0.836238410596026	-0.539602649006623	-2.92238410596027	1.48529801324503			
8	160	-0.184158940397351	0.0347549668874172	-0.935523178807947	-1.92662251655629	-0.144635761589404	-2.58490066225166				0.912953642384106	0.0157880794701987	0.413139072847682	4.35390728476821	0.307814569536424	-0.30596026490066				-0.202172185430464	-0.00127152317880793	-0.88794701986755	-1.39258278145695	0.146490066225167	0.63973509933775				0.560529801324503	-0.112529801324503	-0.789721854304636	1.64291390728477	-2.3364238410596	-0.0556291390728476				0.932026490066225	0.0514966887417219	0.277933774834437	4.7117880794702	-0.788079470198675	-1.17748344370861				0.399788079470199	-0.190834437086093	-0.836238410596026	-1.09960264900662	-2.64238410596027	1.20529801324503			
9	180	-0.184158940397351	0.0347549668874172	-0.951523178807947	-1.08662251655629	0.135364238410596	-2.02490066225166				0.912953642384106	0.0157880794701987	0.413139072847682	4.63390728476821	-2.49218543046358	0.25403973509934				-0.202172185430464	-0.00127152317880793	-0.88794701986755	-1.67258278145695	0.146490066225167	1.19973509933775				0.560529801324503	-0.128529801324503	-0.789721854304636	-0.317086092715232	-2.0564238410596	1.06437086092715				0.932026490066225	0.0354966887417219	0.277933774834437	5.2717880794702	0.0519205298013249	-0.897483443708608				0.399788079470199	-0.190834437086093	-0.820238410596026	-0.539602649006623	-1.24238410596026	0.0852980132450323			
10	200	-0.200158940397351	0.0347549668874172	-0.935523178807947	0.313377483443709	-0.144635761589404	-1.46490066225166				0.912953642384106	0.0477880794701987	0.397139072847682	4.91390728476821	-2.77218543046358	0.53403973509934				-0.202172185430464	0.0147284768211921	-0.88794701986755	-3.07258278145695	-0.133509933774833	1.75973509933775				0.544529801324503	-0.128529801324503	-0.757721854304636	-1.15708609271523	-2.6164238410596	0.784370860927152				0.932026490066225	0.0354966887417219	0.277933774834437	3.5917880794702	-0.508079470198675	-0.0574834437086077				0.415788079470199	-0.206834437086093	-0.820238410596026	-0.819602649006623	0.157615894039735	0.0852980132450323			
11	220	-0.200158940397351	0.0187549668874172	-0.951523178807947	1.15337748344371	-0.424635761589404	-0.904900662251656				0.928953642384106	0.0477880794701987	0.365139072847682	4.91390728476821	-3.05218543046358	0.81403973509934				-0.218172185430464	0.0147284768211921	-0.90394701986755	-1.67258278145695	-0.413509933774833	1.75973509933775				0.528529801324503	-0.112529801324503	-0.757721854304636	-1.43708609271523	-1.7764238410596	-0.615629139072848				0.916026490066225	0.0354966887417219	0.277933774834437	2.1917880794702	-0.788079470198675	-0.337483443708608				0.399788079470199	-0.190834437086093	-0.820238410596026	-1.93960264900662	0.717615894039735	0.645298013245032			
12	240	-0.216158940397351	0.0347549668874172	-0.951523178807947	0.0333774834437086	-0.984635761589404	-0.624900662251656				0.912953642384106	0.0317880794701987	0.381139072847682	1.27390728476821	3.38781456953642	-0.30596026490066				-0.234172185430464	0.0307284768211921	-0.90394701986755	-1.67258278145695	0.426490066225167	0.35973509933775				0.528529801324503	-0.112529801324503	-0.757721854304636	-0.0370860927152318	-0.6564238410596	-0.0556291390728476				0.900026490066225	0.0354966887417219	0.293933774834437	1.9117880794702	-1.62807947019868	-0.0574834437086077				0.399788079470199	-0.206834437086093	-0.804238410596027	-2.21960264900662	0.437615894039735	-0.754701986754968			
13	260	-0.200158940397351	0.0347549668874172	-0.951523178807947	-0.526622516556291	0.415364238410596	-0.904900662251656				0.928953642384106	0.0477880794701987	0.397139072847682	0.993907284768212	0.867814569536424	-2.54596026490066				-0.218172185430464	0.0467284768211921	-0.90394701986755	-1.95258278145695	-0.693509933774834	-0.48026490066225				0.560529801324503	-0.112529801324503	-0.773721854304636	-0.0370860927152318	0.1835761589404	1.06437086092715				0.916026490066225	0.0674966887417219	0.277933774834437	-1.4482119205298	-0.228079470198675	-2.01748344370861				0.415788079470199	-0.190834437086093	-0.820238410596026	-2.77960264900662	0.437615894039735	-0.474701986754968			
14	280	-0.184158940397351	0.0347549668874172	-0.951523178807947	-0.246622516556291	0.135364238410596	0.495099337748344				0.928953642384106	0.0637880794701987	0.381139072847682	2.39390728476821	-0.812185430463576	-0.30596026490066				-0.218172185430464	0.0467284768211921	-0.87194701986755	-0.832582781456954	-0.973509933774833	-0.76026490066225				0.560529801324503	-0.112529801324503	-0.773721854304636	-0.877086092715232	0.1835761589404	1.90437086092715				0.916026490066225	0.0674966887417219	0.277933774834437	-2.0082119205298	-0.228079470198675	-1.45748344370861				0.415788079470199	-0.174834437086093	-0.836238410596026	-2.77960264900662	-0.402384105960265	0.365298013245032			
15	300	-0.184158940397351	0.0347549668874172	-0.951523178807947	0.0333774834437086	-1.2646357615894	0.775099337748344				0.928953642384106	0.0477880794701987	0.381139072847682	4.07390728476821	-3.89218543046358	0.53403973509934				-0.218172185430464	0.0307284768211921	-0.88794701986755	1.40741721854305	-2.09350993377483	-1.60026490066225				0.560529801324503	-0.112529801324503	-0.773721854304636	0.242913907284768	-0.3764238410596	2.74437086092715				0.916026490066225	0.0514966887417219	0.293933774834437	-0.888211920529802	-0.228079470198675	-1.17748344370861				0.399788079470199	-0.190834437086093	-0.836238410596026	0.0203973509933773	0.717615894039735	-0.474701986754968			
16	320	-0.216158940397351	0.0347549668874172	-0.935523178807947	-0.806622516556291	-1.2646357615894	0.215099337748344				0.912953642384106	0.0477880794701987	0.381139072847682	2.39390728476821	-3.33218543046358	-0.0259602649006601				-0.234172185430464	0.0307284768211921	-0.90394701986755	0.00741721854304636	-0.973509933774833	-2.44026490066225				0.544529801324503	-0.112529801324503	-0.773721854304636	-1.43708609271523	-0.3764238410596	1.62437086092715				0.932026490066225	0.0514966887417219	0.261933774834437	-3.6882119205298	0.331920529801325	-1.45748344370861				0.399788079470199	-0.190834437086093	-0.852238410596026	-0.819602649006623	1.27761589403974	-0.194701986754968			
17	340	-0.216158940397351	0.0507549668874172	-0.951523178807947	0.313377483443709	-1.2646357615894	0.215099337748344				0.928953642384106	0.0477880794701987	0.413139072847682	1.27390728476821	0.0278145695364242	-1.14596026490066				-0.234172185430464	0.0307284768211921	-0.90394701986755	1.12741721854305	0.426490066225167	-2.44026490066225				0.576529801324503	-0.128529801324503	-0.789721854304636	-1.15708609271523	1.0235761589404	2.46437086092715				0.948026490066225	0.0674966887417219	0.309933774834437	-2.0082119205298	0.331920529801325	-1.45748344370861				0.399788079470199	-0.206834437086093	-0.852238410596026	-2.21960264900662	0.437615894039735	2.04529801324503			
18	360	-0.200158940397351	0.0667549668874172	-0.951523178807947	0.0333774834437086	-0.984635761589404	0.495099337748344				0.944953642384106	0.0317880794701987	0.413139072847682	-0.406092715231788	-1.09218543046358	-1.14596026490066				-0.234172185430464	0.0147284768211921	-0.90394701986755	1.96741721854305	-0.133509933774833	-2.16026490066225				0.576529801324503	-0.112529801324503	-0.789721854304636	-0.877086092715232	1.8635761589404	3.02437086092715				0.948026490066225	0.0674966887417219	0.277933774834437	-0.608211920529802	-0.508079470198675	-1.17748344370861				0.399788079470199	-0.222834437086093	-0.852238410596026	-3.89960264900662	-0.122384105960265	3.44529801324503			
19	380	-0.200158940397351	0.0507549668874172	-0.951523178807947	0.873377483443709	-0.144635761589404	-0.344900662251656				0.928953642384106	0.0477880794701987	0.413139072847682	-0.686092715231788	-1.37218543046358	-1.98596026490066				-0.218172185430464	-0.00127152317880793	-0.88794701986755	2.24741721854305	-0.973509933774833	-2.72026490066225				0.592529801324503	-0.112529801324503	-0.789721854304636	-0.317086092715232	1.0235761589404	2.74437086092715				0.948026490066225	0.0514966887417219	0.277933774834437	-2.0082119205298	-0.788079470198675	-0.897483443708608				0.399788079470199	-0.206834437086093	-0.852238410596026	-3.89960264900662	0.717615894039735	5.12529801324503			
20	400	-0.184158940397351	0.0347549668874172	-0.935523178807947	0.593377483443709	-0.704635761589404	-1.18490066225166				0.944953642384106	0.0477880794701987	0.381139072847682	0.433907284768212	-2.49218543046358	-0.585960264900661				-0.202172185430464	-0.00127152317880793	-0.88794701986755	0.00741721854304636	-0.133509933774833	-2.16026490066225				0.576529801324503	-0.128529801324503	-0.805721854304636	1.08291390728477	-0.0964238410596001	2.18437086092715				0.948026490066225	0.0514966887417219	0.277933774834437	-0.608211920529802	-1.06807947019868	-1.45748344370861				0.415788079470199	-0.206834437086093	-0.868238410596026	-3.89960264900662	2.11761589403974	5.40529801324503			
21	420	-0.200158940397351	0.0507549668874172	-0.967523178807947	-0.526622516556291	-0.424635761589404	-1.18490066225166				0.944953642384106	0.0477880794701987	0.381139072847682	-1.24609271523179	-2.21218543046358	-0.86596026490066				-0.218172185430464	-0.00127152317880793	-0.90394701986755	-1.39258278145695	0.426490066225167	-1.32026490066225				0.592529801324503	-0.112529801324503	-0.789721854304636	0.242913907284768	-2.8964238410596	2.46437086092715				0.932026490066225	0.0514966887417219	0.277933774834437	-0.888211920529802	-0.228079470198675	-1.45748344370861				0.399788079470199	-0.222834437086093	-0.852238410596026	-2.21960264900662	0.997615894039735	6.80529801324503			
22	440	-0.200158940397351	0.0347549668874172	-0.967523178807947	-0.806622516556291	-0.704635761589404	-1.18490066225166				0.928953642384106	0.0157880794701987	0.381139072847682	-1.80609271523179	-4.45218543046358	-0.86596026490066				-0.202172185430464	-0.00127152317880793	-0.90394701986755	1.40741721854305	-0.133509933774833	0.0797350993377501				0.592529801324503	-0.144529801324503	-0.789721854304636	-4.51708609271523	-6.2564238410596	3.30437086092715				0.948026490066225	0.0514966887417219	0.293933774834437	-0.608211920529802	-1.62807947019868	-1.73748344370861				0.399788079470199	-0.238834437086093	-0.836238410596026	-1.65960264900662	0.157615894039735	9.60529801324503			
23	460	-0.200158940397351	0.0187549668874172	-0.935523178807947	1.15337748344371	-0.144635761589404	-0.904900662251656				0.928953642384106	0.0317880794701987	0.381139072847682	-2.36609271523179	-2.77218543046358	-1.14596026490066				-0.218172185430464	-0.0172715231788079	-0.88794701986755	0.847417218543046	0.146490066225167	0.63973509933775				0.592529801324503	-0.144529801324503	-0.789721854304636	-4.51708609271523	-7.3764238410596	3.58437086092715				0.948026490066225	0.0514966887417219	0.277933774834437	-0.328211920529802	-1.06807947019868	-0.897483443708608				0.415788079470199	-0.222834437086093	-0.868238410596026	-5.29960264900662	-0.402384105960265	14.365298013245			
24	480	-0.200158940397351	0.0187549668874172	-0.935523178807947	1.43337748344371	-0.424635761589404	-0.904900662251656				0.928953642384106	0.0637880794701987	0.381139072847682	4.07390728476821	-3.33218543046358	1.09403973509934				-0.218172185430464	-0.0332715231788079	-0.88794701986755	-1.67258278145695	-0.133509933774833	0.91973509933775				0.576529801324503	-0.144529801324503	-0.805721854304636	2.76291390728477	-15.2164238410596	2.18437086092715				0.948026490066225	0.0514966887417219	0.261933774834437	-2.0082119205298	-0.788079470198675	-1.17748344370861				0.415788079470199	-0.222834437086093	-0.868238410596026	-17.0596026490066	4.07761589403974	20.525298013245			
25	500	-0.200158940397351	0.0187549668874172	-0.951523178807947	0.313377483443709	-0.424635761589404	-0.344900662251656				0.976953642384106	0.0477880794701987	0.349139072847682	2.11390728476821	-8.65218543046358	5.57403973509934				-0.202172185430464	-0.0172715231788079	-0.88794701986755	-3.63258278145695	-0.413509933774833	1.19973509933775				0.592529801324503	-0.112529801324503	-0.805721854304636	-9.55708609271523	-19.9764238410596	3.58437086092715				0.948026490066225	0.0674966887417219	0.277933774834437	-3.4082119205298	-1.90807947019868	-0.617483443708608				0.399788079470199	-0.222834437086093	-0.868238410596026	-8.09960264900662	0.437615894039735	22.485298013245			
26	520	-0.200158940397351	0.0187549668874172	-0.967523178807947	-1.64662251655629	-0.984635761589404	1.33509933774834				0.976953642384106	0.0477880794701987	0.333139072847682	-2.36609271523179	-25.1721854304636	2.49403973509934				-0.218172185430464	-0.0172715231788079	-0.85594701986755	-1.95258278145695	-0.413509933774833	2.59973509933775				0.624529801324503	-0.112529801324503	-0.789721854304636	-14.0370860927152	-22.2164238410596	2.74437086092715				0.948026490066225	0.0674966887417219	0.245933774834437	-2.2882119205298	-3.58807947019868	-0.617483443708608				0.415788079470199	-0.238834437086093	-0.852238410596026	-4.17960264900662	-6.56238410596027	24.165298013245			
27	540	-0.216158940397351	0.0187549668874172	-0.967523178807947	-1.64662251655629	-0.984635761589404	2.17509933774834				1.05695364238411	0.0477880794701987	0.333139072847682	2.11390728476821	-48.9721854304636	0.81403973509934				-0.234172185430464	-0.0332715231788079	-0.88794701986755	-1.95258278145695	-0.413509933774833	3.99973509933775				0.576529801324503	-0.144529801324503	-0.805721854304636	-6.47708609271523	-25.0164238410596	1.34437086092715				0.948026490066225	0.0674966887417219	0.261933774834437	0.511788079470198	-3.30807947019868	0.222516556291392				0.399788079470199	-0.222834437086093	-0.884238410596026	-17.3396026490066	-10.2023841059603	33.405298013245			
28	560	-0.216158940397351	0.00275496688741723	-0.935523178807947	-2.76662251655629	0.135364238410596	2.45509933774835				1.07295364238411	0.0957880794701987	0.365139072847682	6.87390728476821	-87.3321854304636	0.25403973509934				-0.250172185430464	-0.0652715231788079	-0.88794701986755	-2.79258278145695	0.146490066225167	5.95973509933775				0.576529801324503	-0.144529801324503	-0.837721854304636	-9.83708609271523	-27.2564238410596	0.504370860927152				0.948026490066225	0.0674966887417219	0.245933774834437	-0.888211920529802	-2.46807947019868	1.06251655629139				0.367788079470199	-0.174834437086093	-0.916238410596027	-13.6996026490066	-11.3223841059603	36.485298013245			
29	580	-0.232158940397351	0.0187549668874172	-0.919523178807947	-3.60662251655629	1.8153642384106	1.05509933774834				0.880953642384106	0.0797880794701987	0.205139072847682	13.8739072847682	-89.5721854304636	8.09403973509934				-0.266172185430464	-0.0492715231788079	-0.88794701986755	-10.632582781457	-1.25350993377483	9.59973509933775				0.512529801324503	-0.0805298013245033	-0.821721854304636	-17.1170860927152	-28.0964238410596	-0.615629139072848				0.964026490066225	0.0514966887417219	0.245933774834437	-1.1682119205298	0.0519205298013249	0.782516556291392				0.351788079470199	-0.158834437086093	-0.916238410596027	-7.25960264900662	-13.2823841059603	33.685298013245			
30	600	-0.248158940397351	0.0347549668874172	-0.951523178807947	-4.44662251655629	2.0953642384106	1.61509933774834				0.960953642384106	0.0637880794701987	0.173139072847682	6.03390728476821	-55.1321854304636	6.41403973509934				-0.282172185430464	0.0147284768211921	-0.88794701986755	-11.192582781457	1.54649006622517	12.3997350993378				0.480529801324503	-0.0805298013245033	-0.821721854304636	-13.7570860927152	-28.0964238410596	-1.73562913907285				0.980026490066225	0.0354966887417219	0.229933774834437	-1.1682119205298	-1.90807947019868	0.502516556291392				0.335788079470199	-0.174834437086093	-0.916238410596027	-1.09960264900662	-12.4423841059603	27.805298013245			
31	620	-0.232158940397351	0.0507549668874172	-0.983523178807947	-8.92662251655629	3.4953642384106	3.01509933774834				1.13695364238411	0.0477880794701987	0.269139072847682	6.59390728476821	-62.4121854304636	2.77403973509934				-0.266172185430464	0.0947284768211921	-0.88794701986755	-9.51258278145695	2.94649006622517	13.2397350993378				0.496529801324503	-0.0965298013245033	-0.853721854304636	-2.55708609271523	-25.0164238410596	0.224370860927152				1.02802649006623	0.0194966887417219	0.229933774834437	1.6317880794702	-6.66807947019868	2.46251655629139				0.351788079470199	-0.174834437086093	-0.916238410596027	0.580397350993377	-13.0023841059603	24.725298013245			
32	640	-0.216158940397351	0.0507549668874172	-0.951523178807947	-9.20662251655629	5.4553642384106	4.41509933774834				0.944953642384106	0.0797880794701987	0.141139072847682	15.8339072847682	-81.7321854304636	4.45403973509934				-0.266172185430464	0.126728476821192	-0.88794701986755	-4.19258278145695	2.38649006622517	11.5597350993378				0.544529801324503	-0.128529801324503	-0.901721854304636	3.60291390728477	-26.6964238410596	1.90437086092715				1.02802649006623	0.0674966887417219	0.229933774834437	3.0317880794702	-6.66807947019868	3.86251655629139				0.351788079470199	-0.190834437086093	-0.948238410596026	-3.89960264900662	-12.7223841059603	24.445298013245			
33	660	-0.232158940397351	0.0667549668874172	-0.919523178807947	-7.24662251655629	4.8953642384106	3.85509933774834				0.864953642384106	0.0477880794701987	0.0451390728476822	13.5939072847682	-52.3321854304636	5.01403973509934				-0.234172185430464	0.110728476821192	-0.93594701986755	-0.552582781456954	4.34649006622517	9.03973509933775				0.560529801324503	-0.112529801324503	-0.917721854304636	-1.43708609271523	-30.8964238410596	1.62437086092715				0.996026490066225	0.0674966887417219	0.245933774834437	4.1517880794702	-10.8680794701987	3.58251655629139				0.335788079470199	-0.222834437086093	-0.948238410596026	-6.13960264900662	-12.1623841059603	23.885298013245			
34	680	-0.216158940397351	0.0667549668874172	-0.951523178807947	-6.96662251655629	6.0153642384106	3.29509933774834				0.976953642384106	0.0797880794701987	0.141139072847682	10.5139072847682	-29.3721854304636	2.21403973509934				-0.218172185430464	0.0947284768211921	-0.90394701986755	3.64741721854305	3.22649006622517	6.51973509933775				0.544529801324503	-0.144529801324503	-0.901721854304636	-10.9570860927152	-42.0964238410596	0.224370860927152				0.980026490066225	0.0674966887417219	0.245933774834437	6.6717880794702	-16.1880794701987	3.02251655629139				0.319788079470199	-0.238834437086093	-0.980238410596026	1.14039735099338	-19.7223841059603	25.285298013245			
35	700	-0.200158940397351	0.0827549668874172	-0.967523178807947	-9.48662251655629	6.8553642384106	5.53509933774834				1.08895364238411	0.0637880794701987	0.125139072847682	7.99390728476821	-44.2121854304636	-0.30596026490066				-0.218172185430464	0.0627284768211921	-0.90394701986755	-0.552582781456954	-2.65350993377483	6.79973509933775				0.496529801324503	-0.144529801324503	-0.965721854304636	-6.19708609271523	-50.2164238410596	-0.0556291390728476				1.01202649006623	0.0514966887417219	0.213933774834437	6.9517880794702	-18.4280794701987	3.02251655629139				0.367788079470199	-0.222834437086093	-1.04423841059603	-12.5796026490066	-16.3623841059603	34.245298013245			
36	720	-0.184158940397351	0.0827549668874172	-0.983523178807947	-14.5266225165563	6.5753642384106	7.77509933774834				1.24895364238411	0.0157880794701987	0.0451390728476822	16.6739072847682	-69.9721854304636	3.33403973509934				-0.218172185430464	-0.0172715231788079	-0.90394701986755	4.48741721854305	2.66649006622517	7.07973509933775				0.512529801324503	-0.112529801324503	-1.01372185430464	-1.15708609271523	-57.2164238410596	-0.335629139072848				1.02802649006623	0.0354966887417219	0.181933774834437	2.1917880794702	-22.0680794701987	-0.0574834437086077				0.415788079470199	-0.206834437086093	-1.06023841059603	0.860397350993377	-28.9623841059603	42.085298013245			
37	740	-0.200158940397351	0.0187549668874172	-0.967523178807947	-14.5266225165563	7.1353642384106	6.93509933774835				0.912953642384106	-0.0482119205298013	-0.0348609271523178	16.1139072847682	-89.2921854304636	5.85403973509934				-0.202172185430464	-0.00127152317880793	-0.90394701986755	4.20741721854305	2.10649006622517	8.19973509933775				0.480529801324503	-0.0965298013245033	-1.07772185430464	5.28291390728477	-70.6564238410596	-6.77562913907285				1.01202649006623	0.00349668874172187	0.165933774834437	7.5117880794702	-24.8680794701987	1.34251655629139				0.303788079470199	-0.270834437086093	-1.06023841059603	10.3803973509934	-40.7223841059603	54.405298013245			
38	760	-0.248158940397351	0.00275496688741723	-0.983523178807947	-15.3666225165563	9.9353642384106	5.81509933774834				0.880953642384106	-0.0482119205298013	-0.0188609271523178	4.63390728476821	-47.2921854304636	5.29403973509934				-0.218172185430464	0.0467284768211921	-0.90394701986755	4.48741721854305	-1.53350993377483	6.23973509933775				0.320529801324503	-0.160529801324503	-1.07772185430464	-13.1970860927152	-88.8564238410596	-13.7756291390728				1.01202649006623	-0.0125033112582781	0.181933774834437	14.5117880794702	-21.5080794701987	2.18251655629139				0.255788079470199	-0.318834437086093	-1.04423841059603	26.9003973509934	-47.4423841059603	58.325298013245			
39	780	-0.232158940397351	0.0507549668874172	-0.983523178807947	-34.6866225165563	12.1753642384106	10.0150993377483				1.04095364238411	0.0157880794701987	0.0931390728476822	0.713907284768212	-20.6921854304636	0.53403973509934				-0.234172185430464	0.0467284768211921	-0.85594701986755	2.52741721854305	0.146490066225167	5.95973509933775				0.272529801324503	-0.0485298013245033	-1.04572185430464	-15.7170860927152	-92.7764238410596	-17.6956291390729				1.06002649006623	-0.0125033112582781	0.0699337748344371	12.2717880794702	-27.1080794701987	1.90251655629139				0.255788079470199	-0.302834437086093	-1.02823841059603	14.0203973509934	-57.2423841059603	63.365298013245			
40	800	-0.248158940397351	0.0347549668874172	-0.967523178807947	-52.3266225165563	11.0553642384106	14.4950993377483				0.992953642384106	0.0797880794701987	-0.0988609271523179	10.7939072847682	-24.8921854304636	0.81403973509934				-0.282172185430464	0.0467284768211921	-0.85594701986755	3.92741721854305	-0.133509933774833	6.23973509933775				0.224529801324503	-0.144529801324503	-1.07772185430464	22.6429139072848	-95.5764238410596	-19.6556291390729				1.10802649006623	0.0194966887417219	0.00593377483443711	10.8717880794702	-24.0280794701987	-0.617483443708608				0.175788079470199	-0.270834437086093	-1.02823841059603	2.26039735099338	-61.4423841059603	78.485298013245			
41	820	-0.216158940397351	0.0667549668874172	-0.951523178807947	-47.2866225165563	9.9353642384106	16.4550993377483				0.928953642384106	0.0317880794701987	-0.178860927152318	-0.686092715231788	-1.93218543046358	3.89403973509934				-0.282172185430464	0.0467284768211921	-0.90394701986755	5.88741721854305	3.50649006622517	6.51973509933775				0.192529801324503	-0.176529801324503	-1.07772185430464	14.5229139072848	-105.93642384106	-20.4956291390729				1.02802649006623	0.00349668874172187	0.0219337748344371	18.9917880794702	-11.9880794701987	-3.41748344370861				-0.0162119205298013	-0.254834437086093	-0.964238410596026	-3.89960264900662	-67.3223841059603	91.645298013245			
42	840	-0.248158940397351	0.0347549668874172	-0.951523178807947	-36.3666225165563	8.5353642384106	13.9350993377483				0.960953642384106	0.0957880794701987	0.0131390728476822	-9.92609271523179	21.5878145695364	0.53403973509934				-0.266172185430464	0.0627284768211921	-0.93594701986755	2.24741721854305	0.146490066225167	6.79973509933775				0.224529801324503	-0.240529801324503	-1.02972185430464	-4.23708609271523	-121.61642384106	-23.2956291390729				0.932026490066225	0.0674966887417219	0.0379337748344371	23.1917880794702	-18.4280794701987	1.06251655629139				-0.0162119205298013	-0.110834437086093	-0.980238410596026	-17.8996026490066	-63.9623841059603	91.645298013245			
43	860	-0.248158940397351	0.0827549668874172	-0.951523178807947	-28.5266225165563	13.2953642384106	13.3750993377483				1.04095364238411	0.0637880794701987	0.0931390728476822	0.433907284768212	28.8678145695364	5.01403973509934				-0.266172185430464	0.0947284768211921	-0.90394701986755	4.76741721854305	6.30649006622517	5.11973509933775				0.288529801324503	-0.256529801324503	-0.997721854304636	-24.9570860927152	-137.01642384106	-33.6556291390729				0.932026490066225	0.131496688741722	0.0219337748344371	10.5917880794702	-11.7080794701987	7.50251655629139				-0.0162119205298013	-0.126834437086093	-1.01223841059603	1.70039735099338	-72.6423841059603	93.885298013245			
44	880	-0.216158940397351	0.0987549668874172	-0.919523178807947	-27.4066225165563	15.5353642384106	13.9350993377483				1.00895364238411	0.0317880794701987	0.0931390728476822	7.99390728476821	30.5478145695364	8.09403973509934				-0.266172185430464	0.0787284768211921	-0.91994701986755	14.007417218543	8.54649006622517	0.63973509933775				0.240529801324503	-0.112529801324503	-1.09372185430464	-53.7970860927152	-154.09642384106	-31.1356291390729				1.02802649006623	0.131496688741722	0.0699337748344371	10.5917880794702	4.53192052980133	12.5425165562914				-0.0322119205298013	-0.158834437086093	-1.07623841059603	-3.89960264900662	-67.0423841059603	89.965298013245			
45	900	-0.232158940397351	0.0347549668874172	-0.871523178807947	-27.1266225165563	15.8153642384106	17.0150993377483				1.02495364238411	-0.000211920529801304	-0.0188609271523178	8.27390728476821	29.1478145695364	8.65403973509934				-0.266172185430464	0.0307284768211921	-0.99994701986755	13.727417218543	9.38649006622517	-2.16026490066225				0.144529801324503	-0.128529801324503	-1.14172185430464	-68.6370860927152	-148.77642384106	-35.6156291390729				1.02802649006623	0.0674966887417219	0.133933774834437	22.6317880794702	-3.86807947019868	17.8625165562914				0.159788079470199	-0.0308344370860927	-1.06023841059603	10.1003973509934	-45.4823841059603	80.445298013245			
46	920	-0.216158940397351	0.114754966887417	-0.903523178807947	-22.9266225165563	27.5753642384106	15.6150993377483				0.912953642384106	0.0477880794701987	0.0931390728476822	3.79390728476821	51.2678145695364	4.45403973509934				-0.250172185430464	0.0467284768211921	-0.93594701986755	21.567417218543	18.3464900662252	-4.12026490066225				0.0165298013245033	-0.144529801324503	-1.12572185430464	-84.5970860927152	-154.37642384106	-50.7356291390729				0.980026490066225	0.0194966887417219	0.117933774834437	18.1517880794702	-4.14807947019868	16.4625165562914				-0.0162119205298013	-0.126834437086093	-1.04423841059603	35.0203973509934	-54.4423841059603	76.805298013245			
47	940	-0.088158940397351	0.274754966887417	-0.855523178807947	-31.3266225165563	24.2153642384106	17.8550993377483				0.960953642384106	0.0637880794701987	0.221139072847682	-1.52609271523179	64.4278145695364	10.3340397350993				-0.218172185430464	0.0467284768211921	-0.95194701986755	11.487417218543	15.5464900662252	-6.64026490066225				-0.0954701986754967	0.0954701986754967	-0.901721854304636	-115.397086092715	-159.69642384106	-57.7356291390729				0	0	0	0	0	0				0	0	0	0	0	0			
48	960	-0.136158940397351	0.242754966887417	-1.25552317880795	-23.7666225165563	23.9353642384106	17.2950993377483				1.02495364238411	0.111788079470199	0.125139072847682	8.83390728476821	73.9478145695364	13.6940397350993				-0.218172185430464	-0.00127152317880793	-1.12794701986755	10.087417218543	23.9464900662252	-8.88026490066225				0	0	0	0	0	0				0	0	0	0	0	0				0	0	0	0	0	0			
49	980	-0.072158940397351	0.242754966887417	-1.15952317880795	-28.2466225165563	47.7353642384106	13.0950993377483				1.13695364238411	0.143788079470199	-0.0188609271523178	4.63390728476821	80.6678145695364	19.0140397350993				-0.218172185430464	0.0307284768211921	-1.12794701986755	8.96741721854305	32.9064900662252	-13.9202649006623				-0.447470198675497	0.207470198675497	-0.901721854304636	-40.3570860927152	-132.25642384106	-45.6956291390729				1.25202649006623	0.0994966887417219	0.117933774834437	4.9917880794702	-7.78807947019868	-0.337483443708608				-0.0162119205298013	-0.446834437086093	-0.916238410596027	33.3403973509934	-60.3223841059603	77.365298013245			
50	1000	0.039841059602649	0.290754966887417	-1.23952317880795	1.71337748344371	28.6953642384106	11.9750993377483				1.23295364238411	0.175788079470199	0.237139072847682	10.5139072847682	101.947814569536	26.8540397350993				-0.266172185430464	0.126728476821192	-1.09594701986755	-13.992582781457	38.5064900662252	-17.0002649006623				-0.463470198675497	0.111470198675497	-0.965721854304636	-6.19708609271523	-87.7364238410596	-37.0156291390729				1.26802649006623	0.0674966887417219	0.341933774834437	10.0317880794702	-16.1880794701987	-0.897483443708608				-0.0482119205298013	-0.510834437086093	-0.996238410596026	28.8603973509934	-52.7623841059603	68.125298013245			
51	1020	-0.328158940397351	0.258754966887417	-1.04752317880795	-26.2866225165563	43.2553642384106	20.6550993377483				1.34495364238411	0.0637880794701987	0.637139072847682	16.6739072847682	96.6278145695364	26.2940397350993				-0.394172185430464	0.174728476821192	-1.06394701986755	-5.31258278145695	44.9464900662252	-14.2002649006623				-0.287470198675497	0.175470198675497	-0.949721854304636	11.7229139072848	-51.8964238410596	-16.0156291390729				1.23602649006623	0.0514966887417219	0.437933774834437	-5.0882119205298	-10.5880794701987	3.58251655629139				0.0317880794701987	-0.462834437086093	-1.04423841059603	-20.9796026490066	-22.8023841059603	78.485298013245			
52	1040	-0.248158940397351	0.514754966887417	-1.07952317880795	-2.48662251655629	56.6953642384106	32.4150993377484				1.55295364238411	-0.0482119205298013	0.925139072847682	-3.48609271523179	105.867814569536	13.4140397350993				-0.346172185430464	0.206728476821192	-1.06394701986755	11.487417218543	63.1464900662252	-6.36026490066225				-0.191470198675497	0.207470198675497	-1.17372185430464	41.6829139072848	-7.0964238410596	9.74437086092715				1.28402649006623	0.147496688741722	0.613933774834437	2.4717880794702	14.8919205298013	3.86251655629139				-0.0162119205298013	-0.526834437086093	-1.09223841059603	-11.7396026490066	-7.40238410596027	54.685298013245			
53	1060	-0.088158940397351	0.354754966887417	-1.20752317880795	23.5533774834437	71.2553642384106	42.7750993377484				1.63295364238411	-0.224211920529801	1.08513907284768	-29.8060927152318	54.9078145695364	-0.0259602649006601				-0.170172185430464	0.0947284768211921	-1.17594701986755	33.8874172185431	72.6664900662252	-6.64026490066225				0.0645298013245033	0.175470198675497	-1.34972185430464	57.3629139072848	37.1435761589404	30.1843708609272				1.38002649006623	0.0514966887417219	0.709933774834437	-1.1682119205298	31.1319205298013	3.58251655629139				0.0797880794701987	-0.478834437086093	-1.09223841059603	-11.4596026490066	36.2776158940397	28.645298013245			
54	1080	0.039841059602649	0.258754966887417	-1.17552317880795	34.7533774834437	77.4153642384106	44.1750993377484				1.50495364238411	-0.0322119205298013	0.861139072847682	0.993907284768212	21.8678145695364	-7.30596026490066				-0.0261721854304636	0.0627284768211921	-1.12794701986755	48.4474172185431	85.8264900662252	-3.28026490066225				0.128529801324503	0.271470198675497	-1.46172185430464	47.8429139072848	67.6635761589404	46.9843708609272				1.38002649006623	0.00349668874172187	0.757933774834437	-2.2882119205298	24.9719205298013	3.58251655629139				0.191788079470199	-0.622834437086093	-1.07623841059603	27.4603973509934	42.7176158940397	0.365298013245032			
55	1100	0.247841059602649	0.322754966887417	-1.11152317880795	31.3933774834437	89.7353642384106	42.4950993377484				1.37695364238411	0.191788079470199	0.637139072847682	36.8339072847682	3.94781456953642	-9.54596026490066				0.101827814569536	-0.161271523178808	-1.07994701986755	63.0074172185431	91.1464900662252	1.19973509933775				0.288529801324503	0.319470198675497	-1.42972185430464	54.8429139072848	57.3035761589404	49.5043708609272				1.36402649006623	0.0994966887417219	0.645933774834437	-16.8482119205298	7.89192052980133	-4.25748344370861				0.271788079470199	-0.782834437086093	-1.06023841059603	14.5803973509934	36.5576158940397	-22.874701986755			
56	1120	0.439841059602649	0.306754966887417	-1.20752317880795	45.1133774834437	100.935364238411	36.6150993377484				1.13695364238411	-0.160211920529801	0.541139072847682	26.4739072847682	10.6678145695364	6.13403973509934				0.149827814569536	-0.369271523178808	-1.11194701986755	30.247417218543	104.026490066225	7.07973509933775				0.352529801324503	0.159470198675497	-1.42972185430464	46.4429139072848	50.0235761589404	34.6643708609272				1.28402649006623	0.259496688741722	0.549933774834437	-19.6482119205298	-4.42807947019868	-4.81748344370861				0.191788079470199	-0.702834437086093	-1.12423841059603	-14.5396026490066	46.3576158940397	-23.714701986755			
57	1140	0.359841059602649	0.0827549668874172	-1.17552317880795	50.7133774834437	104.855364238411	31.8550993377483				1.21695364238411	-0.240211920529801	0.765139072847682	-17.4860927152318	6.18781456953642	-0.86596026490066				0.213827814569536	-0.273271523178808	-1.06394701986755	1.40741721854305	113.266490066225	8.47973509933775				0.320529801324503	0.0794701986754967	-1.39772185430464	-5.63708609271523	50.5835761589404	25.9843708609272				1.22002649006623	0.131496688741722	0.549933774834437	-2.2882119205298	5.65192052980133	-0.617483443708608				0.111788079470199	-0.590834437086093	-1.12423841059603	-26.5796026490066	60.9176158940397	-13.354701986755			
58	1160	0.391841059602649	0.178754966887417	-1.09552317880795	26.3533774834437	114.095364238411	21.2150993377483				1.42495364238411	-0.0802119205298013	0.765139072847682	-20.2860927152318	-20.4121854304636	1.65403973509934				0.389827814569536	-0.177271523178808	-1.03194701986755	-23.512582781457	123.906490066225	2.59973509933775				0.176529801324503	0.0474701986754967	-1.30172185430464	-40.0770860927152	69.3435761589404	32.1443708609272				1.26802649006623	0.0994966887417219	0.517933774834437	-1.7282119205298	11.5319205298013	4.42251655629139				0.111788079470199	-0.462834437086093	-1.14023841059603	-20.9796026490066	64.5576158940397	-8.59470198675497			
59	1180	0.391841059602649	0.210754966887417	-1.03152317880795	7.03337748344371	123.615364238411	18.1350993377483				1.26495364238411	-0.0962119205298013	0.429139072847682	-24.7660927152318	-51.7721854304636	9.49403973509934				0.501827814569536	0.0467284768211921	-1.01594701986755	-7.83258278145695	130.626490066225	-1.04026490066225				0.0165298013245033	0.0954701986754967	-1.10972185430464	-40.6370860927152	86.7035761589404	34.9443708609272				1.23602649006623	0.0194966887417219	0.325933774834437	-2.8482119205298	3.41192052980132	7.78251655629139				0.111788079470199	-0.398834437086093	-1.02823841059603	-10.3396026490066	64.8376158940397	-11.394701986755			
60	1200	0.439841059602649	0.114754966887417	-0.999523178807947	-21.5266225165563	131.735364238411	13.9350993377483				1.15295364238411	-0.128211920529801	0.509139072847682	-37.3660927152318	-33.5721854304636	8.65403973509934				0.357827814569536	-0.0492715231788079	-0.91994701986755	22.127417218543	132.586490066225	-0.76026490066225				-0.0954701986754967	0.175470198675497	-0.965721854304636	-7.87708609271523	95.3835761589404	31.3043708609272				1.07602649006623	-0.0445033112582781	0.325933774834437	9.1917880794702	7.89192052980133	9.46251655629139				0.127788079470199	-0.382834437086093	-0.948238410596026	5.34039735099338	78.2776158940397	-28.474701986755			
61	1220	0.423841059602649	0.258754966887417	-0.903523178807947	-26.5666225165563	137.335364238411	14.2150993377483				1.10495364238411	0.0317880794701987	0.477139072847682	-24.4860927152318	-33.2921854304636	-0.0259602649006601				0.293827814569536	-0.129271523178808	-0.88794701986755	20.1674172185431	137.346490066225	1.75973509933775				-0.111470198675497	0.143470198675497	-0.965721854304636	21.8029139072848	111.90357615894	34.3843708609272				1.04402649006623	-0.0605033112582781	0.325933774834437	3.0317880794702	19.3719205298013	6.38251655629139				0.207788079470199	-0.366834437086093	-0.980238410596026	22.7003973509934	90.5976158940397	-43.594701986755			
62	1240	0.503841059602649	0.274754966887417	-0.855523178807947	-5.56662251655629	141.535364238411	14.4950993377483				1.18495364238411	0.0957880794701987	0.413139072847682	-15.5260927152318	-51.7721854304636	-5.34596026490066				0.389827814569536	-0.00127152317880793	-0.74394701986755	15.127417218543	142.106490066225	5.95973509933775				0.000529801324503301	0.0474701986754967	-0.901721854304636	34.4029139072848	121.14357615894	38.3043708609272				1.02802649006623	-0.0445033112582781	0.213933774834437	-4.8082119205298	14.0519205298013	2.18251655629139				0.191788079470199	-0.366834437086093	-1.02823841059603	41.4603973509934	69.5976158940397	-48.634701986755			
63	1260	0.519841059602649	0.0827549668874172	-0.807523178807947	3.39337748344371	142.935364238411	17.8550993377483				0.896953642384106	0.0317880794701987	0.301139072847682	2.11390728476821	-81.7321854304636	-7.86596026490066				0.453827814569536	0.0467284768211921	-0.69594701986755	14.287417218543	141.826490066225	5.11973509933775				0.0805298013245033	-0.000529801324503289	-0.837721854304636	50.0829139072848	120.86357615894	29.6243708609272				0.932026490066225	-0.0285033112582781	0.117933774834437	-16.2882119205298	13.7719205298013	-4.53748344370861				0.143788079470199	-0.382834437086093	-0.820238410596026	24.1003973509934	75.7576158940397	-43.874701986755			
64	1280	0.487841059602649	0.0507549668874172	-0.727523178807947	1.15337748344371	139.575364238411	19.8150993377483				0.752953642384106	0.0317880794701987	0.0771390728476822	19.4739072847682	-62.9721854304636	0.25403973509934				0.437827814569536	0.0307284768211921	-0.61594701986755	17.3674172185431	142.946490066225	4.27973509933775				0.160529801324503	-0.0485298013245033	-0.789721854304636	50.9229139072848	118.06357615894	13.9443708609272				0.836026490066225	0.0194966887417219	0.117933774834437	-24.1282119205298	23.5719205298013	-5.93748344370861				0.111788079470199	-0.318834437086093	-0.724238410596026	14.3003973509934	87.5176158940398	-34.914701986755			
65	1300	0.439841059602649	0.0507549668874172	-0.679523178807947	-6.96662251655629	137.055364238411	18.9750993377483				0.768953642384106	-0.000211920529801304	0.0771390728476822	26.4739072847682	-55.6921854304636	-0.30596026490066				0.421827814569536	0.0147284768211921	-0.61594701986755	4.76741721854305	146.586490066225	4.55973509933775				0.192529801324503	-0.0645298013245033	-0.773721854304636	35.5229139072848	117.50357615894	4.14437086092715				0.740026490066225	0.0354966887417219	0.0699337748344371	-8.1682119205298	31.6919205298013	-3.69748344370861				0.127788079470199	-0.238834437086093	-0.612238410596026	14.3003973509934	81.9176158940397	-36.594701986755			
66	1320	0.423841059602649	0.0347549668874172	-0.631523178807947	-12.5666225165563	135.095364238411	16.7350993377483				0.736953642384106	-0.0482119205298013	0.0451390728476822	-6.28609271523179	-38.6121854304636	-0.30596026490066				0.373827814569536	0.0147284768211921	-0.58394701986755	1.40741721854305	150.786490066225	2.87973509933775				0.208529801324503	-0.000529801324503289	-0.661721854304636	26.8429139072848	117.50357615894	1.06437086092715				0.660026490066225	0.0194966887417219	0.133933774834437	-1.4482119205298	24.1319205298013	-0.897483443708608				0.127788079470199	-0.126834437086093	-0.516238410596026	5.90039735099338	77.4376158940397	-46.114701986755			
67	1340	0.439841059602649	0.0507549668874172	-0.631523178807947	-13.4066225165563	128.655364238411	13.9350993377483				0.656953642384106	0.159788079470199	0.109139072847682	7.15390728476821	-33.0121854304636	-5.06596026490066				0.389827814569536	0.0307284768211921	-0.53594701986755	-6.15258278145695	156.666490066225	-0.48026490066225				0.176529801324503	-0.0325298013245033	-0.533721854304636	33.0029139072848	110.78357615894	1.34437086092715				0.596026490066225	0.00349668874172187	0.197933774834437	-12.6482119205298	21.6119205298013	-1.17748344370861				0.175788079470199	-0.110834437086093	-0.532238410596027	-5.29960264900662	76.3176158940397	-65.994701986755			
68	1360	0.455841059602649	0.146754966887417	-0.567523178807947	-14.5266225165563	122.775364238411	9.45509933774835				0.720953642384106	0.111788079470199	-0.0668609271523178	55.3139072847682	-66.0521854304636	3.89403973509934				0.357827814569536	0.0627284768211921	-0.64794701986755	-6.15258278145695	159.186490066225	-3.56026490066225				0.208529801324503	-0.0165298013245033	-0.501721854304636	26.2829139072848	112.74357615894	3.58437086092715				0.612026490066225	0.0514966887417219	0.181933774834437	-28.6082119205298	13.2119205298013	-5.65748344370861				0.239788079470199	-0.158834437086093	-0.580238410596026	1.14039735099338	82.4776158940397	-72.994701986755			
69	1380	0.423841059602649	0.274754966887417	-0.503523178807947	-10.0466225165563	119.415364238411	8.89509933774834				0.608953642384106	-0.112211920529801	-0.0188609271523178	32.3539072847682	-59.3321854304636	17.6140397350993				0.389827814569536	-0.0972715231788079	-0.72794701986755	-12.592582781457	162.266490066225	-10.0002649006623				0.288529801324503	0.0154701986754967	-0.501721854304636	36.3629139072848	108.26357615894	8.06437086092715				0.596026490066225	0.0994966887417219	0.117933774834437	-24.6882119205298	1.45192052980132	-5.65748344370861				0.255788079470199	-0.190834437086093	-0.548238410596027	19.0603973509934	85.2776158940397	-66.554701986755			
70	1400	0.487841059602649	0.178754966887417	-0.503523178807947	-2.48662251655629	121.095364238411	5.81509933774834				0.576953642384106	0.0317880794701987	-0.0988609271523179	3.79390728476821	-55.9721854304636	2.77403973509934				0.421827814569536	-0.113271523178808	-0.61594701986755	4.48741721854305	165.906490066225	-21.7602649006623				0.288529801324503	-0.0485298013245033	-0.517721854304636	50.3629139072848	118.06357615894	9.74437086092715				0.596026490066225	0.0514966887417219	0.0699337748344371	-10.6882119205298	-7.22807947019868	4.14251655629139				0.223788079470199	-0.190834437086093	-0.532238410596027	14.3003973509934	84.7176158940397	-55.634701986755			
71	1420	0.519841059602649	0.0667549668874172	-0.567523178807947	-2.76662251655629	121.095364238411	6.37509933774834				0.464953642384106	0.111788079470199	-0.178860927152318	11.3539072847682	-52.0521854304636	0.81403973509934				0.469827814569536	-0.00127152317880793	-0.45594701986755	17.3674172185431	140.146490066225	-27.0802649006623				0.272529801324503	-0.0645298013245033	-0.421721854304636	64.0829139072848	128.70357615894	8.90437086092715				0.596026490066225	0.0514966887417219	0.0539337748344371	-6.2082119205298	-15.6280794701987	9.18251655629139				0.175788079470199	-0.174834437086093	-0.548238410596027	1.42039735099338	53.6376158940397	-58.714701986755			
72	1440	0.471841059602649	0.258754966887417	-0.551523178807947	-10.0466225165563	117.175364238411	2.73509933774834				0.640953642384106	-0.000211920529801304	-0.0348609271523178	21.4339072847682	-22.9321854304636	2.21403973509934				0.453827814569536	0.0787284768211921	-0.51994701986755	-1.39258278145695	112.706490066225	-18.1202649006623				0.240529801324503	-0.0325298013245033	-0.421721854304636	69.9629139072848	114.98357615894	6.94437086092715				0.580026490066225	-0.0285033112582781	0.133933774834437	2.1917880794702	-18.9880794701987	12.8225165562914				0.175788079470199	-0.190834437086093	-0.596238410596026	-43.3796026490066	46.6376158940397	-69.914701986755			
73	1460	0.439841059602649	0.386754966887417	-0.503523178807947	7.31337748344371	114.095364238411	-0.624900662251656				0.576953642384106	0.0157880794701987	-0.0188609271523178	23.9539072847682	-47.0121854304636	0.81403973509934				0.437827814569536	0.0947284768211921	-0.50394701986755	-7.27258278145696	119.706490066225	-8.32026490066225				0.224529801324503	-0.0325298013245033	-0.453721854304636	73.6029139072848	102.38357615894	14.7843708609272				0.564026490066225	-0.0445033112582781	0.149933774834437	1.0717880794702	-29.0680794701987	11.1425165562914				0.223788079470199	-0.174834437086093	-0.644238410596026	-38.6196026490066	37.1176158940397	-70.754701986755			
74	1480	0.487841059602649	0.354754966887417	-0.583523178807947	32.7933774834437	105.415364238411	-3.70490066225166				0.480953642384106	0.0797880794701987	-0.114860927152318	27.8739072847682	-47.5721854304636	-7.86596026490066				0.501827814569536	-0.0332715231788079	-0.51994701986755	0.00741721854304636	109.906490066225	0.91973509933775				0.272529801324503	-0.192529801324503	-0.485721854304636	96.0029139072848	93.1435761589404	20.1043708609272				0.596026490066225	-0.0125033112582781	0.0859337748344371	1.6317880794702	-39.1480794701987	13.3825165562914				0.239788079470199	-0.158834437086093	-0.708238410596026	-8.37960264900662	19.4776158940397	-61.234701986755			
75	1500	0.631841059602649	0.146754966887417	-0.519523178807947	42.8733774834437	106.255364238411	-5.94490066225166				0.672953642384106	-0.112211920529801	-0.0348609271523178	32.9139072847682	-9.77218543046358	-5.34596026490066				0.565827814569536	-0.0332715231788079	-0.56794701986755	-12.592582781457	113.546490066225	-4.40026490066225				0.400529801324503	-0.272529801324503	-0.581721854304636	110.842913907285	97.6235761589404	13.3843708609272				0.564026490066225	0.0674966887417219	-0.0100662251655629	-2.5682119205298	-42.5080794701987	14.5025165562914				0.239788079470199	-0.126834437086093	-0.724238410596026	-0.819602649006623	11.9176158940397	-50.314701986755			
76	1520	0.727841059602649	0.114754966887417	-0.519523178807947	53.2333774834437	90.5753642384106	-6.50490066225166				0.704953642384106	-0.0642119205298013	0.269139072847682	25.0739072847682	3.66781456953642	2.77403973509934				0.725827814569536	0.0307284768211921	-0.64794701986755	1.40741721854305	105.706490066225	-1.32026490066225				0.528529801324503	-0.240529801324503	-0.549721854304636	95.4429139072848	81.9435761589404	6.38437086092715				0.548026490066225	-0.0125033112582781	0.0219337748344371	13.3917880794702	-34.1080794701987	17.0225165562914				0.239788079470199	-0.0788344370860927	-0.676238410596026	5.34039735099338	2.67761589403974	-42.194701986755			
77	1540	0.679841059602649	0.0827549668874172	-0.535523178807947	42.3133774834437	69.2953642384106	-7.62490066225166				0.448953642384106	0.0317880794701987	-0.0668609271523178	27.8739072847682	-47.2921854304636	1.09403973509934				0.757827814569536	0.0307284768211921	-0.64794701986755	32.2074172185431	75.1864900662252	-11.4002649006623				0.592529801324503	-0.208529801324503	-0.565721854304636	72.7629139072848	53.6635761589404	1.34437086092715				0.596026490066225	-0.0285033112582781	0.0699337748344371	17.5917880794702	-17.3080794701987	15.9025165562914				0.239788079470199	-0.126834437086093	-0.644238410596026	10.6603973509934	-7.40238410596027	-34.354701986755			
78	1560	0.567841059602649	-0.0132450331125828	-0.487523178807947	37.5533774834437	54.4553642384106	-3.14490066225166				0.512953642384106	0.0317880794701987	-0.0668609271523178	29.2739072847682	-7.25218543046358	-2.54596026490066				0.709827814569536	-0.0172715231788079	-0.59994701986755	58.5274172185431	47.7464900662252	-15.0402649006623				0.624529801324503	-0.240529801324503	-0.565721854304636	54.2829139072848	34.3435761589404	-3.97562913907285				0.628026490066225	0.00349668874172187	0.181933774834437	14.5117880794702	-19.5480794701987	13.9425165562914				0.255788079470199	-0.254834437086093	-0.660238410596027	12.9003973509934	-20.8423841059603	-22.314701986755			
79	1580	0.759841059602649	-0.0772450331125828	-0.535523178807947	26.0733774834437	47.4553642384106	-2.02490066225166				0.816953642384106	-0.0962119205298013	0.237139072847682	22.5539072847682	14.5878145695364	-0.0259602649006601				0.853827814569536	-0.0972715231788079	-0.58394701986755	48.1674172185431	25.0664900662252	-11.6802649006622				0.640529801324503	-0.336529801324503	-0.597721854304636	35.5229139072848	9.1435761589404	-2.57562913907285				0.676026490066225	-0.0125033112582781	0.181933774834437	29.3517880794702	-19.5480794701987	12.8225165562914				0.271788079470199	-0.254834437086093	-0.644238410596026	23.5403973509934	-28.6823841059603	-14.474701986755			
80	1600	0.903841059602649	-0.109245033112583	-0.567523178807947	15.1533774834437	29.8153642384106	-3.14490066225166				0.784953642384106	-0.0642119205298013	0.0451390728476822	14.4339072847682	-20.6921854304636	2.49403973509934				0.885827814569536	-0.225271523178808	-0.43994701986755	36.967417218543	25.3464900662252	-2.72026490066225				0.624529801324503	-0.384529801324503	-0.629721854304636	17.3229139072848	-10.4564238410596	-2.85562913907285				0.772026490066225	-0.108503311258278	0.181933774834437	37.4717880794702	-16.4680794701987	10.0225165562914				0.319788079470199	-0.222834437086093	-0.708238410596026	19.6203973509934	-24.4823841059603	-13.634701986755			
81	1620	0.759841059602649	-0.0612450331125828	-0.519523178807947	17.9533774834437	14.6953642384106	2.73509933774834				0.752953642384106	0.127788079470199	0.0451390728476822	18.9139072847682	-4.17218543046358	-1.42596026490066				0.837827814569536	-0.209271523178808	-0.31194701986755	21.287417218543	17.7864900662252	0.35973509933775				0.640529801324503	-0.336529801324503	-0.629721854304636	7.80291390728477	-7.3764238410596	-7.05562913907285				0.868026490066225	0.00349668874172187	0.229933774834437	22.9117880794702	-6.66807947019868	7.22251655629139				0.415788079470199	-0.286834437086093	-0.724238410596026	33.0603973509934	-20.2823841059603	-12.514701986755			
82	1640	0.791841059602649	-0.0132450331125828	-0.551523178807947	19.6333774834437	17.2153642384106	6.65509933774834				1.04095364238411	-0.0642119205298013	0.221139072847682	31.2339072847682	26.3478145695364	5.29403973509934				0.837827814569536	-0.145271523178808	-0.24794701986755	12.327417218543	12.4664900662252	-0.20026490066225				0.608529801324503	-0.240529801324503	-0.645721854304636	6.40291390728477	-1.2164238410596	-11.2556291390728				0.948026490066225	0.0194966887417219	0.261933774834437	31.3117880794702	-3.02807947019868	6.66251655629139				0.479788079470199	-0.398834437086093	-0.724238410596026	24.9403973509934	-19.7223841059603	-6.63470198675497			
83	1660	0.855841059602649	0.0187549668874172	-0.535523178807947	20.1933774834437	14.9753642384106	0.775099337748344				1.05695364238411	-0.208211920529801	0.205139072847682	20.5939072847682	-16.2121854304636	10.6140397350993				0.981827814569536	-0.177271523178808	-0.18394701986755	-2.51258278145695	14.1464900662252	-1.32026490066225				0.576529801324503	-0.272529801324503	-0.661721854304636	26.2829139072848	6.9035761589404	-4.25562913907285				0.980026490066225	-0.140503311258278	0.229933774834437	38.5917880794702	-5.54807947019868	6.38251655629139				0.511788079470199	-0.318834437086093	-0.772238410596026	20.1803973509934	-20.8423841059603	-8.87470198675497			
84	1680	0.839841059602649	0.00275496688741723	-0.519523178807947	19.0733774834437	11.0553642384106	-3.98490066225166				0.960953642384106	-0.0162119205298013	-0.0668609271523178	14.9939072847682	-33.0121854304636	3.61403973509934				0.997827814569536	-0.113271523178808	-0.15194701986755	-4.19258278145695	16.3864900662252	-4.40026490066225				0.592529801324503	-0.400529801324503	-0.677721854304636	38.8829139072848	8.8635761589404	5.82437086092715				1.01202649006623	-0.124503311258278	0.181933774834437	27.6717880794702	-10.0280794701987	7.50251655629139				0.511788079470199	-0.270834437086093	-0.740238410596026	8.14039735099338	-13.5623841059603	-10.834701986755			
85	1700	0.823841059602649	0.0187549668874172	-0.439523178807947	4.23337748344371	6.0153642384106	-0.904900662251656				0.960953642384106	-0.0482119205298013	0.0611390728476822	18.6339072847682	-8.65218543046358	0.81403973509934				0.789827814569536	-0.0172715231788079	-0.18394701986755	4.20741721854305	14.7064900662252	-8.60026490066225				0.624529801324503	-0.336529801324503	-0.709721854304636	35.8029139072848	6.3435761589404	6.10437086092715				1.01202649006623	-0.0445033112582781	0.213933774834437	16.1917880794702	-7.22807947019868	8.06251655629139				0.559788079470199	-0.350834437086093	-0.756238410596026	7.02039735099338	-9.64238410596027	-6.07470198675497			
86	1720	0.855841059602649	0.00275496688741723	-0.391523178807947	2.83337748344371	8.5353642384106	4.13509933774834				1.00895364238411	-0.192211920529801	0.205139072847682	11.0739072847682	-3.61218543046358	5.01403973509934				0.837827814569536	-0.0652715231788079	-0.29594701986755	6.72741721854305	13.0264900662252	-8.04026490066225				0.608529801324503	-0.320529801324503	-0.709721854304636	19.5629139072848	4.9435761589404	3.58437086092715				0.964026490066225	-0.124503311258278	0.229933774834437	15.9117880794702	-11.1480794701987	6.38251655629139				0.559788079470199	-0.350834437086093	-0.772238410596026	5.34039735099338	-13.2823841059603	-3.83470198675497			
87	1740	0.871841059602649	-0.0452450331125828	-0.391523178807947	-0.246622516556291	7.9753642384106	4.13509933774834				0.944953642384106	-0.128211920529801	0.0931390728476822	-4.04609271523179	-22.9321854304636	1.65403973509934				1.01382781456954	-0.145271523178808	-0.34394701986755	7.84741721854305	11.3464900662252	-4.40026490066225				0.544529801324503	-0.384529801324503	-0.709721854304636	11.1629139072848	-0.0964238410596001	3.86437086092715				0.932026490066225	-0.156503311258278	0.181933774834437	10.5917880794702	-13.6680794701987	7.50251655629139				0.479788079470199	-0.270834437086093	-0.740238410596026	-5.01960264900662	-0.962384105960265	-11.114701986755			
88	1760	0.871841059602649	0.0187549668874172	-0.407523178807947	-15.3666225165563	6.8553642384106	6.65509933774834				0.928953642384106	0.111788079470199	-0.0668609271523178	-6.84609271523179	-13.6921854304636	-2.82596026490066				0.997827814569536	-0.145271523178808	-0.32794701986755	-4.19258278145695	4.34649006622517	3.15973509933775				0.560529801324503	-0.416529801324503	-0.677721854304636	4.72291390728477	-2.0564238410596	3.58437086092715				0.900026490066225	-0.0285033112582781	0.181933774834437	-4.2482119205298	-11.7080794701987	6.66251655629139				0.463788079470199	-0.254834437086093	-0.724238410596026	3.38039735099338	4.63761589403974	-14.754701986755			
89	1780	0.871841059602649	0.0987549668874172	-0.327523178807947	-17.8866225165563	8.2553642384106	8.61509933774835				1.00895364238411	-0.0802119205298013	0.0931390728476822	0.993907284768212	10.1078145695364	0.25403973509934				0.853827814569536	-0.0972715231788079	-0.37594701986755	-12.872582781457	-2.65350993377483	4.83973509933775				0.560529801324503	-0.304529801324503	-0.709721854304636	-3.11708609271523	-3.4564238410596	2.46437086092715				0.916026490066225	-0.0285033112582781	0.197933774834437	-6.7682119205298	-3.58807947019868	3.86251655629139				0.463788079470199	-0.318834437086093	-0.756238410596026	7.86039735099338	-1.52238410596026	-13.634701986755			
90	1800	0.871841059602649	0.146754966887417	-0.375523178807947	-10.6066225165563	11.8953642384106	8.33509933774834				0.976953642384106	-0.0962119205298013	0.141139072847682	-7.12609271523179	-3.05218543046358	-0.86596026490066				0.853827814569536	-0.0812715231788079	-0.35994701986755	-16.232582781457	-3.49350993377483	0.35973509933775				0.624529801324503	-0.304529801324503	-0.677721854304636	3.32291390728477	2.9835761589404	1.34437086092715				0.916026490066225	-0.108503311258278	0.213933774834437	-6.2082119205298	-0.228079470198675	-0.0574834437086077				0.447788079470199	-0.302834437086093	-0.772238410596026	7.58039735099338	-4.88238410596027	-8.03470198675497			
91	1820	0.871841059602649	0.146754966887417	-0.359523178807947	-5.56662251655629	9.0953642384106	4.41509933774834				0.960953642384106	0.0157880794701987	0.0451390728476822	-19.1660927152318	-11.1721854304636	-1.98596026490066				0.917827814569536	-0.00127152317880793	-0.29594701986755	-22.112582781457	2.94649006622517	-0.76026490066225				0.656529801324503	-0.352529801324503	-0.613721854304636	2.48291390728477	3.8235761589404	2.18437086092715				0.964026490066225	-0.0445033112582781	0.149933774834437	-8.4482119205298	-0.788079470198675	0.782516556291392				0.463788079470199	-0.334834437086093	-0.740238410596026	-2.49960264900662	0.997615894039735	-5.79470198675497			
92	1840	0.887841059602649	0.114754966887417	-0.359523178807947	-5.00662251655629	5.7353642384106	1.61509933774834				0.976953642384106	0.0797880794701987	-0.0508609271523178	-6.56609271523179	-11.4521854304636	-3.10596026490066				0.917827814569536	0.0787284768211921	-0.26394701986755	-20.712582781457	3.50649006622517	-1.04026490066225				0.656529801324503	-0.304529801324503	-0.645721854304636	4.16291390728477	-0.3764238410596	1.90437086092715				0.964026490066225	0.0194966887417219	0.149933774834437	-14.3282119205298	0.891920529801325	1.06251655629139				0.479788079470199	-0.350834437086093	-0.788238410596027	0.300397350993377	-2.08238410596027	-3.55470198675497			
93	1860	0.903841059602649	0.0987549668874172	-0.375523178807947	1.15337748344371	6.5753642384106	2.17509933774834				1.00895364238411	-0.000211920529801304	-0.0188609271523178	3.23390728476821	-5.85218543046358	-1.42596026490066				0.917827814569536	0.142728476821192	-0.32794701986755	-10.632582781457	3.22649006622517	-3.28026490066225				0.688529801324503	-0.304529801324503	-0.661721854304636	3.04291390728477	0.1835761589404	4.70437086092715				0.948026490066225	-0.0125033112582781	0.213933774834437	-10.1282119205298	-2.74807947019868	0.502516556291392				0.431788079470199	-0.334834437086093	-0.820238410596026	-0.819602649006623	-4.88238410596027	0.925298013245032			
94	1880	0.903841059602649	0.0667549668874172	-0.359523178807947	0.0333774834437086	6.5753642384106	1.89509933774834				0.992953642384106	-0.0482119205298013	0.141139072847682	-2.08609271523179	1.70781456953642	-1.42596026490066				0.869827814569536	0.0467284768211921	-0.34394701986755	1.40741721854305	5.74649006622517	-4.68026490066225				0.688529801324503	-0.320529801324503	-0.661721854304636	2.76291390728477	3.2635761589404	8.90437086092715				0.948026490066225	-0.0445033112582781	0.181933774834437	-6.7682119205298	-3.58807947019868	1.06251655629139				0.415788079470199	-0.254834437086093	-0.820238410596026	-0.539602649006623	2.39761589403974	4.56529801324503			
95	1900	0.887841059602649	0.0347549668874172	-0.391523178807947	-1.36662251655629	5.4553642384106	0.215099337748344				1.02495364238411	-0.0322119205298013	0.0451390728476822	-4.88609271523179	-6.97218543046358	-0.585960264900661				0.917827814569536	-0.00127152317880793	-0.32794701986755	12.327417218543	8.82649006622517	-4.68026490066225				0.688529801324503	-0.336529801324503	-0.661721854304636	3.88291390728477	-0.6564238410596	11.9843708609272				0.980026490066225	-0.0285033112582781	0.149933774834437	-2.5682119205298	-3.58807947019868	2.18251655629139				0.415788079470199	-0.238834437086093	-0.772238410596026	-2.49960264900662	4.35761589403974	7.36529801324503			
96	1920	0.839841059602649	0.0827549668874172	-0.375523178807947	-1.64662251655629	-0.144635761589404	1.61509933774834				0.960953642384106	0.0317880794701987	0.0131390728476822	-0.686092715231788	-17.6121854304636	-0.86596026490066				0.901827814569536	-0.0812715231788079	-0.31194701986755	16.807417218543	6.02649006622517	-3.00026490066225				0.672529801324503	-0.368529801324503	-0.677721854304636	-0.597086092715232	-7.6564238410596	9.18437086092715				0.948026490066225	-0.0125033112582781	0.133933774834437	-3.1282119205298	-2.46807947019868	1.34251655629139				0.399788079470199	-0.270834437086093	-0.788238410596027	-1.09960264900662	3.23761589403974	5.40529801324503			
97	1940	0.871841059602649	0.114754966887417	-0.407523178807947	-3.88662251655629	-1.2646357615894	3.29509933774834				0.928953642384106	-0.000211920529801304	0.0131390728476822	3.23390728476821	1.70781456953642	-2.54596026490066				0	0	0	0	0	0				0.656529801324503	-0.336529801324503	-0.693721854304636	-9.83708609271523	-11.8564238410596	5.26437086092715				0.916026490066225	-0.0285033112582781	0.197933774834437	-1.1682119205298	-1.62807947019868	-2.29748344370861				0.415788079470199	-0.318834437086093	-0.772238410596026	-10.0596026490066	-0.122384105960265	5.40529801324503			
98	1960	0	0	0	0	0	0				0	0	0	0	0	0				0	0	0	0	0	0				0.608529801324503	-0.304529801324503	-0.677721854304636	-14.3170860927152	-12.1364238410596	0.784370860927152				0	0	0	0	0	0				0.431788079470199	-0.302834437086093	-0.740238410596026	-16.4996026490066	-0.122384105960265	9.04529801324503			
99	1980	0.887841059602649	0.0507549668874172	-0.391523178807947	4.51337748344371	0.975364238410596	1.05509933774834				1.02495364238411	0.0157880794701987	0.0611390728476822	5.19390728476821	-13.1321854304636	-1.42596026490066				0.901827814569536	-0.0492715231788079	-0.32794701986755	-7.27258278145696	8.26649006622517	2.31973509933775				0.592529801324503	-0.304529801324503	-0.645721854304636	-12.6370860927152	-9.8964238410596	-3.97562913907285				0.932026490066225	-0.0445033112582781	0.181933774834437	-2.5682119205298	3.41192052980132	-6.21748344370861				0.431788079470199	-0.238834437086093	-0.772238410596026	-17.0596026490066	2.11761589403974	8.76529801324503			
100	2000	0.839841059602649	0.0507549668874172	-0.343523178807947	7.03337748344371	-1.8246357615894	-0.904900662251656				0.944953642384106	0.0157880794701987	-0.0828609271523179	8.83390728476821	-14.5321854304636	-0.86596026490066				0.885827814569536	-0.00127152317880793	-0.34394701986755	-9.23258278145695	4.34649006622517	3.71973509933775				0.640529801324503	-0.336529801324503	-0.661721854304636	-17.3970860927152	-13.8164238410596	-3.97562913907285				0.948026490066225	0.00349668874172187	0.149933774834437	-5.0882119205298	3.13192052980133	-7.33748344370861				0.431788079470199	-0.222834437086093	-0.772238410596026	-10.0596026490066	1.55761589403974	2.32529801324503			
101	2020	0.823841059602649	0.0187549668874172	-0.375523178807947	-0.526622516556291	-0.424635761589404	2.45509933774835				0.912953642384106	0.0157880794701987	-0.0828609271523179	10.2339072847682	-10.8921854304636	-2.26596026490066				0.853827814569536	-0.0172715231788079	-0.40794701986755	-2.79258278145695	0.426490066225167	0.91973509933775				0.624529801324503	-0.320529801324503	-0.661721854304636	-22.1570860927152	-13.5364238410596	-3.41562913907285				0.948026490066225	0.00349668874172187	0.149933774834437	-3.6882119205298	0.0519205298013249	-6.77748344370861				0.447788079470199	-0.206834437086093	-0.836238410596026	-3.89960264900662	2.39761589403974	-0.194701986754968			
102	2040	0.903841059602649	0.0187549668874172	-0.423523178807947	0.593377483443709	-0.984635761589404	4.69509933774834				0.944953642384106	0.0477880794701987	-0.0508609271523178	8.27390728476821	-2.21218543046358	-2.82596026490066				0.885827814569536	0.0467284768211921	-0.39194701986755	12.607417218543	1.82649006622517	-2.44026490066225				0.576529801324503	-0.272529801324503	-0.677721854304636	-21.8770860927152	-9.0564238410596	-4.25562913907285				0.964026490066225	0.00349668874172187	0.181933774834437	-0.888211920529802	-1.62807947019868	-4.25748344370861				0.431788079470199	-0.254834437086093	-0.820238410596026	-1.93960264900662	0.997615894039735	1.20529801324503			
103	2060	0.887841059602649	0.114754966887417	-0.423523178807947	0.593377483443709	-2.3846357615894	3.57509933774835				1.04095364238411	0.0317880794701987	-0.0188609271523178	10.7939072847682	-3.33218543046358	-0.585960264900661				0.901827814569536	0.0627284768211921	-0.37594701986755	15.687417218543	4.34649006622517	-2.72026490066225				0.608529801324503	-0.240529801324503	-0.661721854304636	-13.1970860927152	-4.0164238410596	-1.73562913907285				0.996026490066225	0.0194966887417219	0.181933774834437	3.3117880794702	0.891920529801325	-2.85748344370861				0.431788079470199	-0.254834437086093	-0.852238410596026	-13.9796026490066	5.19761589403974	4.28529801324503			
104	2080	0.871841059602649	0.0987549668874172	-0.391523178807947	10.3933774834437	-3.5046357615894	-0.344900662251656				1.07295364238411	-0.000211920529801304	-0.00286092715231785	12.7539072847682	-3.61218543046358	3.05403973509934				0.933827814569536	-0.0332715231788079	-0.39194701986755	16.5274172185431	4.34649006622517	-1.60026490066225				0.608529801324503	-0.256529801324503	-0.645721854304636	2.20291390728477	1.3035761589404	-0.895629139072848				0.996026490066225	-0.0125033112582781	0.117933774834437	2.4717880794702	-4.98807947019868	-2.85748344370861				0.447788079470199	-0.222834437086093	-0.868238410596026	-17.0596026490066	8.27761589403974	5.96529801324503			
105	2100	0.839841059602649	0.0987549668874172	-0.407523178807947	14.5933774834437	-2.6646357615894	-2.30490066225166				0.976953642384106	0.0317880794701987	-0.0508609271523178	16.6739072847682	-11.7321854304636	0.25403973509934				0.885827814569536	-0.0812715231788079	-0.40794701986755	19.327417218543	5.74649006622517	-3.00026490066225				0.576529801324503	-0.288529801324503	-0.645721854304636	3.04291390728477	2.7035761589404	-1.73562913907285				0.948026490066225	0.00349668874172187	0.133933774834437	1.0717880794702	1.17192052980133	-2.01748344370861				0.399788079470199	-0.174834437086093	-0.852238410596026	-13.6996026490066	2.39761589403974	0.925298013245032			
106	2120	0.839841059602649	0.0667549668874172	-0.391523178807947	21.0333774834437	3.4953642384106	-0.904900662251656				0.960953642384106	-0.0162119205298013	-0.0668609271523178	15.5539072847682	-6.13218543046358	-1.70596026490066				0.853827814569536	-0.0652715231788079	-0.39194701986755	12.887417218543	6.58649006622517	-3.56026490066225				0.528529801324503	-0.304529801324503	-0.661721854304636	0.802913907284768	5.5035761589404	-2.01562913907285				0.884026490066225	-0.0125033112582781	0.165933774834437	2.7517880794702	4.25192052980133	-1.73748344370861				0.383788079470199	-0.206834437086093	-0.852238410596026	-10.8996026490066	0.157615894039735	-4.11470198675497			
107	2140	0.871841059602649	-0.0132450331125828	-0.407523178807947	19.0733774834437	5.4553642384106	1.05509933774834				1.04095364238411	-0.0322119205298013	-0.00286092715231785	9.39390728476821	-3.33218543046358	2.21403973509934				0.885827814569536	-0.0652715231788079	-0.32794701986755	11.767417218543	4.90649006622517	-1.32026490066225				0.544529801324503	-0.272529801324503	-0.661721854304636	6.12291390728477	8.3035761589404	-3.13562913907285				0.932026490066225	-0.0605033112582781	0.165933774834437	2.7517880794702	7.05192052980133	-1.45748344370861				0.431788079470199	-0.222834437086093	-0.852238410596026	-4.45960264900662	-1.80238410596026	-2.15470198675497			
108	2160	0.871841059602649	0.00275496688741723	-0.407523178807947	13.4733774834437	4.0553642384106	1.61509933774834				1.00895364238411	-0.000211920529801304	-0.0348609271523178	14.4339072847682	-15.3721854304636	2.49403973509934				0.885827814569536	-0.0492715231788079	-0.32794701986755	8.12741721854305	6.58649006622517	-1.04026490066225				0.592529801324503	-0.288529801324503	-0.661721854304636	7.52291390728477	9.9835761589404	-3.41562913907285				0.980026490066225	-0.0445033112582781	0.165933774834437	4.9917880794702	6.77192052980133	0.222516556291392				0.431788079470199	-0.238834437086093	-0.868238410596026	-5.29960264900662	0.437615894039735	-1.59470198675497			
109	2180	0.855841059602649	0.0347549668874172	-0.455523178807947	6.75337748344371	2.6553642384106	0.775099337748344				0.944953642384106	-0.0482119205298013	-0.0828609271523179	13.5939072847682	-15.9321854304636	-1.70596026490066				0.901827814569536	-0.0492715231788079	-0.32794701986755	8.12741721854305	5.18649006622517	-1.32026490066225				0.624529801324503	-0.336529801324503	-0.645721854304636	9.48291390728477	11.6635761589404	-0.0556291390728476				0.964026490066225	-0.0285033112582781	0.149933774834437	3.0317880794702	3.69192052980133	0.222516556291392				0.431788079470199	-0.222834437086093	-0.868238410596026	-0.819602649006623	-0.122384105960265	-2.71470198675497			
110	2200	0.839841059602649	0.0507549668874172	-0.455523178807947	7.31337748344371	3.7753642384106	-1.18490066225166				0.960953642384106	-0.0322119205298013	-0.0188609271523178	7.99390728476821	-3.05218543046358	-0.0259602649006601				0.917827814569536	-0.0492715231788079	-0.29594701986755	2.80741721854305	6.30649006622517	-1.32026490066225				0.624529801324503	-0.320529801324503	-0.677721854304636	19.8429139072848	10.8235761589404	1.62437086092715				0.948026490066225	-0.0445033112582781	0.117933774834437	3.3117880794702	2.29192052980133	2.74251655629139				0.415788079470199	-0.190834437086093	-0.852238410596026	-0.259602649006623	-4.32238410596027	-6.91470198675497			
111	2220	0.871841059602649	0.0187549668874172	-0.439523178807947	11.2333774834437	-0.424635761589404	-2.86490066225166				0.960953642384106	-0.0322119205298013	-0.0508609271523178	11.0739072847682	-8.65218543046358	0.81403973509934				0.901827814569536	-0.0332715231788079	-0.29594701986755	1.40741721854305	6.02649006622517	-1.32026490066225				0.624529801324503	-0.336529801324503	-0.677721854304636	18.4429139072848	5.7835761589404	0.504370860927152				0.932026490066225	-0.0605033112582781	0.149933774834437	7.7917880794702	2.29192052980133	3.30251655629139				0.399788079470199	-0.238834437086093	-0.852238410596026	0.580397350993377	-6.28238410596027	-6.35470198675497			
112	2240	0.839841059602649	0.00275496688741723	-0.455523178807947	10.6733774834437	-2.9446357615894	-2.58490066225166				0.928953642384106	-0.0802119205298013	-0.0988609271523179	7.15390728476821	-7.53218543046358	-0.86596026490066				0.869827814569536	-0.0812715231788079	-0.31194701986755	5.04741721854305	1.82649006622517	-3.28026490066225				0.608529801324503	-0.368529801324503	-0.677721854304636	12.8429139072848	2.1435761589404	2.46437086092715				0.916026490066225	-0.0765033112582781	0.165933774834437	8.9117880794702	0.611920529801325	1.90251655629139				0.415788079470199	-0.254834437086093	-0.820238410596026	7.30039735099338	-11.6023841059603	-4.11470198675497			
113	2260	0.823841059602649	-0.0132450331125828	-0.407523178807947	4.51337748344371	-2.9446357615894	-1.18490066225166				0.960953642384106	-0.0322119205298013	-0.0508609271523178	-0.686092715231788	1.42781456953642	-0.0259602649006601				0.885827814569536	-0.0812715231788079	-0.29594701986755	6.72741721854305	0.426490066225167	-3.28026490066225				0.592529801324503	-0.384529801324503	-0.693721854304636	9.76291390728477	-0.3764238410596	3.86437086092715				0.932026490066225	-0.0765033112582781	0.149933774834437	5.8317880794702	-0.788079470198675	0.782516556291392				0.415788079470199	-0.254834437086093	-0.804238410596027	4.50039735099338	-13.8423841059603	-2.99470198675497			
114	2280	0.839841059602649	-0.0612450331125828	-0.407523178807947	0.0333774834437086	-1.5446357615894	-0.904900662251656				0.976953642384106	-0.0322119205298013	-0.0348609271523178	-0.966092715231788	-1.65218543046358	1.09403973509934				0.901827814569536	-0.0812715231788079	-0.31194701986755	-0.832582781456954	-2.65350993377483	-1.04026490066225				0.592529801324503	-0.352529801324503	-0.677721854304636	-0.877086092715232	-6.2564238410596	1.62437086092715				0.948026490066225	-0.0605033112582781	0.149933774834437	2.7517880794702	0.611920529801325	1.06251655629139				0.431788079470199	-0.254834437086093	-0.804238410596027	1.14039735099338	-12.7223841059603	-5.51470198675497			
115	2300	0.871841059602649	-0.0132450331125828	-0.439523178807947	-4.16662251655629	-0.704635761589404	0.215099337748344				0.992953642384106	-0.0162119205298013	-0.0668609271523178	-0.686092715231788	-4.73218543046358	0.25403973509934				0.933827814569536	-0.0972715231788079	-0.32794701986755	-2.79258278145695	-5.45350993377483	0.91973509933775				0.592529801324503	-0.320529801324503	-0.677721854304636	-5.63708609271523	-9.6164238410596	1.34437086092715				0.964026490066225	-0.0445033112582781	0.149933774834437	0.791788079470198	0.331920529801325	1.34251655629139				0.431788079470199	-0.286834437086093	-0.788238410596027	6.18039735099338	-9.92238410596027	-4.39470198675497			
116	2320	0.855841059602649	0.00275496688741723	-0.407523178807947	-8.92662251655629	-0.984635761589404	1.05509933774834				0.976953642384106	-0.0322119205298013	-0.0828609271523179	1.27390728476821	-6.97218543046358	-0.30596026490066				0.917827814569536	-0.0972715231788079	-0.34394701986755	-4.75258278145695	-7.13350993377484	0.0797350993377501				0.608529801324503	-0.320529801324503	-0.677721854304636	0.802913907284768	-8.7764238410596	1.62437086092715				0.996026490066225	-0.0605033112582781	0.149933774834437	1.0717880794702	-2.74807947019868	1.34251655629139				0.447788079470199	-0.286834437086093	-0.804238410596027	8.98039735099338	-6.00238410596027	-1.03470198675497			
117	2340	0.855841059602649	0.0187549668874172	-0.391523178807947	-7.52662251655629	0.975364238410596	2.73509933774834				0.976953642384106	-0.0482119205298013	-0.0828609271523179	-4.04609271523179	2.54781456953642	-0.30596026490066				0.901827814569536	-0.0812715231788079	-0.32794701986755	-5.87258278145695	-6.85350993377483	-0.48026490066225				0.592529801324503	-0.336529801324503	-0.693721854304636	6.40291390728477	-4.8564238410596	0.784370860927152				0.964026490066225	-0.0445033112582781	0.197933774834437	1.3517880794702	-4.42807947019868	1.90251655629139				0.431788079470199	-0.270834437086093	-0.804238410596027	1.98039735099338	-4.32238410596027	1.20529801324503			
118	2360	0.871841059602649	0.00275496688741723	-0.391523178807947	-4.72662251655629	3.2153642384106	3.01509933774834				1.00895364238411	-0.0162119205298013	-0.0348609271523178	-12.7260927152318	7.02781456953642	-0.30596026490066				0.917827814569536	-0.0652715231788079	-0.31194701986755	-12.312582781457	-5.17350993377483	-0.76026490066225				0.576529801324503	-0.352529801324503	-0.693721854304636	1.08291390728477	-1.7764238410596	1.06437086092715				0.932026490066225	-0.0445033112582781	0.181933774834437	-2.8482119205298	-4.70807947019868	1.34251655629139				0.415788079470199	-0.238834437086093	-0.804238410596027	-1.65960264900662	-0.122384105960265	1.20529801324503			
119	2380	0.903841059602649	0.0507549668874172	-0.423523178807947	-9.48662251655629	3.4953642384106	1.33509933774834				1.02495364238411	0.0317880794701987	-0.0188609271523178	-10.7660927152318	1.70781456953642	1.37403973509934				0.917827814569536	-0.0332715231788079	-0.31194701986755	-10.072582781457	-2.37350993377483	-0.48026490066225				0.592529801324503	-0.336529801324503	-0.677721854304636	-2.27708609271523	-2.0564238410596	1.62437086092715				0.948026490066225	-0.0285033112582781	0.149933774834437	-4.5282119205298	-2.46807947019868	0.222516556291392				0.431788079470199	-0.238834437086093	-0.804238410596027	1.98039735099338	3.23761589403974	1.76529801324503			
120	2400	0.887841059602649	0.0827549668874172	-0.407523178807947	-7.52662251655629	2.6553642384106	-1.18490066225166				0.976953642384106	-0.000211920529801304	-0.0348609271523178	-4.32609271523179	-6.97218543046358	1.09403973509934				0.869827814569536	-0.0172715231788079	-0.31194701986755	-7.27258278145696	-0.973509933774833	-0.76026490066225				0.608529801324503	-0.272529801324503	-0.661721854304636	-3.95708609271523	-3.4564238410596	-0.615629139072848				0.948026490066225	-0.0285033112582781	0.181933774834437	-2.8482119205298	2.29192052980133	1.62251655629139				0.431788079470199	-0.238834437086093	-0.804238410596027	2.26039735099338	3.23761589403974	2.32529801324503			
121	2420	0.855841059602649	0.0667549668874172	-0.375523178807947	-2.20662251655629	-0.424635761589404	-2.30490066225166				0.960953642384106	-0.000211920529801304	-0.0508609271523178	-1.24609271523179	-1.93218543046358	0.25403973509934				0.869827814569536	-0.0332715231788079	-0.32794701986755	-4.75258278145695	-1.25350993377483	-1.04026490066225				0.624529801324503	-0.272529801324503	-0.645721854304636	-1.99708609271523	-4.0164238410596	-2.29562913907285				0.932026490066225	-0.0125033112582781	0.197933774834437	-5.3682119205298	-0.228079470198675	1.90251655629139				0.431788079470199	-0.238834437086093	-0.804238410596027	1.70039735099338	1.83761589403974	-1.59470198675497			
122	2440	0.855841059602649	0.0347549668874172	-0.343523178807947	-0.526622516556291	-1.8246357615894	-0.624900662251656				0.944953642384106	0.0157880794701987	0.0131390728476822	0.433907284768212	-1.09218543046358	0.81403973509934				0.885827814569536	-0.0332715231788079	-0.34394701986755	-1.95258278145695	-1.81350993377483	-1.88026490066225				0.624529801324503	-0.288529801324503	-0.629721854304636	-1.15708609271523	-1.7764238410596	-1.73562913907285				0.932026490066225	-0.0125033112582781	0.197933774834437	-3.9682119205298	-2.46807947019868	2.46251655629139				0.415788079470199	-0.190834437086093	-0.820238410596026	-0.259602649006623	3.23761589403974	-2.99470198675497			
123	2460	0.903841059602649	0.0187549668874172	-0.375523178807947	1.71337748344371	-2.6646357615894	-0.624900662251656				0.960953642384106	0.0317880794701987	-0.0348609271523178	-0.406092715231788	-3.61218543046358	1.65403973509934				0.933827814569536	-0.0172715231788079	-0.35994701986755	-1.67258278145695	-4.89350993377483	-3.28026490066225				0.656529801324503	-0.304529801324503	-0.629721854304636	1.64291390728477	-2.6164238410596	-0.0556291390728476				0.916026490066225	0.00349668874172187	0.181933774834437	-1.1682119205298	-1.34807947019868	3.02251655629139				0.399788079470199	-0.190834437086093	-0.820238410596026	4.22039735099338	1.83761589403974	-4.39470198675497			
124	2480	0.903841059602649	0.0347549668874172	-0.407523178807947	-1.36662251655629	-4.6246357615894	-2.02490066225166				0.976953642384106	0.0157880794701987	-0.0188609271523178	-0.686092715231788	-2.21218543046358	2.49403973509934				0.901827814569536	-0.0172715231788079	-0.35994701986755	4.20741721854305	-5.73350993377484	-4.12026490066225				0.640529801324503	-0.288529801324503	-0.645721854304636	0.242913907284768	-2.3364238410596	0.784370860927152				0.932026490066225	0.00349668874172187	0.181933774834437	2.1917880794702	0.331920529801325	3.02251655629139				0.399788079470199	-0.270834437086093	-0.820238410596026	9.54039735099338	-0.402384105960265	-2.43470198675497			
125	2500	0.871841059602649	0.0667549668874172	-0.375523178807947	0.873377483443709	-4.6246357615894	-2.58490066225166				0.976953642384106	-0.0162119205298013	-0.00286092715231785	0.153907284768212	-3.05218543046358	1.09403973509934				0.885827814569536	-0.0332715231788079	-0.31194701986755	2.24741721854305	-4.61350993377483	-3.84026490066225				0.640529801324503	-0.320529801324503	-0.645721854304636	2.76291390728477	2.7035761589404	1.90437086092715				0.932026490066225	-0.0285033112582781	0.181933774834437	6.6717880794702	0.0519205298013249	3.02251655629139				0.399788079470199	-0.254834437086093	-0.820238410596026	2.26039735099338	-3.20238410596026	-1.59470198675497			
126	2520	0.855841059602649	0.0827549668874172	-0.407523178807947	2.27337748344371	-4.0646357615894	-3.14490066225166				0.960953642384106	-0.0322119205298013	-0.0188609271523178	-3.48609271523179	1.42781456953642	3.33403973509934				0.869827814569536	-0.0332715231788079	-0.31194701986755	0.847417218543046	-4.89350993377483	-3.84026490066225				0.608529801324503	-0.336529801324503	-0.645721854304636	3.32291390728477	4.3835761589404	1.62437086092715				0.932026490066225	-0.0605033112582781	0.181933774834437	7.2317880794702	2.29192052980133	2.46251655629139				0.399788079470199	-0.238834437086093	-0.804238410596027	-3.61960264900662	-1.52238410596026	-1.87470198675497			
127	2540	0.871841059602649	0.0507549668874172	-0.391523178807947	3.39337748344371	-4.9046357615894	-2.02490066225166				1.00895364238411	-0.0162119205298013	-0.0348609271523178	-6.56609271523179	2.26781456953642	5.01403973509934				0.885827814569536	-0.0172715231788079	-0.31194701986755	-1.11258278145695	-5.45350993377483	-5.24026490066225				0.624529801324503	-0.320529801324503	-0.645721854304636	-1.99708609271523	2.1435761589404	1.34437086092715				0.932026490066225	-0.0765033112582781	0.197933774834437	7.7917880794702	5.65192052980133	1.34251655629139				0.399788079470199	-0.254834437086093	-0.772238410596026	2.82039735099338	-0.122384105960265	-2.99470198675497			
128	2560	0.903841059602649	0.0347549668874172	-0.423523178807947	5.35337748344371	-6.0246357615894	-3.14490066225166				0.960953642384106	-0.000211920529801304	-0.0508609271523178	-2.08609271523179	-7.53218543046358	0.53403973509934				0.949827814569536	0.0147284768211921	-0.42394701986755	-15.392582781457	-2.09350993377483	-8.32026490066225				0.640529801324503	-0.320529801324503	-0.661721854304636	-1.99708609271523	-1.4964238410596	-2.85562913907285				0.964026490066225	-0.0605033112582781	0.181933774834437	6.9517880794702	5.09192052980133	0.782516556291392				0.399788079470199	-0.286834437086093	-0.772238410596026	7.30039735099338	2.95761589403974	-3.27470198675497			
129	2580	0.887841059602649	0.0187549668874172	-0.391523178807947	0.313377483443709	-6.8646357615894	-3.14490066225166				0.976953642384106	-0.0322119205298013	-0.0668609271523178	-2.08609271523179	-6.13218543046358	-0.30596026490066				0.901827814569536	-0.0492715231788079	-0.24794701986755	18.2074172185431	9.94649006622517	-8.88026490066225				0.640529801324503	-0.368529801324503	-0.661721854304636	-1.15708609271523	1.5835761589404	-2.57562913907285				0.964026490066225	-0.0925033112582781	0.181933774834437	8.0717880794702	2.57192052980133	0.502516556291392				0.415788079470199	-0.302834437086093	-0.772238410596026	3.38039735099338	6.03761589403974	-4.67470198675497			
130	2600	0.855841059602649	0.00275496688741723	-0.391523178807947	-1.92662251655629	-3.2246357615894	-2.30490066225166				0.960953642384106	-0.0162119205298013	-0.0508609271523178	0.433907284768212	-6.69218543046358	-2.26596026490066				0.917827814569536	-0.0172715231788079	-0.26394701986755	5.88741721854305	-8.25350993377483	-5.52026490066225				0.592529801324503	-0.336529801324503	-0.645721854304636	1.08291390728477	4.6635761589404	-0.615629139072848				0.964026490066225	-0.0765033112582781	0.181933774834437	6.6717880794702	-3.30807947019868	-0.337483443708608				0.431788079470199	-0.254834437086093	-0.772238410596026	-3.05960264900662	10.7976158940397	-8.59470198675497			
131	2620	0.871841059602649	0.00275496688741723	-0.423523178807947	-6.12662251655629	-2.6646357615894	-2.30490066225166				0.992953642384106	0.0157880794701987	-0.0828609271523179	-1.80609271523179	-3.61218543046358	-1.98596026490066				0.901827814569536	-0.0332715231788079	-0.32794701986755	1.96741721854305	-7.13350993377484	-4.40026490066225				0.592529801324503	-0.304529801324503	-0.677721854304636	3.88291390728477	1.8635761589404	-0.335629139072848				0.948026490066225	-0.0605033112582781	0.165933774834437	4.7117880794702	-2.18807947019868	0.222516556291392				0.431788079470199	-0.206834437086093	-0.820238410596026	-4.73960264900662	13.0376158940397	-12.794701986755			
132	2640	0.871841059602649	0.0507549668874172	-0.375523178807947	-5.56662251655629	-4.0646357615894	-1.18490066225166				1.00895364238411	0.0317880794701987	-0.130860927152318	0.993907284768212	-1.37218543046358	-2.26596026490066				0.901827814569536	-0.0652715231788079	-0.32794701986755	3.36741721854305	-5.45350993377483	-2.44026490066225				0.656529801324503	-0.336529801324503	-0.725721854304636	1.08291390728477	3.5435761589404	-3.41562913907285				0.996026490066225	-0.0285033112582781	0.149933774834437	3.8717880794702	-1.06807947019868	-0.897483443708608				0.415788079470199	-0.206834437086093	-0.836238410596026	-0.539602649006623	14.1576158940397	-16.994701986755			
133	2660	0.871841059602649	0.0667549668874172	-0.423523178807947	-3.04662251655629	-3.7846357615894	-0.624900662251656				0.992953642384106	0.0317880794701987	-0.0828609271523179	4.35390728476821	5.34781456953642	-1.98596026490066				0.901827814569536	-0.0332715231788079	-0.34394701986755	3.08741721854305	-4.05350993377483	-1.32026490066225				0.704529801324503	-0.336529801324503	-0.709721854304636	2.76291390728477	7.1835761589404	-9.85562913907285				0.964026490066225	-0.0125033112582781	0.149933774834437	0.231788079470198	-4.14807947019868	-3.13748344370861				0.399788079470199	-0.222834437086093	-0.868238410596026	7.86039735099338	7.99761589403974	-21.474701986755			
134	2680	0.871841059602649	0.0507549668874172	-0.439523178807947	2.27337748344371	-3.5046357615894	-0.904900662251656				1.00895364238411	0.0637880794701987	-0.0828609271523179	4.35390728476821	5.06781456953642	-1.70596026490066				0.901827814569536	-0.0172715231788079	-0.37594701986755	5.60741721854305	-6.01350993377483	-0.76026490066225				0.656529801324503	-0.272529801324503	-0.693721854304636	0.802913907284768	3.5435761589404	-13.7756291390728				0.932026490066225	0.0354966887417219	0.149933774834437	4.1517880794702	2.01192052980133	-5.09748344370861				0.415788079470199	-0.254834437086093	-0.868238410596026	5.06039735099338	3.79761589403974	-19.794701986755			
135	2700	0.871841059602649	0.0827549668874172	-0.423523178807947	3.95337748344371	-3.5046357615894	-2.30490066225166				1.00895364238411	0.0797880794701987	-0.0668609271523178	8.27390728476821	5.06781456953642	-0.585960264900661				0.885827814569536	-0.0172715231788079	-0.39194701986755	9.24741721854305	-7.13350993377484	0.63973509933775				0.640529801324503	-0.272529801324503	-0.693721854304636	1.92291390728477	0.4635761589404	-14.0556291390728				0.980026490066225	0.0354966887417219	0.149933774834437	7.5117880794702	3.41192052980132	-5.65748344370861				0.463788079470199	-0.238834437086093	-0.916238410596027	-5.29960264900662	-1.52238410596026	-15.594701986755			
136	2720	0.855841059602649	0.0827549668874172	-0.423523178807947	6.47337748344371	-3.2246357615894	-2.02490066225166				1.00895364238411	0.0477880794701987	-0.0668609271523178	14.7139072847682	-5.01218543046358	1.09403973509934				0.869827814569536	0.0307284768211921	-0.47194701986755	-7.55258278145695	-0.973509933774833	1.19973509933775				0.656529801324503	-0.304529801324503	-0.693721854304636	5.00291390728477	-3.4564238410596	-12.6556291390728				0.996026490066225	0.0194966887417219	0.133933774834437	11.9917880794702	6.77192052980133	-4.25748344370861				0.463788079470199	-0.206834437086093	-0.884238410596026	-3.89960264900662	-5.16238410596027	-8.31470198675497			
137	2740	0.855841059602649	0.0827549668874172	-0.423523178807947	8.15337748344371	-2.3846357615894	-2.86490066225166				0.992953642384106	-0.000211920529801304	-0.130860927152318	9.67390728476821	-6.13218543046358	0.25403973509934				0.869827814569536	0.0147284768211921	-0.35994701986755	5.04741721854305	9.94649006622517	-2.16026490066225				0.640529801324503	-0.336529801324503	-0.709721854304636	1.36291390728477	-7.9364238410596	-9.01562913907285				0.996026490066225	-0.0285033112582781	0.165933774834437	13.6717880794702	6.49192052980132	-2.57748344370861				0.447788079470199	-0.222834437086093	-0.836238410596026	-0.539602649006623	-5.72238410596027	-6.35470198675497			
138	2760	0.871841059602649	0.0827549668874172	-0.439523178807947	10.1133774834437	-0.984635761589404	-3.70490066225166				0.992953642384106	-0.000211920529801304	-0.0668609271523178	11.6339072847682	-5.29218543046358	1.93403973509934				0.885827814569536	0.0307284768211921	-0.39194701986755	3.08741721854305	1.54649006622517	-0.76026490066225				0.608529801324503	-0.320529801324503	-0.693721854304636	-0.0370860927152318	-9.3364238410596	-7.05562913907285				1.01202649006623	-0.0445033112582781	0.149933774834437	11.9917880794702	0.331920529801325	-1.45748344370861				0.479788079470199	-0.238834437086093	-0.836238410596026	6.46039735099338	-8.80238410596027	-5.23470198675497			
139	2780	0.839841059602649	0.0667549668874172	-0.423523178807947	10.6733774834437	2.3753642384106	-3.98490066225166				0.976953642384106	-0.0322119205298013	-0.0988609271523179	21.1539072847682	-4.45218543046358	3.89403973509934				0.853827814569536	0.0147284768211921	-0.42394701986755	4.76741721854305	4.06649006622517	-1.04026490066225				0.544529801324503	-0.288529801324503	-0.693721854304636	4.16291390728477	-7.3764238410596	-7.05562913907285				0.996026490066225	-0.0605033112582781	0.133933774834437	10.3117880794702	-5.82807947019868	-2.01748344370861				0.479788079470199	-0.238834437086093	-0.820238410596026	-1.09960264900662	-10.7623841059603	-4.95470198675497			
140	2800	0.823841059602649	0.0347549668874172	-0.439523178807947	13.4733774834437	3.7753642384106	-3.42490066225166				0.992953642384106	-0.0162119205298013	-0.0668609271523178	17.5139072847682	0.0278145695364242	1.65403973509934				0.853827814569536	0.0147284768211921	-0.39194701986755	8.40741721854305	8.82649006622517	-2.44026490066225				0.528529801324503	-0.288529801324503	-0.677721854304636	7.80291390728477	-3.7364238410596	-8.73562913907285				0.948026490066225	-0.0445033112582781	0.149933774834437	9.1917880794702	-6.94807947019868	-1.45748344370861				0.431788079470199	-0.190834437086093	-0.836238410596026	-6.41960264900662	-5.44238410596027	-7.19470198675497			
141	2820	0.855841059602649	0.00275496688741723	-0.455523178807947	12.3533774834437	5.4553642384106	-2.58490066225166				0.960953642384106	0.0157880794701987	-0.114860927152318	14.9939072847682	-8.37218543046358	-1.42596026490066				0.869827814569536	0.0147284768211921	-0.39194701986755	9.24741721854305	4.90649006622517	-2.16026490066225				0.544529801324503	-0.288529801324503	-0.693721854304636	8.92291390728477	-2.3364238410596	-6.49562913907285				0.948026490066225	-0.0125033112582781	0.149933774834437	7.2317880794702	-6.38807947019868	1.06251655629139				0.399788079470199	-0.222834437086093	-0.804238410596027	0.860397350993377	-0.682384105960265	-8.03470198675497			
142	2840	0.855841059602649	0.0187549668874172	-0.439523178807947	5.91337748344371	7.1353642384106	-0.904900662251656				0.960953642384106	0.0317880794701987	-0.114860927152318	18.9139072847682	-7.53218543046358	-3.10596026490066				0.853827814569536	-0.0332715231788079	-0.39194701986755	8.40741721854305	3.78649006622517	0.0797350993377501				0.576529801324503	-0.288529801324503	-0.677721854304636	11.7229139072848	-2.0564238410596	-4.25562913907285				0.964026490066225	0.00349668874172187	0.117933774834437	6.1117880794702	-6.94807947019868	1.90251655629139				0.431788079470199	-0.222834437086093	-0.852238410596026	5.06039735099338	-4.60238410596027	-8.87470198675497			
143	2860	0.807841059602649	0.0347549668874172	-0.455523178807947	3.11337748344371	8.2553642384106	0.775099337748344				0.976953642384106	-0.000211920529801304	-0.130860927152318	25.3539072847682	-7.25218543046358	-2.54596026490066				0.869827814569536	-0.0172715231788079	-0.35994701986755	8.96741721854305	6.02649006622517	0.0797350993377501				0.592529801324503	-0.320529801324503	-0.677721854304636	13.6829139072848	-2.8964238410596	-4.53562913907285				0.964026490066225	-0.0125033112582781	0.117933774834437	6.9517880794702	-10.5880794701987	2.18251655629139				0.415788079470199	-0.206834437086093	-0.868238410596026	0.0203973509933773	-7.40238410596027	-9.99470198675497			
144	2880	0.839841059602649	0.0347549668874172	-0.439523178807947	3.95337748344371	10.4953642384106	0.775099337748344				0.944953642384106	-0.0162119205298013	-0.146860927152318	19.4739072847682	-3.33218543046358	-3.38596026490066				0.901827814569536	-0.00127152317880793	-0.34394701986755	3.08741721854305	4.34649006622517	-0.20026490066225				0.624529801324503	-0.352529801324503	-0.709721854304636	16.7629139072848	-3.7364238410596	-2.01562913907285				0.964026490066225	-0.0445033112582781	0.133933774834437	9.7517880794702	-9.74807947019868	2.74251655629139				0.431788079470199	-0.158834437086093	-0.900238410596026	-0.539602649006623	-7.68238410596027	-8.87470198675497			
145	2900	0.871841059602649	0.0347549668874172	-0.471523178807947	2.27337748344371	8.5353642384106	2.17509933774834				0.976953642384106	0.0157880794701987	-0.114860927152318	9.67390728476821	5.62781456953642	-1.14596026490066				0.917827814569536	0.0307284768211921	-0.34394701986755	-0.272582781456954	5.46649006622517	-0.48026490066225				0.624529801324503	-0.320529801324503	-0.693721854304636	14.8029139072848	-5.4164238410596	-2.01562913907285				0.964026490066225	0.00349668874172187	0.117933774834437	10.3117880794702	-10.5880794701987	3.30251655629139				0.431788079470199	-0.190834437086093	-0.852238410596026	5.90039735099338	-10.4823841059603	-6.07470198675497			
146	2920	0.871841059602649	0.0667549668874172	-0.423523178807947	4.51337748344371	4.3353642384106	-1.18490066225166				0.976953642384106	0.0637880794701987	-0.130860927152318	11.0739072847682	4.22781456953642	-1.14596026490066				0.917827814569536	-0.00127152317880793	-0.34394701986755	9.52741721854305	3.78649006622517	0.0797350993377501				0.592529801324503	-0.304529801324503	-0.693721854304636	9.20291390728477	-7.3764238410596	-2.57562913907285				0.964026490066225	0.00349668874172187	0.133933774834437	11.1517880794702	-4.14807947019868	2.74251655629139				0.431788079470199	-0.222834437086093	-0.820238410596026	5.06039735099338	-10.4823841059603	-4.11470198675497			
147	2940	0.839841059602649	0.0667549668874172	-0.407523178807947	10.3933774834437	0.975364238410596	-2.58490066225166				0.944953642384106	0.0157880794701987	-0.130860927152318	14.9939072847682	6.46781456953642	0.53403973509934				0.885827814569536	-0.0492715231788079	-0.34394701986755	10.647417218543	1.82649006622517	0.63973509933775				0.576529801324503	-0.336529801324503	-0.693721854304636	10.0429139072848	-5.9764238410596	-2.29562913907285				0.948026490066225	-0.0125033112582781	0.133933774834437	10.8717880794702	-4.98807947019868	1.06251655629139				0.431788079470199	-0.174834437086093	-0.836238410596026	0.860397350993377	-11.6023841059603	-6.35470198675497			
148	2960	0.839841059602649	0.0187549668874172	-0.407523178807947	8.71337748344371	-2.3846357615894	-0.344900662251656				0	0	0	0	0	0				0.869827814569536	-0.0652715231788079	-0.34394701986755	9.80741721854305	2.10649006622517	0.63973509933775				0	0	0	0	0	0				0	0	0	0	0	0				0	0	0	0	0	0			
149	2980	0.871841059602649	0.00275496688741723	-0.423523178807947	5.91337748344371	-2.1046357615894	-0.344900662251656				0.960953642384106	0.0157880794701987	-0.0508609271523178	3.51390728476821	10.6678145695364	3.05403973509934				0.869827814569536	-0.0492715231788079	-0.32794701986755	4.48741721854305	2.38649006622517	1.19973509933775				0	0	0	0	0	0				0.932026490066225	0.00349668874172187	0.133933774834437	9.4717880794702	-4.70807947019868	1.06251655629139				0.415788079470199	-0.190834437086093	-0.820238410596026	7.86039735099338	-10.7623841059603	-7.47470198675497			
150	3000	0.871841059602649	0.00275496688741723	-0.423523178807947	1.71337748344371	-2.3846357615894	0.215099337748344				0.976953642384106	-0.000211920529801304	-0.0508609271523178	2.95390728476821	6.18781456953642	3.61403973509934				0.885827814569536	-0.0172715231788079	-0.32794701986755	5.60741721854305	2.38649006622517	0.91973509933775				0.544529801324503	-0.320529801324503	-0.693721854304636	2.20291390728477	-8.7764238410596	3.02437086092715				0.948026490066225	0.00349668874172187	0.133933774834437	8.0717880794702	-0.788079470198675	1.62251655629139				0.399788079470199	-0.206834437086093	-0.820238410596026	6.18039735099338	-11.3223841059603	-5.79470198675497			
151	3020	0.855841059602649	0.0187549668874172	-0.423523178807947	3.11337748344371	-1.8246357615894	-0.344900662251656				0.992953642384106	-0.0322119205298013	-0.0348609271523178	6.59390728476821	6.74781456953642	4.17403973509934				0.901827814569536	-0.0172715231788079	-0.32794701986755	6.72741721854305	0.426490066225167	0.0797350993377501				0.544529801324503	-0.304529801324503	-0.677721854304636	1.92291390728477	-5.9764238410596	1.90437086092715				0.948026490066225	-0.0285033112582781	0.133933774834437	7.5117880794702	0.891920529801325	1.34251655629139				0.399788079470199	-0.190834437086093	-0.804238410596027	-0.819602649006623	-5.72238410596027	-6.07470198675497			
152	3040	0.855841059602649	0.0187549668874172	-0.407523178807947	3.67337748344371	-2.1046357615894	0.775099337748344				1.00895364238411	-0.0482119205298013	-0.0508609271523178	5.75390728476821	2.26781456953642	4.17403973509934				0.917827814569536	-0.0332715231788079	-0.34394701986755	8.12741721854305	0.146490066225167	-0.48026490066225				0.544529801324503	-0.320529801324503	-0.677721854304636	2.76291390728477	-2.0564238410596	-1.73562913907285				0.948026490066225	-0.0445033112582781	0.133933774834437	8.3517880794702	2.85192052980133	1.62251655629139				0.399788079470199	-0.190834437086093	-0.820238410596026	3.38039735099338	-0.682384105960265	-6.35470198675497			
153	3060	0.871841059602649	0.0187549668874172	-0.407523178807947	5.07337748344371	-0.984635761589404	0.495099337748344				0.976953642384106	-0.0162119205298013	-0.0668609271523178	1.27390728476821	3.38781456953642	3.89403973509934				0.933827814569536	-0.0492715231788079	-0.34394701986755	4.76741721854305	2.38649006622517	-1.32026490066225				0.560529801324503	-0.304529801324503	-0.645721854304636	-0.317086092715232	1.0235761589404	-4.25562913907285				0.964026490066225	-0.0445033112582781	0.133933774834437	6.6717880794702	4.53192052980133	1.90251655629139				0.415788079470199	-0.206834437086093	-0.820238410596026	8.14039735099338	-0.402384105960265	-8.03470198675497			
154	3080	0.871841059602649	0.00275496688741723	-0.423523178807947	4.51337748344371	1.2553642384106	-0.344900662251656				0.976953642384106	-0.000211920529801304	-0.0828609271523179	2.95390728476821	6.46781456953642	2.77403973509934				0.901827814569536	-0.0332715231788079	-0.32794701986755	3.64741721854305	1.54649006622517	-1.88026490066225				0.544529801324503	-0.304529801324503	-0.645721854304636	2.20291390728477	3.5435761589404	-3.97562913907285				0.948026490066225	-0.0125033112582781	0.133933774834437	5.2717880794702	6.77192052980133	1.90251655629139				0.399788079470199	-0.206834437086093	-0.804238410596027	6.18039735099338	2.39761589403974	-9.43470198675497			
155	3100	0.855841059602649	0.0187549668874172	-0.391523178807947	2.55337748344371	3.2153642384106	-1.18490066225166				0.976953642384106	0.0157880794701987	-0.114860927152318	7.43390728476821	8.42781456953642	2.49403973509934				0.869827814569536	-0.0172715231788079	-0.32794701986755	2.80741721854305	0.706490066225167	-1.88026490066225				0.560529801324503	-0.320529801324503	-0.661721854304636	8.08291390728477	6.3435761589404	-2.85562913907285				0.948026490066225	-0.0285033112582781	0.149933774834437	5.8317880794702	7.61192052980133	3.30251655629139				0.383788079470199	-0.206834437086093	-0.820238410596026	3.66039735099338	5.75761589403974	-12.514701986755			
156	3120	0.855841059602649	0.0347549668874172	-0.391523178807947	2.27337748344371	-1.2646357615894	-0.624900662251656				0.960953642384106	-0.000211920529801304	-0.0988609271523179	7.71390728476821	9.82781456953643	2.21403973509934				0.869827814569536	-0.0332715231788079	-0.32794701986755	6.44741721854305	-1.25350993377483	-1.60026490066225				0.608529801324503	-0.304529801324503	-0.661721854304636	9.76291390728477	6.9035761589404	-3.13562913907285				0.948026490066225	-0.0285033112582781	0.133933774834437	8.0717880794702	6.77192052980133	3.58251655629139				0.383788079470199	-0.206834437086093	-0.852238410596026	11.7803973509934	5.19761589403974	-13.354701986755			
157	3140	0.839841059602649	0.0347549668874172	-0.407523178807947	3.39337748344371	-2.6646357615894	-0.0649006622516557				0.928953642384106	-0.000211920529801304	-0.0508609271523178	5.19390728476821	14.0278145695364	0.81403973509934				0.853827814569536	-0.0332715231788079	-0.34394701986755	8.12741721854305	-0.973509933774833	-2.16026490066225				0.624529801324503	-0.320529801324503	-0.661721854304636	9.20291390728477	6.0635761589404	-4.53562913907285				0.932026490066225	-0.0285033112582781	0.149933774834437	7.5117880794702	3.41192052980132	3.58251655629139				0.367788079470199	-0.190834437086093	-0.884238410596026	12.3403973509934	2.39761589403974	-15.874701986755			
158	3160	0.855841059602649	0.0187549668874172	-0.407523178807947	8.15337748344371	-3.2246357615894	-0.0649006622516557				0.976953642384106	-0.0322119205298013	0.0131390728476822	0.993907284768212	18.7878145695364	-0.585960264900661				0.885827814569536	-0.0332715231788079	-0.35994701986755	7.28741721854305	0.986490066225167	-2.44026490066225				0.624529801324503	-0.320529801324503	-0.645721854304636	13.1229139072848	4.9435761589404	-5.65562913907285				0.916026490066225	-0.0285033112582781	0.149933774834437	9.7517880794702	5.93192052980133	3.86251655629139				0.383788079470199	-0.158834437086093	-0.900238410596026	11.7803973509934	0.437615894039735	-18.954701986755			
159	3180	0.871841059602649	0.00275496688741723	-0.423523178807947	7.03337748344371	-3.5046357615894	0.215099337748344				0.992953642384106	-0.0162119205298013	0.0131390728476822	1.83390728476821	15.7078145695364	0.25403973509934				0.901827814569536	-0.0172715231788079	-0.32794701986755	7.28741721854305	0.146490066225167	-3.28026490066225				0.624529801324503	-0.352529801324503	-0.677721854304636	13.1229139072848	2.9835761589404	-5.37562913907285				0.916026490066225	-0.0125033112582781	0.149933774834437	14.5117880794702	10.1319205298013	5.26251655629139				0.399788079470199	-0.158834437086093	-0.900238410596026	17.6603973509934	-4.32238410596027	-21.754701986755			
160	3200	0.887841059602649	0.00275496688741723	-0.407523178807947	6.47337748344371	-4.3446357615894	-1.18490066225166				0.992953642384106	-0.000211920529801304	-0.0508609271523178	9.95390728476821	7.58781456953643	2.21403973509934				0.917827814569536	-0.0332715231788079	-0.31194701986755	11.207417218543	-0.693509933774834	-3.56026490066225				0.656529801324503	-0.384529801324503	-0.677721854304636	9.76291390728477	-1.7764238410596	-5.09562913907285				0.964026490066225	-0.0125033112582781	0.117933774834437	13.9517880794702	15.4519205298013	3.02251655629139				0.399788079470199	-0.206834437086093	-0.868238410596026	26.6203973509934	-10.4823841059603	-22.874701986755			
161	3220	0.855841059602649	0.0187549668874172	-0.391523178807947	5.07337748344371	-3.5046357615894	-2.58490066225166				0.960953642384106	-0.0162119205298013	-0.0508609271523178	11.3539072847682	7.86781456953642	3.33403973509934				0.901827814569536	-0.0492715231788079	-0.34394701986755	12.327417218543	0.146490066225167	-3.84026490066225				0.640529801324503	-0.336529801324503	-0.677721854304636	6.12291390728477	-5.4164238410596	-7.33562913907285				0.980026490066225	-0.0285033112582781	0.165933774834437	13.6717880794702	16.0119205298013	1.62251655629139				0.399788079470199	-0.238834437086093	-0.852238410596026	21.5803973509934	-14.1223841059603	-24.834701986755			
162	3240	0.887841059602649	0.0507549668874172	-0.391523178807947	8.15337748344371	-2.3846357615894	-2.02490066225166				1.00895364238411	-0.000211920529801304	-0.00286092715231785	6.59390728476821	16.2678145695364	4.73403973509934				0.917827814569536	-0.0492715231788079	-0.34394701986755	12.327417218543	1.26649006622517	-3.84026490066225				0.624529801324503	-0.336529801324503	-0.693721854304636	4.16291390728477	-4.2964238410596	-5.37562913907285				0.996026490066225	-0.0285033112582781	0.197933774834437	14.5117880794702	14.8919205298013	2.74251655629139				0.399788079470199	-0.254834437086093	-0.820238410596026	11.5003973509934	-10.4823841059603	-25.954701986755			
163	3260	0.871841059602649	0.0347549668874172	-0.407523178807947	11.5133774834437	-1.2646357615894	-3.42490066225166				1.05695364238411	-0.000211920529801304	-0.00286092715231785	10.7939072847682	15.4278145695364	4.73403973509934				0.917827814569536	-0.0492715231788079	-0.34394701986755	11.487417218543	1.26649006622517	-1.32026490066225				0.640529801324503	-0.336529801324503	-0.709721854304636	10.8829139072848	-3.7364238410596	-5.93562913907285				0.996026490066225	-0.0285033112582781	0.165933774834437	14.7917880794702	13.2119205298013	2.74251655629139				0.399788079470199	-0.254834437086093	-0.820238410596026	13.7403973509934	-7.12238410596027	-24.834701986755			
164	3280	0.871841059602649	0.00275496688741723	-0.375523178807947	11.7933774834437	-0.984635761589404	-3.42490066225166				1.02495364238411	-0.0162119205298013	-0.0828609271523179	14.9939072847682	8.14781456953643	5.01403973509934				0.901827814569536	-0.0652715231788079	-0.34394701986755	14.567417218543	2.66649006622517	-1.04026490066225				0.656529801324503	-0.352529801324503	-0.693721854304636	11.7229139072848	-4.0164238410596	-7.61562913907285				1.01202649006623	-0.0445033112582781	0.181933774834437	20.9517880794702	12.0919205298013	2.74251655629139				0.431788079470199	-0.254834437086093	-0.852238410596026	16.2603973509934	-7.12238410596027	-24.554701986755			
165	3300	0.855841059602649	0.00275496688741723	-0.407523178807947	11.5133774834437	2.9353642384106	-3.70490066225166				1.00895364238411	-0.0162119205298013	-0.0508609271523178	11.9139072847682	11.2278145695364	3.89403973509934				0.885827814569536	-0.0652715231788079	-0.32794701986755	14.007417218543	7.14649006622517	-1.32026490066225				0.640529801324503	-0.368529801324503	-0.677721854304636	8.36291390728477	-4.2964238410596	-8.45562913907285				0.996026490066225	-0.0445033112582781	0.181933774834437	18.9917880794702	9.01192052980133	2.18251655629139				0.447788079470199	-0.270834437086093	-0.852238410596026	20.4603973509934	-7.68238410596027	-20.914701986755			
166	3320	0.839841059602649	0.00275496688741723	-0.455523178807947	11.2333774834437	3.4953642384106	-3.98490066225166				1.00895364238411	-0.0322119205298013	0.0291390728476822	9.67390728476821	11.5078145695364	5.85403973509934				0.901827814569536	-0.0492715231788079	-0.32794701986755	8.68741721854305	7.14649006622517	0.35973509933775				0.592529801324503	-0.320529801324503	-0.661721854304636	3.60291390728477	-5.1364238410596	-9.85562913907285				0.980026490066225	-0.0285033112582781	0.181933774834437	16.7517880794702	7.33192052980133	3.02251655629139				0.431788079470199	-0.286834437086093	-0.804238410596027	21.0203973509934	-6.56238410596027	-18.954701986755			
167	3340	0.839841059602649	0.00275496688741723	-0.439523178807947	11.7933774834437	4.8953642384106	-4.54490066225166				1.00895364238411	-0.0642119205298013	0.0451390728476822	11.6339072847682	5.90781456953642	7.53403973509934				0.901827814569536	-0.0652715231788079	-0.34394701986755	7.00741721854305	6.58649006622517	0.63973509933775				0.592529801324503	-0.304529801324503	-0.661721854304636	9.20291390728477	-4.5764238410596	-9.01562913907285				0.964026490066225	-0.0285033112582781	0.197933774834437	18.1517880794702	6.21192052980133	3.30251655629139				0.431788079470199	-0.286834437086093	-0.804238410596027	17.6603973509934	-6.28238410596027	-14.194701986755			
168	3360	0.839841059602649	-0.0132450331125828	-0.471523178807947	8.99337748344371	4.3353642384106	-2.30490066225166				0.960953642384106	-0.0162119205298013	-0.00286092715231785	11.0739072847682	0.307814569536424	5.57403973509934				0.885827814569536	-0.0492715231788079	-0.35994701986755	3.36741721854305	8.26649006622517	0.63973509933775				0.592529801324503	-0.320529801324503	-0.661721854304636	13.1229139072848	-3.4564238410596	-9.29562913907285				0.932026490066225	-0.0445033112582781	0.213933774834437	18.4317880794702	3.69192052980133	3.02251655629139				0.463788079470199	-0.286834437086093	-0.788238410596027	15.9803973509934	-7.96238410596027	-9.43470198675497			
169	3380	0.839841059602649	-0.0132450331125828	-0.439523178807947	7.59337748344371	6.0153642384106	-1.18490066225166				0.976953642384106	-0.0162119205298013	0.0131390728476822	11.9139072847682	-1.93218543046358	5.29403973509934				0.901827814569536	-0.0492715231788079	-0.32794701986755	2.24741721854305	9.10649006622517	0.63973509933775				0.592529801324503	-0.336529801324503	-0.661721854304636	12.2829139072848	-3.4564238410596	-8.73562913907285				0.932026490066225	-0.0285033112582781	0.261933774834437	13.3917880794702	1.45192052980132	1.62251655629139				0.463788079470199	-0.270834437086093	-0.788238410596027	12.9003973509934	-10.2023841059603	-8.87470198675497			
170	3400	0.855841059602649	-0.0132450331125828	-0.455523178807947	5.07337748344371	6.5753642384106	-0.624900662251656				0.992953642384106	-0.0322119205298013	-0.00286092715231785	8.27390728476821	-0.532185430463576	5.01403973509934				0.901827814569536	-0.0492715231788079	-0.34394701986755	2.80741721854305	7.70649006622517	0.63973509933775				0.624529801324503	-0.336529801324503	-0.661721854304636	6.12291390728477	-4.5764238410596	-7.61562913907285				0.932026490066225	-0.0445033112582781	0.245933774834437	10.0317880794702	-1.06807947019868	2.74251655629139				0.479788079470199	-0.270834437086093	-0.772238410596026	9.82039735099338	-7.40238410596027	-9.71470198675497			
171	3420	0.871841059602649	0.00275496688741723	-0.423523178807947	3.11337748344371	7.4153642384106	-0.344900662251656				0.992953642384106	-0.0162119205298013	-0.0508609271523178	4.35390728476821	4.22781456953642	4.45403973509934				0.917827814569536	-0.0332715231788079	-0.32794701986755	1.96741721854305	6.86649006622517	0.91973509933775				0.624529801324503	-0.320529801324503	-0.645721854304636	3.32291390728477	-4.5764238410596	-5.93562913907285				0.948026490066225	-0.0445033112582781	0.245933774834437	8.3517880794702	1.45192052980132	3.58251655629139				0.479788079470199	-0.286834437086093	-0.756238410596026	10.3803973509934	-3.48238410596027	-8.59470198675497			
172	3440	0.871841059602649	0.0507549668874172	-0.439523178807947	4.51337748344371	5.7353642384106	-1.18490066225166				0.992953642384106	-0.0322119205298013	-0.0348609271523178	4.91390728476821	13.4678145695364	3.05403973509934				0.917827814569536	-0.0332715231788079	-0.31194701986755	3.64741721854305	7.14649006622517	1.47973509933775				0.608529801324503	-0.304529801324503	-0.645721854304636	3.88291390728477	-3.7364238410596	-7.33562913907285				0.948026490066225	-0.0285033112582781	0.261933774834437	6.3917880794702	2.85192052980133	2.46251655629139				0.479788079470199	-0.318834437086093	-0.740238410596026	7.58039735099338	-2.64238410596027	-7.19470198675497			
173	3460	0.855841059602649	0.0667549668874172	-0.407523178807947	3.95337748344371	2.3753642384106	-0.624900662251656				0.976953642384106	-0.0162119205298013	0.0291390728476822	5.75390728476821	12.3478145695364	1.93403973509934				0.885827814569536	-0.0332715231788079	-0.31194701986755	2.80741721854305	3.78649006622517	1.19973509933775				0.608529801324503	-0.288529801324503	-0.629721854304636	3.04291390728477	-3.4564238410596	-7.05562913907285				0.932026490066225	-0.0285033112582781	0.245933774834437	3.8717880794702	-1.06807947019868	1.90251655629139				0.463788079470199	-0.302834437086093	-0.756238410596026	3.94039735099338	-1.52238410596026	-5.79470198675497			
174	3480	0.855841059602649	0.00275496688741723	-0.407523178807947	3.95337748344371	0.975364238410596	0.495099337748344				0.976953642384106	-0.0322119205298013	0.0451390728476822	0.993907284768212	10.6678145695364	1.37403973509934				0.885827814569536	-0.0332715231788079	-0.31194701986755	1.40741721854305	3.50649006622517	1.75973509933775				0.592529801324503	-0.304529801324503	-0.645721854304636	3.88291390728477	-2.3364238410596	-5.93562913907285				0.900026490066225	-0.0125033112582781	0.261933774834437	1.6317880794702	0.0519205298013249	1.90251655629139				0.463788079470199	-0.286834437086093	-0.756238410596026	6.18039735099338	-1.24238410596026	-3.27470198675497			
175	3500	0.871841059602649	0.00275496688741723	-0.391523178807947	4.51337748344371	1.8153642384106	1.05509933774834				0.992953642384106	-0.0322119205298013	0.109139072847682	-0.686092715231788	5.90781456953642	0.25403973509934				0.901827814569536	-0.0332715231788079	-0.29594701986755	2.24741721854305	3.78649006622517	2.31973509933775				0.592529801324503	-0.304529801324503	-0.629721854304636	5.84291390728477	1.5835761589404	-4.25562913907285				0.932026490066225	-0.0125033112582781	0.245933774834437	-1.1682119205298	1.73192052980133	0.782516556291392				0.447788079470199	-0.302834437086093	-0.756238410596026	7.30039735099338	-1.52238410596026	0.645298013245032			
176	3520	0.871841059602649	-0.0132450331125828	-0.407523178807947	0.873377483443709	2.6553642384106	0.215099337748344				0.976953642384106	-0.0322119205298013	0.0771390728476822	-0.966092715231788	-1.65218543046358	-0.30596026490066				0.933827814569536	-0.0492715231788079	-0.27994701986755	1.40741721854305	1.82649006622517	1.75973509933775				0.608529801324503	-0.320529801324503	-0.629721854304636	3.32291390728477	3.8235761589404	-2.57562913907285				0.932026490066225	-0.0445033112582781	0.245933774834437	-1.1682119205298	2.85192052980133	1.34251655629139				0.447788079470199	-0.302834437086093	-0.772238410596026	3.10039735099338	0.717615894039735	0.925298013245032			
177	3540	0.871841059602649	0.00275496688741723	-0.375523178807947	-0.246622516556291	2.0953642384106	0.495099337748344				0.960953642384106	-0.0482119205298013	0.0451390728476822	-3.48609271523179	3.10781456953642	-0.585960264900661				0.917827814569536	-0.0492715231788079	-0.27994701986755	-1.11258278145695	1.82649006622517	0.91973509933775				0.624529801324503	-0.320529801324503	-0.645721854304636	1.08291390728477	5.7835761589404	-0.0556291390728476				0.948026490066225	-0.0285033112582781	0.245933774834437	-4.8082119205298	2.57192052980133	0.502516556291392				0.463788079470199	-0.302834437086093	-0.772238410596026	-0.819602649006623	2.39761589403974	1.76529801324503			
178	3560	0.887841059602649	0.00275496688741723	-0.343523178807947	0.0333774834437086	1.8153642384106	1.05509933774834				0.976953642384106	-0.0322119205298013	0.0931390728476822	-5.44609271523179	5.62781456953642	-0.585960264900661				0.917827814569536	-0.0652715231788079	-0.26394701986755	-2.79258278145695	4.06649006622517	0.91973509933775				0.640529801324503	-0.304529801324503	-0.629721854304636	2.48291390728477	6.9035761589404	1.90437086092715				0.932026490066225	-0.0445033112582781	0.245933774834437	-6.4882119205298	1.17192052980133	-0.0574834437086077				0.447788079470199	-0.286834437086093	-0.772238410596026	-0.539602649006623	1.27761589403974	2.60529801324503			
