No	Time	12-AccX	12-AccY	12-AccZ	12-GyroX	12-GyroY	12-GyroZ	13-AccX	13-AccY	13-AccZ	13-GyroX	13-GyroY	13-GyroZ	14-AccX	14-AccY	14-AccZ	14-GyroX	14-GyroY	14-GyroZ	15-AccX	15-AccY	15-AccZ	15-GyroX	15-GyroY	15-GyroZ	16-AccX	16-AccY	16-AccZ	16-GyroX	16-GyroY	16-GyroZ	17-AccX	17-AccY	17-AccZ	17-GyroX	17-GyroY	17-GyroZ
0	0	0	0	0	0	0	0				0	0	0	0	0	0				0	0	0	0	0	0				0.560529801324503	-0.160529801324503	-0.773721854304636	1.64291390728477	2.9835761589404	-3.97562913907285				0.948026490066225	0.0994966887417219	0.117933774834437	4.4317880794702	4.25192052980133	-2.57748344370861				0.543788079470199	-0.0948344370860927	-0.772238410596026	0.0203973509933773	4.35761589403974	-3.83470198675497			
1	20	0	0	0	0	0	0				0.928953642384106	0.0637880794701987	0.381139072847682	0.433907284768212	5.62781456953642	-0.0259602649006601				-0.218172185430464	-0.129271523178808	-0.88794701986755	1.40741721854305	0.706490066225167	-0.20026490066225				0.560529801324503	-0.160529801324503	-0.789721854304636	0.522913907284768	1.8635761589404	-4.25562913907285				0.948026490066225	0.0834966887417219	0.117933774834437	3.8717880794702	1.73192052980133	-3.69748344370861				0.559788079470199	-0.0948344370860927	-0.772238410596026	0.0203973509933773	4.63761589403974	-4.67470198675497			
2	40	-0.248158940397351	0.146754966887417	-0.919523178807947	-2.76662251655629	1.8153642384106	-0.344900662251656				0.928953642384106	0.0797880794701987	0.381139072847682	0.713907284768212	5.62781456953642	0.53403973509934				-0.218172185430464	-0.113271523178808	-0.88794701986755	-0.552582781456954	0.706490066225167	0.63973509933775				0.544529801324503	-0.176529801324503	-0.773721854304636	-1.99708609271523	1.8635761589404	-5.65562913907285				0.948026490066225	0.0834966887417219	0.117933774834437	4.1517880794702	3.13192052980133	-2.01748344370861				0.543788079470199	-0.0948344370860927	-0.788238410596027	0.300397350993377	3.79761589403974	-4.11470198675497			
3	60	-0.248158940397351	0.162754966887417	-0.919523178807947	-2.76662251655629	1.2553642384106	-0.344900662251656				0.928953642384106	0.0797880794701987	0.397139072847682	0.993907284768212	4.78781456953642	-0.0259602649006601				-0.218172185430464	-0.129271523178808	-0.87194701986755	-0.552582781456954	0.706490066225167	0.63973509933775				0.528529801324503	-0.160529801324503	-0.773721854304636	-3.39708609271523	0.4635761589404	-5.37562913907285				0.948026490066225	0.0994966887417219	0.117933774834437	3.8717880794702	4.25192052980133	-2.85748344370861				0.543788079470199	-0.0788344370860927	-0.772238410596026	1.98039735099338	2.95761589403974	-2.71470198675497			
4	80	-0.248158940397351	0.146754966887417	-0.919523178807947	-2.20662251655629	0.695364238410596	-0.904900662251656				0.928953642384106	0.0637880794701987	0.365139072847682	2.11390728476821	3.94781456953642	0.25403973509934				-0.234172185430464	-0.0972715231788079	-0.88794701986755	0.00741721854304636	0.986490066225167	0.91973509933775				0.528529801324503	-0.160529801324503	-0.773721854304636	-2.27708609271523	0.4635761589404	-5.37562913907285				0.948026490066225	0.0834966887417219	0.133933774834437	3.5917880794702	3.69192052980133	-3.41748344370861				0.559788079470199	-0.0788344370860927	-0.772238410596026	2.26039735099338	2.11761589403974	-2.99470198675497			
5	100	-0.248158940397351	0.146754966887417	-0.935523178807947	-2.20662251655629	0.695364238410596	-0.624900662251656				0.928953642384106	0.0637880794701987	0.381139072847682	1.55390728476821	4.50781456953642	-0.0259602649006601				-0.234172185430464	-0.113271523178808	-0.88794701986755	0.00741721854304636	0.986490066225167	0.63973509933775				0.544529801324503	-0.160529801324503	-0.773721854304636	-0.877086092715232	1.0235761589404	-4.53562913907285				0.948026490066225	0.0834966887417219	0.133933774834437	1.9117880794702	4.53192052980133	-3.41748344370861				0.559788079470199	-0.0948344370860927	-0.756238410596026	1.98039735099338	1.83761589403974	-3.27470198675497			
6	120	-0.248158940397351	0.130754966887417	-0.919523178807947	-1.92662251655629	0.695364238410596	-0.624900662251656				0.928953642384106	0.0797880794701987	0.381139072847682	0.153907284768212	3.94781456953642	-0.0259602649006601				-0.234172185430464	-0.113271523178808	-0.88794701986755	0.287417218543046	0.426490066225167	0.63973509933775				0.560529801324503	-0.160529801324503	-0.773721854304636	-1.71708609271523	1.3035761589404	-4.25562913907285				0.964026490066225	0.0994966887417219	0.117933774834437	1.0717880794702	2.85192052980133	-2.57748344370861				0.543788079470199	-0.0948344370860927	-0.756238410596026	1.98039735099338	1.83761589403974	-2.71470198675497			
7	140	-0.248158940397351	0.146754966887417	-0.919523178807947	-1.36662251655629	0.135364238410596	-0.624900662251656				0.928953642384106	0.0797880794701987	0.365139072847682	0.713907284768212	4.22781456953642	0.25403973509934				-0.218172185430464	-0.113271523178808	-0.87194701986755	0.847417218543046	-1.25350993377483	0.0797350993377501				0.560529801324503	-0.160529801324503	-0.773721854304636	-0.877086092715232	1.5835761589404	-3.69562913907285				0.964026490066225	0.0834966887417219	0.133933774834437	1.9117880794702	3.97192052980133	-3.13748344370861				0.543788079470199	-0.0788344370860927	-0.772238410596026	1.42039735099338	3.23761589403974	-3.27470198675497			
8	160	-0.248158940397351	0.146754966887417	-0.919523178807947	-1.36662251655629	0.135364238410596	-0.0649006622516557				0.928953642384106	0.0637880794701987	0.381139072847682	0.433907284768212	3.66781456953642	0.81403973509934				-0.234172185430464	-0.113271523178808	-0.87194701986755	0.847417218543046	0.146490066225167	-0.76026490066225				0.544529801324503	-0.144529801324503	-0.789721854304636	-1.15708609271523	1.5835761589404	-3.41562913907285				0.964026490066225	0.0994966887417219	0.117933774834437	1.0717880794702	2.29192052980133	-2.85748344370861				0.543788079470199	-0.0788344370860927	-0.772238410596026	0.580397350993377	2.67761589403974	-2.99470198675497			
9	180	-0.248158940397351	0.146754966887417	-0.935523178807947	-1.08662251655629	0.135364238410596	-0.344900662251656				0.928953642384106	0.0797880794701987	0.397139072847682	0.993907284768212	5.34781456953642	1.09403973509934				-0.234172185430464	-0.113271523178808	-0.88794701986755	1.12741721854305	-0.693509933774834	-0.48026490066225				0.544529801324503	-0.144529801324503	-0.773721854304636	-1.99708609271523	0.7435761589404	-4.25562913907285				0.948026490066225	0.0834966887417219	0.117933774834437	3.3117880794702	2.29192052980133	-2.29748344370861				0.543788079470199	-0.0788344370860927	-0.772238410596026	-4.45960264900662	2.39761589403974	-2.99470198675497			
10	200	-0.248158940397351	0.146754966887417	-0.935523178807947	-0.806622516556291	-0.144635761589404	0.215099337748344				0.944953642384106	0.0797880794701987	0.397139072847682	1.55390728476821	4.50781456953642	-0.0259602649006601				-0.234172185430464	-0.113271523178808	-0.88794701986755	2.24741721854305	-0.413509933774833	-1.04026490066225				0.544529801324503	-0.160529801324503	-0.773721854304636	-1.43708609271523	-0.9364238410596	-3.69562913907285				0.964026490066225	0.0994966887417219	0.149933774834437	1.6317880794702	1.73192052980133	-2.85748344370861				0.559788079470199	-0.0628344370860927	-0.772238410596026	-0.259602649006623	2.95761589403974	-3.55470198675497			
11	220	-0.264158940397351	0.146754966887417	-0.935523178807947	-0.526622516556291	0.415364238410596	-0.344900662251656				0.928953642384106	0.0797880794701987	0.397139072847682	0.433907284768212	3.10781456953642	-0.0259602649006601				-0.234172185430464	-0.113271523178808	-0.87194701986755	0.00741721854304636	-3.21350993377483	-1.04026490066225				0.560529801324503	-0.144529801324503	-0.773721854304636	-0.0370860927152318	-1.4964238410596	-3.97562913907285				0.980026490066225	0.0994966887417219	0.117933774834437	0.791788079470198	1.45192052980132	-1.45748344370861				0.559788079470199	-0.0788344370860927	-0.788238410596027	1.42039735099338	2.11761589403974	-4.67470198675497			
12	240	-0.264158940397351	0.162754966887417	-0.919523178807947	-0.526622516556291	0.135364238410596	-0.904900662251656				0.928953642384106	0.0637880794701987	0.397139072847682	0.433907284768212	1.42781456953642	-0.30596026490066				-0.234172185430464	-0.113271523178808	-0.87194701986755	0.847417218543046	0.426490066225167	-0.48026490066225				0.576529801324503	-0.160529801324503	-0.773721854304636	1.36291390728477	0.4635761589404	-2.57562913907285				0.964026490066225	0.0994966887417219	0.133933774834437	1.6317880794702	1.45192052980132	-1.73748344370861				0.575788079470199	-0.0788344370860927	-0.772238410596026	2.26039735099338	1.83761589403974	-4.11470198675497			
13	260	-0.264158940397351	0.146754966887417	-0.935523178807947	-0.526622516556291	0.135364238410596	-0.344900662251656				0.928953642384106	0.0637880794701987	0.397139072847682	1.83390728476821	0.587814569536424	0.53403973509934				-0.234172185430464	-0.113271523178808	-0.87194701986755	1.40741721854305	0.706490066225167	-0.20026490066225				0.560529801324503	-0.160529801324503	-0.789721854304636	0.242913907284768	0.4635761589404	-2.57562913907285				0.964026490066225	0.0994966887417219	0.117933774834437	2.4717880794702	0.611920529801325	-1.73748344370861				0.543788079470199	-0.0948344370860927	-0.772238410596026	0.860397350993377	0.437615894039735	-2.15470198675497			
14	280	-0.248158940397351	0.162754966887417	-0.919523178807947	-0.806622516556291	0.415364238410596	-1.18490066225166				0.928953642384106	0.0637880794701987	0.397139072847682	2.67390728476821	0.587814569536424	1.37403973509934				-0.234172185430464	-0.129271523178808	-0.88794701986755	1.40741721854305	1.26649006622517	-0.76026490066225				0.560529801324503	-0.160529801324503	-0.773721854304636	-0.317086092715232	-0.9364238410596	-2.29562913907285				0.948026490066225	0.0994966887417219	0.133933774834437	1.6317880794702	0.0519205298013249	-0.897483443708608				0.559788079470199	-0.0948344370860927	-0.772238410596026	-0.819602649006623	0.157615894039735	-2.15470198675497			
15	300	-0.264158940397351	0.146754966887417	-0.919523178807947	-1.08662251655629	0.415364238410596	-0.904900662251656				0.944953642384106	0.0637880794701987	0.397139072847682	2.95390728476821	-0.812185430463576	0.25403973509934				-0.234172185430464	-0.129271523178808	-0.88794701986755	1.12741721854305	0.706490066225167	0.35973509933775				0.560529801324503	-0.160529801324503	-0.773721854304636	-0.877086092715232	-1.4964238410596	-2.29562913907285				0.964026490066225	0.0834966887417219	0.149933774834437	2.7517880794702	1.17192052980133	-0.337483443708608				0.559788079470199	-0.0788344370860927	-0.788238410596027	-0.259602649006623	0.717615894039735	-1.87470198675497			
16	320	-0.264158940397351	0.146754966887417	-0.935523178807947	-0.526622516556291	0.975364238410596	-0.904900662251656				0.928953642384106	0.0637880794701987	0.397139072847682	3.23390728476821	-1.09218543046358	0.25403973509934				-0.218172185430464	-0.113271523178808	-0.88794701986755	0.00741721854304636	0.146490066225167	-0.76026490066225				0.544529801324503	-0.160529801324503	-0.773721854304636	-1.15708609271523	-1.2164238410596	-2.57562913907285				0.964026490066225	0.0994966887417219	0.133933774834437	2.4717880794702	0.891920529801325	-0.617483443708608				0.559788079470199	-0.0788344370860927	-0.772238410596026	1.98039735099338	0.997615894039735	-2.15470198675497			
17	340	-0.264158940397351	0.146754966887417	-0.919523178807947	-0.526622516556291	0.695364238410596	-0.904900662251656				0.928953642384106	0.0797880794701987	0.397139072847682	2.95390728476821	-2.21218543046358	0.25403973509934				-0.218172185430464	-0.129271523178808	-0.88794701986755	0.567417218543046	0.706490066225167	-1.32026490066225				0.544529801324503	-0.160529801324503	-0.773721854304636	-2.83708609271523	-1.4964238410596	-2.57562913907285				0.964026490066225	0.0994966887417219	0.133933774834437	1.9117880794702	0.611920529801325	-0.337483443708608				0.559788079470199	-0.0948344370860927	-0.772238410596026	1.70039735099338	0.997615894039735	-1.59470198675497			
18	360	-0.248158940397351	0.146754966887417	-0.919523178807947	-0.806622516556291	0.695364238410596	-0.904900662251656				0.928953642384106	0.0637880794701987	0.381139072847682	2.95390728476821	-1.93218543046358	0.53403973509934				-0.218172185430464	-0.129271523178808	-0.88794701986755	-0.552582781456954	0.146490066225167	-1.32026490066225				0.560529801324503	-0.144529801324503	-0.773721854304636	-1.99708609271523	-1.7764238410596	-2.57562913907285				0.948026490066225	0.0834966887417219	0.133933774834437	1.3517880794702	-0.228079470198675	-0.337483443708608				0.559788079470199	-0.0788344370860927	-0.772238410596026	1.70039735099338	0.157615894039735	-2.71470198675497			
19	380	-0.248158940397351	0.162754966887417	-0.935523178807947	-0.246622516556291	0.135364238410596	-0.904900662251656				0.928953642384106	0.0637880794701987	0.381139072847682	1.55390728476821	-0.812185430463576	0.25403973509934				-0.234172185430464	-0.113271523178808	-0.88794701986755	-0.552582781456954	0.706490066225167	-0.76026490066225				0.528529801324503	-0.144529801324503	-0.757721854304636	-0.0370860927152318	-1.4964238410596	-2.29562913907285				0.932026490066225	0.0834966887417219	0.133933774834437	2.1917880794702	-0.788079470198675	-0.0574834437086077				0.559788079470199	-0.0788344370860927	-0.740238410596026	0.860397350993377	-0.402384105960265	-1.59470198675497			
20	400	-0.248158940397351	0.162754966887417	-0.919523178807947	0.313377483443709	0.135364238410596	-0.0649006622516557				0.912953642384106	0.0797880794701987	0.397139072847682	2.39390728476821	0.867814569536424	0.81403973509934				-0.234172185430464	-0.113271523178808	-0.88794701986755	-1.39258278145695	0.706490066225167	-0.20026490066225				0.528529801324503	-0.144529801324503	-0.773721854304636	-0.597086092715232	-0.9364238410596	-2.29562913907285				0.932026490066225	0.115496688741722	0.165933774834437	4.1517880794702	3.69192052980133	-0.337483443708608				0.559788079470199	-0.0948344370860927	-0.756238410596026	1.98039735099338	-0.682384105960265	0.0852980132450323			
21	420	-0.248158940397351	0.162754966887417	-0.935523178807947	0.313377483443709	-0.144635761589404	-0.904900662251656				0.928953642384106	0.0797880794701987	0.397139072847682	3.51390728476821	0.0278145695364242	0.53403973509934				-0.218172185430464	-0.129271523178808	-0.87194701986755	0.567417218543046	-0.413509933774833	-0.20026490066225				0.544529801324503	-0.144529801324503	-0.757721854304636	-1.15708609271523	-0.9364238410596	-1.73562913907285				0.948026490066225	0.0994966887417219	0.117933774834437	1.9117880794702	0.891920529801325	0.782516556291392				0.559788079470199	-0.0788344370860927	-0.756238410596026	1.70039735099338	-0.122384105960265	-0.754701986754968			
22	440	-0.248158940397351	0.162754966887417	-0.919523178807947	0.313377483443709	-0.704635761589404	-0.624900662251656				0.912953642384106	0.0797880794701987	0.381139072847682	5.19390728476821	-1.09218543046358	0.25403973509934				-0.218172185430464	-0.113271523178808	-0.87194701986755	1.68741721854305	-1.81350993377483	-0.48026490066225				0.544529801324503	-0.144529801324503	-0.773721854304636	-0.317086092715232	-0.9364238410596	-2.01562913907285				0.948026490066225	0.0994966887417219	0.149933774834437	-1.7282119205298	1.45192052980132	-0.337483443708608				0.559788079470199	-0.0788344370860927	-0.756238410596026	1.42039735099338	-0.122384105960265	-0.194701986754968			
23	460	-0.248158940397351	0.146754966887417	-0.935523178807947	0.593377483443709	-0.984635761589404	-1.18490066225166				0.896953642384106	0.0797880794701987	0.365139072847682	2.95390728476821	0.307814569536424	-0.0259602649006601				-0.234172185430464	-0.113271523178808	-0.88794701986755	0.00741721854304636	-0.973509933774833	-0.20026490066225				0.544529801324503	-0.144529801324503	-0.789721854304636	1.64291390728477	-0.3764238410596	-0.895629139072848				0.932026490066225	0.0994966887417219	0.149933774834437	-1.1682119205298	1.73192052980133	-0.897483443708608				0.543788079470199	-0.0788344370860927	-0.756238410596026	2.54039735099338	-1.24238410596026	-1.03470198675497			
24	480	-0.248158940397351	0.146754966887417	-0.919523178807947	0.593377483443709	-0.704635761589404	-1.74490066225166				0.928953642384106	0.0637880794701987	0.397139072847682	-0.126092715231788	2.82781456953642	0.53403973509934				-0.218172185430464	-0.129271523178808	-0.88794701986755	0.00741721854304636	-1.53350993377483	-1.04026490066225				0.560529801324503	-0.144529801324503	-0.789721854304636	1.64291390728477	1.0235761589404	-1.45562913907285				0.964026490066225	0.0994966887417219	0.133933774834437	-0.888211920529802	2.29192052980133	-0.617483443708608				0.559788079470199	-0.0788344370860927	-0.756238410596026	2.26039735099338	-0.962384105960265	-1.87470198675497			
25	500	-0.264158940397351	0.162754966887417	-0.919523178807947	-0.246622516556291	-1.2646357615894	-2.30490066225166				0.944953642384106	0.0637880794701987	0.413139072847682	0.433907284768212	-0.252185430463576	0.25403973509934				-0.234172185430464	-0.129271523178808	-0.88794701986755	-0.552582781456954	1.26649006622517	0.0797350993377501				0.544529801324503	-0.144529801324503	-0.773721854304636	0.522913907284768	0.1835761589404	-0.895629139072848				0.948026490066225	0.0994966887417219	0.133933774834437	2.1917880794702	3.13192052980133	-0.897483443708608				0.559788079470199	-0.0948344370860927	-0.772238410596026	0.0203973509933773	1.55761589403974	-1.87470198675497			
26	520	-0.264158940397351	0.146754966887417	-0.919523178807947	0.313377483443709	-1.5446357615894	-1.46490066225166				0.944953642384106	0.0637880794701987	0.381139072847682	2.67390728476821	-4.45218543046358	0.81403973509934				-0.250172185430464	-0.113271523178808	-0.88794701986755	-1.11258278145695	-0.973509933774833	-0.20026490066225				0.528529801324503	-0.144529801324503	-0.789721854304636	2.20291390728477	2.4235761589404	-0.615629139072848				0.964026490066225	0.0994966887417219	0.133933774834437	-0.888211920529802	1.73192052980133	-0.897483443708608				0.559788079470199	-0.0788344370860927	-0.772238410596026	-0.259602649006623	2.67761589403974	-2.99470198675497			
27	540	-0.264158940397351	0.146754966887417	-0.919523178807947	0.0333774834437086	-0.984635761589404	-1.74490066225166				0.928953642384106	0.0797880794701987	0.349139072847682	5.47390728476821	-6.97218543046358	2.21403973509934				-0.234172185430464	-0.113271523178808	-0.88794701986755	1.68741721854305	-0.973509933774833	-0.76026490066225				0.512529801324503	-0.160529801324503	-0.773721854304636	5.56291390728477	4.6635761589404	1.06437086092715				0.964026490066225	0.0994966887417219	0.117933774834437	-1.7282119205298	0.891920529801325	0.222516556291392				0.543788079470199	-0.0628344370860927	-0.788238410596027	-0.539602649006623	2.95761589403974	-4.39470198675497			
28	560	-0.264158940397351	0.146754966887417	-0.919523178807947	0.313377483443709	-0.424635761589404	-0.624900662251656				0.928953642384106	0.0797880794701987	0.349139072847682	4.07390728476821	-1.09218543046358	2.21403973509934				-0.234172185430464	-0.113271523178808	-0.90394701986755	1.40741721854305	-0.413509933774833	-1.04026490066225				0.512529801324503	-0.160529801324503	-0.789721854304636	7.24291390728477	6.9035761589404	1.62437086092715				0.964026490066225	0.0994966887417219	0.101933774834437	-0.888211920529802	2.01192052980133	-0.0574834437086077				0.527788079470199	-0.0628344370860927	-0.788238410596027	0.0203973509933773	1.27761589403974	-5.79470198675497			
29	580	-0.264158940397351	0.146754966887417	-0.871523178807947	0.313377483443709	-0.144635761589404	0.495099337748344				0.928953642384106	0.0637880794701987	0.349139072847682	2.11390728476821	-0.532185430463576	2.49403973509934				-0.234172185430464	-0.113271523178808	-0.87194701986755	1.12741721854305	-1.81350993377483	-1.04026490066225				0.528529801324503	-0.144529801324503	-0.789721854304636	8.08291390728477	8.8635761589404	0.784370860927152				0.964026490066225	0.0994966887417219	0.0859337748344371	-1.1682119205298	1.73192052980133	-0.337483443708608				0.511788079470199	-0.0628344370860927	-0.788238410596027	1.14039735099338	0.717615894039735	-4.67470198675497			
30	600	-0.264158940397351	0.130754966887417	-0.935523178807947	-1.08662251655629	-0.424635761589404	-0.344900662251656				0.944953642384106	0.0797880794701987	0.333139072847682	1.83390728476821	-1.65218543046358	2.77403973509934				-0.250172185430464	-0.0972715231788079	-0.87194701986755	0.287417218543046	0.706490066225167	-1.04026490066225				0.528529801324503	-0.176529801324503	-0.805721854304636	8.08291390728477	9.9835761589404	0.504370860927152				0.964026490066225	0.115496688741722	0.0699337748344371	-1.4482119205298	1.73192052980133	0.222516556291392				0.511788079470199	-0.0628344370860927	-0.804238410596027	-0.539602649006623	1.83761589403974	-2.99470198675497			
31	620	-0.264158940397351	0.130754966887417	-0.935523178807947	-2.48662251655629	-0.144635761589404	0.215099337748344				0.944953642384106	0.0797880794701987	0.285139072847682	4.07390728476821	-2.49218543046358	3.61403973509934				-0.234172185430464	-0.129271523178808	-0.88794701986755	2.52741721854305	0.426490066225167	-2.16026490066225				0.512529801324503	-0.176529801324503	-0.805721854304636	9.76291390728477	7.4635761589404	-0.335629139072848				0.964026490066225	0.0834966887417219	0.0699337748344371	-0.888211920529802	2.01192052980133	0.222516556291392				0.511788079470199	-0.0628344370860927	-0.820238410596026	-0.259602649006623	3.51761589403974	-2.15470198675497			
32	640	-0.264158940397351	0.130754966887417	-0.919523178807947	-2.48662251655629	0.135364238410596	1.61509933774834				0.960953642384106	0.0637880794701987	0.269139072847682	2.11390728476821	-1.93218543046358	3.61403973509934				-0.250172185430464	-0.0972715231788079	-0.87194701986755	2.80741721854305	-1.53350993377483	-2.44026490066225				0.496529801324503	-0.176529801324503	-0.821721854304636	11.7229139072848	1.3035761589404	-1.17562913907285				0.964026490066225	0.0834966887417219	0.0539337748344371	-0.888211920529802	3.13192052980133	0.782516556291392				0.511788079470199	-0.0628344370860927	-0.820238410596026	0.300397350993377	4.07761589403974	-1.59470198675497			
33	660	-0.264158940397351	0.130754966887417	-0.919523178807947	-3.88662251655629	-1.2646357615894	2.17509933774834				0.976953642384106	0.0957880794701987	0.269139072847682	0.153907284768212	-5.85218543046358	3.61403973509934				-0.234172185430464	-0.0972715231788079	-0.88794701986755	3.92741721854305	-0.413509933774833	-3.84026490066225				0.496529801324503	-0.208529801324503	-0.837721854304636	5.84291390728477	2.9835761589404	-2.85562913907285				0.964026490066225	0.0834966887417219	0.0379337748344371	-0.608211920529802	0.331920529801325	1.34251655629139				0.495788079470199	-0.0468344370860927	-0.820238410596026	0.860397350993377	2.39761589403974	-2.43470198675497			
34	680	-0.280158940397351	0.130754966887417	-0.919523178807947	-5.28662251655629	-0.424635761589404	3.01509933774834				0.928953642384106	0.111788079470199	0.285139072847682	1.27390728476821	-9.49218543046358	5.57403973509934				-0.250172185430464	-0.0972715231788079	-0.88794701986755	3.36741721854305	-0.133509933774833	-3.84026490066225				0.480529801324503	-0.192529801324503	-0.837721854304636	1.08291390728477	2.4235761589404	-5.65562913907285				0.948026490066225	0.0834966887417219	0.0219337748344371	-1.4482119205298	2.57192052980133	-0.0574834437086077				0.463788079470199	-0.0628344370860927	-0.820238410596026	4.78039735099338	1.27761589403974	-0.474701986754968			
35	700	-0.280158940397351	0.130754966887417	-0.935523178807947	-5.28662251655629	-0.424635761589404	3.57509933774835				0.944953642384106	0.0797880794701987	0.285139072847682	-0.406092715231788	-6.69218543046358	5.29403973509934				-0.250172185430464	-0.0972715231788079	-0.88794701986755	6.44741721854305	-0.413509933774833	-4.68026490066225				0.464529801324503	-0.208529801324503	-0.837721854304636	-2.55708609271523	1.5835761589404	-5.09562913907285				0.932026490066225	0.0834966887417219	0.0219337748344371	-0.608211920529802	3.97192052980133	-0.617483443708608				0.431788079470199	-0.0468344370860927	-0.836238410596026	-1.37960264900662	4.35761589403974	4.56529801324503			
36	720	-0.264158940397351	0.146754966887417	-0.919523178807947	-7.24662251655629	-0.144635761589404	4.69509933774834				0.944953642384106	0.0957880794701987	0.333139072847682	3.51390728476821	-11.1721854304636	5.01403973509934				-0.250172185430464	-0.113271523178808	-0.85594701986755	10.647417218543	-2.37350993377483	-5.80026490066225				0.464529801324503	-0.224529801324503	-0.837721854304636	-3.67708609271523	1.0235761589404	-7.61562913907285				0.932026490066225	0.0994966887417219	0.0219337748344371	1.0717880794702	8.17192052980133	-0.0574834437086077				0.447788079470199	-0.0148344370860927	-0.852238410596026	2.82039735099338	6.31761589403974	7.36529801324503			
37	740	-0.280158940397351	0.146754966887417	-0.919523178807947	-10.8866225165563	-0.704635761589404	6.37509933774834				0.944953642384106	0.0957880794701987	0.253139072847682	12.4739072847682	-22.6521854304636	7.53403973509934				-0.266172185430464	-0.0972715231788079	-0.85594701986755	8.96741721854305	2.66649006622517	-5.24026490066225				0.464529801324503	-0.208529801324503	-0.837721854304636	-7.59708609271523	2.1435761589404	-10.9756291390728				0.932026490066225	0.0994966887417219	-0.0100662251655629	0.791788079470198	10.6919205298013	-0.337483443708608				0.431788079470199	-0.0148344370860927	-0.852238410596026	6.46039735099338	4.35761589403974	7.64529801324503			
38	760	-0.280158940397351	0.162754966887417	-0.903523178807947	-11.1666225165563	-1.2646357615894	6.65509933774834				0.944953642384106	0.111788079470199	0.237139072847682	12.1939072847682	-10.8921854304636	6.97403973509934				-0.282172185430464	-0.113271523178808	-0.88794701986755	9.24741721854305	-0.693509933774834	-4.96026490066225				0.448529801324503	-0.192529801324503	-0.837721854304636	-9.83708609271523	2.7035761589404	-11.8156291390728				0.948026490066225	0.0994966887417219	-0.0100662251655629	0.511788079470198	13.2119205298013	-1.73748344370861				0.431788079470199	-0.0148344370860927	-0.852238410596026	7.86039735099338	6.31761589403974	7.92529801324503			
39	780	-0.280158940397351	0.178754966887417	-0.919523178807947	-10.0466225165563	-0.704635761589404	7.49509933774834				0.928953642384106	0.0797880794701987	0.237139072847682	8.83390728476821	-3.33218543046358	6.97403973509934				-0.250172185430464	-0.145271523178808	-0.87194701986755	14.847417218543	-1.25350993377483	-4.96026490066225				0.448529801324503	-0.192529801324503	-0.837721854304636	-11.2370860927152	5.2235761589404	-14.8956291390728				0.964026490066225	0.0994966887417219	-0.0100662251655629	1.9117880794702	13.7719205298013	-1.17748344370861				0.415788079470199	-0.0308344370860927	-0.836238410596026	8.98039735099338	8.83761589403974	9.60529801324503			
40	800	-0.280158940397351	0.178754966887417	-0.919523178807947	-10.8866225165563	-0.424635761589404	7.49509933774834				0.928953642384106	0.0797880794701987	0.269139072847682	7.43390728476821	6.18781456953642	9.21403973509934				-0.282172185430464	-0.129271523178808	-0.87194701986755	14.007417218543	-1.25350993377483	-5.52026490066225				0.448529801324503	-0.176529801324503	-0.853721854304636	-9.55708609271523	6.9035761589404	-16.5756291390728				0.932026490066225	0.0994966887417219	-0.0260662251655629	4.7117880794702	16.5719205298013	-1.17748344370861				0.415788079470199	-0.0308344370860927	-0.852238410596026	7.86039735099338	14.4376158940397	12.405298013245			
41	820	-0.264158940397351	0.194754966887417	-0.903523178807947	-11.7266225165563	-0.424635761589404	6.37509933774834				0.944953642384106	0.0797880794701987	0.285139072847682	9.11390728476821	15.1478145695364	9.21403973509934				-0.266172185430464	-0.145271523178808	-0.88794701986755	14.007417218543	0.706490066225167	-4.40026490066225				0.448529801324503	-0.176529801324503	-0.853721854304636	-9.27708609271523	10.2635761589404	-21.3356291390729				0.932026490066225	0.0994966887417219	0.00593377483443711	5.5517880794702	21.6119205298013	-2.01748344370861				0.399788079470199	-0.0308344370860927	-0.836238410596026	10.3803973509934	16.1176158940397	13.805298013245			
42	840	-0.280158940397351	0.194754966887417	-0.919523178807947	-12.8466225165563	0.135364238410596	5.81509933774834				0.960953642384106	0.0797880794701987	0.253139072847682	11.0739072847682	17.3878145695364	12.2940397350993				-0.250172185430464	-0.161271523178808	-0.88794701986755	12.327417218543	-0.133509933774833	-4.12026490066225				0.432529801324503	-0.160529801324503	-0.837721854304636	-10.3970860927152	15.3035761589404	-26.3756291390728				0.932026490066225	0.0994966887417219	-0.0100662251655629	6.3917880794702	25.5319205298013	-1.17748344370861				0.399788079470199	-0.0308344370860927	-0.820238410596026	11.2203973509934	21.7176158940397	16.885298013245			
43	860	-0.280158940397351	0.210754966887417	-0.903523178807947	-12.8466225165563	0.975364238410596	3.85509933774834				0.896953642384106	0.0637880794701987	0.253139072847682	13.0339072847682	22.9878145695364	12.8540397350993				-0.266172185430464	-0.161271523178808	-0.85594701986755	14.007417218543	1.82649006622517	-4.40026490066225				0.432529801324503	-0.160529801324503	-0.821721854304636	-11.2370860927152	18.1035761589404	-29.1756291390729				0.932026490066225	0.0994966887417219	0.0219337748344371	7.7917880794702	30.0119205298013	-2.85748344370861				0.399788079470199	-0.0308344370860927	-0.804238410596027	11.5003973509934	27.3176158940397	19.965298013245			
44	880	-0.248158940397351	0.226754966887417	-0.903523178807947	-14.2466225165563	1.2553642384106	3.01509933774834				0.896953642384106	0.0477880794701987	0.301139072847682	5.47390728476821	33.9078145695364	13.6940397350993				-0.266172185430464	-0.145271523178808	-0.87194701986755	12.887417218543	2.38649006622517	-3.56026490066225				0.432529801324503	-0.144529801324503	-0.821721854304636	-10.6770860927152	18.9435761589404	-30.0156291390729				0.916026490066225	0.0834966887417219	0.0379337748344371	10.5917880794702	35.3319205298013	-2.85748344370861				0.431788079470199	-0.0308344370860927	-0.804238410596027	17.1003973509934	32.0776158940397	19.685298013245			
45	900	-0.264158940397351	0.226754966887417	-0.935523178807947	-14.8066225165563	0.695364238410596	1.89509933774834				0.928953642384106	0.0317880794701987	0.285139072847682	-0.686092715231788	38.9478145695364	12.2940397350993				-0.250172185430464	-0.161271523178808	-0.87194701986755	13.727417218543	3.22649006622517	-2.72026490066225				0.448529801324503	-0.144529801324503	-0.821721854304636	-10.3970860927152	22.5835761589404	-29.7356291390729				0.916026490066225	0.0834966887417219	0.0539337748344371	11.1517880794702	37.8519205298013	-3.69748344370861				0.447788079470199	-0.0628344370860927	-0.788238410596027	21.0203973509934	36.2776158940397	19.965298013245			
46	920	-0.280158940397351	0.242754966887417	-0.919523178807947	-15.9266225165563	2.0953642384106	1.05509933774834				0.912953642384106	0.0637880794701987	0.301139072847682	-1.80609271523179	41.7478145695364	10.6140397350993				-0.250172185430464	-0.177271523178808	-0.88794701986755	15.967417218543	0.146490066225167	-3.00026490066225				0.496529801324503	-0.144529801324503	-0.821721854304636	-7.03708609271523	24.5435761589404	-30.2956291390729				0.932026490066225	0.0834966887417219	0.0699337748344371	10.5917880794702	40.3719205298013	-3.41748344370861				0.479788079470199	-0.0948344370860927	-0.788238410596027	26.0603973509934	39.9176158940397	22.485298013245			
47	940	-0.280158940397351	0.226754966887417	-0.903523178807947	-15.9266225165563	3.4953642384106	0.495099337748344				0.896953642384106	0.0957880794701987	0.349139072847682	-1.52609271523179	48.7478145695364	11.7340397350993				-0.298172185430464	-0.177271523178808	-0.87194701986755	14.287417218543	0.706490066225167	-3.00026490066225				0.528529801324503	-0.144529801324503	-0.821721854304636	-9.27708609271523	23.9835761589404	-31.9756291390729				0.932026490066225	0.0994966887417219	0.0859337748344371	8.0717880794702	43.4519205298013	-4.53748344370861				0.495788079470199	-0.126834437086093	-0.756238410596026	24.3803973509934	45.5176158940397	26.125298013245			
48	960	-0.280158940397351	0.242754966887417	-0.935523178807947	-15.6466225165563	-0.144635761589404	-0.624900662251656				0.864953642384106	0.0957880794701987	0.285139072847682	8.55390728476821	47.0678145695364	16.4940397350993				-0.282172185430464	-0.161271523178808	-0.87194701986755	13.167417218543	2.94649006622517	-1.60026490066225				0	0	0	0	0	0				0	0	0	0	0	0				0	0	0	0	0	0			
49	980	-0.312158940397351	0.258754966887417	-1.01552317880795	-22.9266225165563	2.3753642384106	0.495099337748344				0.912953642384106	0.0477880794701987	0.381139072847682	0.433907284768212	58.2678145695364	14.8140397350993				-0.266172185430464	-0.177271523178808	-0.88794701986755	16.247417218543	4.62649006622517	-3.00026490066225				0	0	0	0	0	0				0.916026490066225	0.115496688741722	0.181933774834437	13.9517880794702	50.7319205298013	-6.21748344370861				0.511788079470199	-0.126834437086093	-0.676238410596026	7.30039735099338	54.1976158940397	36.205298013245			
50	1000	-0.264158940397351	0.258754966887417	-0.887523178807947	-22.6466225165563	12.1753642384106	-1.46490066225166				0.848953642384106	0.0477880794701987	0.429139072847682	-9.36609271523179	75.9078145695364	14.8140397350993				-0.266172185430464	-0.161271523178808	-0.87194701986755	16.247417218543	7.14649006622517	-2.44026490066225				0.544529801324503	-0.0325298013245033	-0.757721854304636	-1.43708609271523	43.0235761589404	-33.9356291390729				0.932026490066225	0.115496688741722	0.213933774834437	15.0717880794702	50.7319205298013	-10.1374834437086				0.527788079470199	-0.126834437086093	-0.660238410596027	6.46039735099338	55.3176158940397	33.125298013245			
51	1020	-0.264158940397351	0.226754966887417	-0.903523178807947	-13.4066225165563	9.3753642384106	-2.02490066225166				0.864953642384106	0.0637880794701987	0.573139072847682	-14.4060927152318	78.1478145695364	16.7740397350993				-0.250172185430464	-0.161271523178808	-0.87194701986755	17.087417218543	9.94649006622517	-1.88026490066225				0.544529801324503	-0.0485298013245033	-0.709721854304636	5.28291390728477	51.4235761589404	-35.8956291390729				0.900026490066225	0.147496688741722	0.261933774834437	17.0317880794702	49.3319205298013	-10.6974834437086				0.575788079470199	-0.142834437086093	-0.628238410596026	9.82039735099338	61.1976158940397	29.485298013245			
52	1040	-0.344158940397351	-0.0292450331125828	-0.951523178807947	0.0333774834437086	11.3353642384106	3.85509933774834				0.896953642384106	-0.000211920529801304	0.541139072847682	-14.9660927152318	79.8278145695364	19.8540397350993				-0.250172185430464	-0.177271523178808	-0.88794701986755	17.087417218543	11.0664900662252	-1.88026490066225				0.608529801324503	-0.0645298013245033	-0.661721854304636	6.96291390728477	57.0235761589404	-38.9756291390729				0.868026490066225	0.147496688741722	0.293933774834437	19.5517880794702	56.0519205298013	-11.5374834437086				0.607788079470199	-0.158834437086093	-0.628238410596026	3.66039735099338	66.7976158940397	32.005298013245			
53	1060	-0.360158940397351	0.0827549668874172	-0.919523178807947	-4.72662251655629	-1.5446357615894	46.6950993377484				0.896953642384106	-0.000211920529801304	0.461139072847682	-16.0860927152318	78.4278145695364	17.3340397350993				-0.250172185430464	-0.209271523178808	-0.91994701986755	18.2074172185431	13.0264900662252	-2.72026490066225				0.704529801324503	-0.0645298013245033	-0.645721854304636	-1.71708609271523	53.3835761589404	-40.3756291390728				0.868026490066225	0.163496688741722	0.325933774834437	25.1517880794702	62.2119205298013	-14.3374834437086				0.655788079470199	-0.206834437086093	-0.596238410596026	12.0603973509934	70.7176158940397	33.125298013245			
54	1080	-0.312158940397351	0.578754966887417	-0.887523178807947	54.0733774834437	-22.2646357615894	6.09509933774834				0.896953642384106	0.0317880794701987	0.573139072847682	-14.6860927152318	66.6678145695364	17.3340397350993				-0.234172185430464	-0.257271523178808	-0.88794701986755	20.447417218543	7.42649006622517	-6.92026490066225				0.768529801324503	-0.000529801324503289	-0.645721854304636	-1.43708609271523	55.0635761589404	-34.7756291390728				0.884026490066225	0.147496688741722	0.405933774834437	25.7117880794702	66.1319205298013	-14.8974834437086				0.703788079470199	-0.222834437086093	-0.580238410596026	10.1003973509934	70.1576158940397	32.565298013245			
55	1100	-0.248158940397351	0.370754966887417	-0.887523178807947	18.5133774834437	20.0153642384106	10.8550993377483				0.816953642384106	0.111788079470199	0.605139072847682	2.67390728476821	69.7478145695364	20.1340397350993				-0.266172185430464	-0.225271523178808	-0.88794701986755	21.287417218543	13.5864900662252	-10.0002649006623				0.848529801324503	-0.000529801324503289	-0.661721854304636	18.7229139072848	66.2635761589404	-26.9356291390729				0.916026490066225	0.195496688741722	0.389933774834437	22.3517880794702	55.7719205298013	-15.4574834437086				0.735788079470199	-0.222834437086093	-0.564238410596026	10.9403973509934	70.7176158940397	28.645298013245			
56	1120	-0.216158940397351	0.0667549668874172	-0.951523178807947	-6.68662251655629	23.3753642384106	26.8150993377483				0.768953642384106	0.0637880794701987	0.717139072847682	28.7139072847682	73.3878145695364	26.2940397350993				-0.234172185430464	-0.145271523178808	-0.82394701986755	22.967417218543	12.1864900662252	-9.16026490066225				0.784529801324503	-0.0805298013245033	-0.661721854304636	19.8429139072848	67.6635761589404	-25.5356291390728				0.852026490066225	0.195496688741722	0.437933774834437	30.4717880794702	51.8519205298013	-15.4574834437086				0.735788079470199	-0.254834437086093	-0.548238410596027	14.0203973509934	70.7176158940397	23.885298013245			
57	1140	-0.216158940397351	0.130754966887417	-0.999523178807947	-9.20662251655629	23.3753642384106	27.6550993377483				0.784953642384106	-0.0322119205298013	0.621139072847682	24.2339072847682	61.9078145695364	21.8140397350993				-0.170172185430464	-0.193271523178808	-0.90394701986755	24.087417218543	9.10649006622517	-8.32026490066225				0.928529801324503	-0.0485298013245033	-0.645721854304636	-3.11708609271523	45.8235761589404	-21.3356291390729				0.820026490066225	0.179496688741722	0.501933774834437	36.9117880794702	53.5319205298013	-13.7774834437086				0.735788079470199	-0.302834437086093	-0.516238410596026	21.0203973509934	72.1176158940397	19.685298013245			
58	1160	-0.200158940397351	0.210754966887417	-0.967523178807947	-18.4466225165563	28.9753642384106	19.5350993377483				0.800953642384106	-0.0642119205298013	0.685139072847682	3.23390728476821	57.7078145695364	15.0940397350993				-0.202172185430464	-0.273271523178808	-0.96794701986755	20.1674172185431	10.7864900662252	-10.8402649006623				1.0085298013245	-0.128529801324503	-0.693721854304636	-15.1570860927152	20.0635761589404	-12.9356291390728				0.900026490066225	0.163496688741722	0.533933774834437	39.1517880794702	52.6919205298013	-13.4974834437086				0.751788079470199	-0.350834437086093	-0.484238410596026	28.0203973509934	65.9576158940397	19.965298013245			
59	1180	-0.280158940397351	0.274754966887417	-0.967523178807947	-56.8066225165563	34.2953642384106	19.2550993377483				0.784953642384106	-0.0642119205298013	0.717139072847682	12.1939072847682	49.3078145695364	21.8140397350993				-0.266172185430464	-0.241271523178808	-0.83994701986755	22.6874172185431	13.8664900662252	-14.7602649006622				0.864529801324503	-0.160529801324503	-0.741721854304636	-25.7970860927152	15.0235761589404	-14.6156291390728				0.900026490066225	0.115496688741722	0.517933774834437	38.0317880794702	47.9319205298013	-17.4174834437086				0.815788079470199	-0.398834437086093	-0.484238410596026	22.4203973509934	60.0776158940397	17.445298013245			
60	1200	-0.088158940397351	0.386754966887417	-0.903523178807947	-61.0066225165563	35.9753642384106	17.5750993377483				0.816953642384106	-0.224211920529801	0.893139072847682	24.7939072847682	40.3478145695364	27.6940397350993				-0.250172185430464	-0.257271523178808	-0.85594701986755	31.6474172185431	17.7864900662252	-17.2802649006623				0.832529801324503	-0.0165298013245033	-0.709721854304636	-38.6770860927152	13.9035761589404	-18.5356291390728				0.932026490066225	0.115496688741722	0.565933774834437	36.6317880794702	48.2119205298013	-21.0574834437086				0.895788079470199	-0.382834437086093	-0.548238410596027	0.580397350993377	54.4776158940397	15.765298013245			
61	1220	-0.152158940397351	0.322754966887417	-0.951523178807947	-50.6466225165563	32.8953642384106	11.9750993377483				0.768953642384106	-0.0642119205298013	0.877139072847682	5.19390728476821	52.6678145695364	15.3740397350993				-0.282172185430464	-0.241271523178808	-0.83994701986755	37.247417218543	40.7464900662252	-18.1202649006623				0.880529801324503	0.0794701986754967	-0.677721854304636	-29.9970860927152	5.5035761589404	-19.0956291390728				0.980026490066225	0.163496688741722	0.629933774834437	33.2717880794702	42.0519205298013	-22.1774834437086				0.911788079470199	-0.366834437086093	-0.580238410596026	12.0603973509934	49.1576158940397	8.48529801324503			
62	1240	-0.296158940397351	0.386754966887417	-0.999523178807947	-45.3266225165563	30.0953642384106	7.21509933774835				0.880953642384106	-0.000211920529801304	0.829139072847682	11.0739072847682	60.2278145695364	15.6540397350993				-0.234172185430464	-0.353271523178808	-0.96794701986755	35.007417218543	42.4264900662252	-18.6802649006623				0.928529801324503	0.111470198675497	-0.597721854304636	-21.8770860927152	1.8635761589404	-20.2156291390728				0.964026490066225	0.243496688741722	0.645933774834437	26.5517880794702	35.6119205298013	-23.8574834437086				0.895788079470199	-0.414834437086093	-0.516238410596026	25.5003973509934	39.6376158940397	3.44529801324503			
63	1260	-0.280158940397351	0.418754966887417	-0.887523178807947	-25.4466225165563	33.7353642384106	4.41509933774834				0.912953642384106	-0.0162119205298013	0.989139072847682	12.7539072847682	51.5478145695364	17.3340397350993				-0.250172185430464	-0.417271523178808	-0.90394701986755	1.96741721854305	27.0264900662252	-14.7602649006622				0.928529801324503	0.191470198675497	-0.565721854304636	-23.2770860927152	-7.3764238410596	-24.6956291390729				0.932026490066225	0.355496688741722	0.613933774834437	19.2717880794702	36.7319205298013	-21.8974834437086				0.943788079470199	-0.494834437086093	-0.452238410596026	27.4603973509934	39.9176158940397	4.56529801324503			
64	1280	-0.312158940397351	0.306754966887417	-0.983523178807947	-18.7266225165563	39.8953642384106	4.97509933774835				0.896953642384106	-0.0642119205298013	1.02113907284768	24.7939072847682	44.8278145695364	20.1340397350993				-0.282172185430464	-0.321271523178808	-1.01594701986755	-12.032582781457	25.3464900662252	-15.8802649006623				0.896529801324503	0.239470198675497	-0.629721854304636	-18.5170860927152	-2.8964238410596	-27.2156291390728				0.996026490066225	0.387496688741722	0.693933774834437	29.9117880794702	41.2119205298013	-20.7774834437086				1.0237880794702	-0.526834437086093	-0.468238410596026	15.4203973509934	36.5576158940397	11.285298013245			
65	1300	-0.264158940397351	0.418754966887417	-1.01552317880795	-18.7266225165563	47.1753642384106	4.41509933774834				0.960953642384106	-0.0162119205298013	1.06913907284768	27.3139072847682	46.7878145695364	20.4140397350993				-0.250172185430464	-0.321271523178808	-0.88794701986755	-2.79258278145695	35.7064900662252	-17.2802649006623				0.992529801324503	0.191470198675497	-0.693721854304636	3.32291390728477	19.7835761589404	-30.8556291390729				1.07602649006623	0.371496688741722	0.805933774834437	33.8317880794702	43.1719205298013	-21.0574834437086				1.1517880794702	-0.542834437086093	-0.468238410596026	8.14039735099338	37.1176158940397	16.325298013245			
66	1320	-0.200158940397351	0.418754966887417	-0.967523178807947	-8.36662251655629	52.7753642384106	4.13509933774834				0.992953642384106	0.0157880794701987	1.05313907284768	36.8339072847682	16.8278145695364	18.7340397350993				-0.282172185430464	-0.305271523178808	-0.91994701986755	-8.11258278145695	44.3864900662252	-20.0802649006623				1.1845298013245	0.175470198675497	-0.677721854304636	8.64291390728477	26.5035761589404	-35.6156291390729				1.12402649006623	0.371496688741722	0.821933774834437	29.9117880794702	37.5719205298013	-21.3374834437086				1.2317880794702	-0.526834437086093	-0.452238410596026	4.78039735099338	41.5976158940397	14.085298013245			
67	1340	-0.232158940397351	0.386754966887417	-0.983523178807947	2.55337748344371	60.0553642384106	4.41509933774834				0.896953642384106	-0.0642119205298013	1.02113907284768	43.8339072847682	-0.252185430463576	17.3340397350993				-0.234172185430464	-0.289271523178808	-1.01594701986755	-9.51258278145695	57.8264900662252	-22.8802649006623				1.2325298013245	0.207470198675497	-0.645721854304636	-13.7570860927152	6.9035761589404	-33.0956291390728				1.06002649006623	0.467496688741722	0.773933774834437	23.7517880794702	26.6519205298013	-16.8574834437086				1.2477880794702	-0.510834437086093	-0.420238410596026	-7.25960264900662	42.7176158940397	13.525298013245			
68	1360	-0.184158940397351	0.370754966887417	-0.967523178807947	6.47337748344371	69.2953642384106	5.81509933774834				0.928953642384106	-0.144211920529801	1.05313907284768	35.7139072847682	7.02781456953642	12.5740397350993				-0.106172185430464	-0.241271523178808	-0.96794701986755	-6.15258278145695	67.0664900662252	-26.8002649006623				1.1205298013245	0.255470198675497	-0.677721854304636	-8.99708609271523	14.4635761589404	-22.4556291390729				1.02802649006623	0.467496688741722	0.853933774834437	32.7117880794702	21.0519205298013	-9.57748344370861				1.2637880794702	-0.494834437086093	-0.388238410596026	-3.89960264900662	44.3976158940397	12.125298013245			
69	1380	-0.168158940397351	0.322754966887417	-1.01552317880795	11.7933774834437	75.4553642384106	7.77509933774834				1.04095364238411	-0.0322119205298013	1.10113907284768	26.7539072847682	-9.49218543046358	8.65403973509934				-0.0741721854304636	-0.273271523178808	-0.95194701986755	-8.39258278145695	72.1064900662252	-31.8402649006623				1.0405298013245	0.223470198675497	-0.709721854304636	21.8029139072848	23.7035761589404	-8.45562913907285				1.14002649006623	0.371496688741722	0.901933774834437	40.5517880794702	20.7719205298013	-8.17748344370861				1.3277880794702	-0.558834437086093	-0.420238410596026	15.9803973509934	39.6376158940397	4.28529801324503			
70	1400	-0.120158940397351	0.354754966887417	-1.01552317880795	15.9933774834437	84.6953642384106	10.2950993377483				1.00895364238411	0.0317880794701987	0.941139072847682	35.1539072847682	-43.9321854304636	9.21403973509934				-0.0741721854304636	-0.257271523178808	-1.04794701986755	-0.832582781456954	79.3864900662252	-33.8002649006623				1.1205298013245	0.127470198675497	-0.821721854304636	33.5629139072848	27.3435761589404	3.02437086092715				1.18802649006623	0.339496688741722	0.853933774834437	16.4717880794702	5.37192052980133	-8.45748344370861				1.2637880794702	-0.590834437086093	-0.372238410596026	21.3003973509934	37.1176158940397	-13.074701986755			
71	1420	-0.008158940397351	0.418754966887417	-0.999523178807947	23.8333774834437	90.0153642384106	11.6950993377483				0.976953642384106	-0.000211920529801304	0.989139072847682	38.5139072847682	-39.7321854304636	3.61403973509934				0.0858278145695364	-0.305271523178808	-1.04794701986755	7.28741721854305	85.2664900662252	-31.8402649006623				1.0405298013245	0.0954701986754967	-0.869721854304636	14.5229139072848	23.1435761589404	0.224370860927152				1.10802649006623	0.403496688741722	0.757933774834437	2.1917880794702	-5.54807947019868	-7.33748344370861				1.2957880794702	-0.622834437086093	-0.372238410596026	4.78039735099338	37.1176158940397	-21.194701986755			
72	1440	0.055841059602649	0.338754966887417	-1.04752317880795	36.9933774834437	97.0153642384106	15.6150993377483				1.00895364238411	-0.0482119205298013	1.06913907284768	35.1539072847682	-24.0521854304636	2.21403973509934				0.133827814569536	-0.385271523178808	-0.93594701986755	0.00741721854304636	92.2664900662252	-31.0002649006623				0.976529801324503	0.127470198675497	-0.757721854304636	4.16291390728477	20.3435761589404	-1.73562913907285				1.06002649006623	0.435496688741722	0.709933774834437	4.9917880794702	-5.54807947019868	-6.21748344370861				1.2317880794702	-0.590834437086093	-0.436238410596026	-13.9796026490066	35.4376158940397	-14.754701986755			
73	1460	0.007841059602649	0.290754966887417	-1.03152317880795	39.7933774834437	105.135364238411	11.9750993377483				1.00895364238411	-0.144211920529801	1.03713907284768	15.2739072847682	-25.1721854304636	-3.10596026490066				0.213827814569536	-0.417271523178808	-1.01594701986755	-4.75258278145695	101.226490066225	-32.1202649006623				0.944529801324503	0.159470198675497	-0.677721854304636	7.80291390728477	22.8635761589404	0.504370860927152				1.04402649006623	0.371496688741722	0.725933774834437	2.1917880794702	-3.86807947019868	-4.25748344370861				1.2157880794702	-0.526834437086093	-0.452238410596026	-27.4196026490066	30.6776158940397	-2.99470198675497			
74	1480	0.135841059602649	0.306754966887417	-0.999523178807947	42.0333774834437	111.295364238411	20.0950993377483				1.08895364238411	0.0637880794701987	0.893139072847682	5.19390728476821	-35.8121854304636	-15.7059602649007				0.293827814569536	-0.353271523178808	-0.99994701986755	-7.83258278145695	107.666490066225	-30.1602649006623				1.0085298013245	0.207470198675497	-0.661721854304636	19.0029139072848	31.5435761589404	9.46437086092715				1.02802649006623	0.355496688741722	0.677933774834437	-9.8482119205298	-7.78807947019868	-0.337483443708608				1.1997880794702	-0.446834437086093	-0.452238410596026	-29.3796026490066	29.2776158940397	2.04529801324503			
75	1500	0.231841059602649	0.290754966887417	-0.967523178807947	50.7133774834437	115.215364238411	20.9350993377483				1.00895364238411	0.159788079470199	0.733139072847682	32.6339072847682	-56.5321854304636	-16.2659602649007				0.245827814569536	-0.241271523178808	-0.93594701986755	-1.11258278145695	108.786490066225	-24.8402649006623				0.992529801324503	0.191470198675497	-0.677721854304636	20.6829139072848	29.5835761589404	12.2643708609272				1.02802649006623	0.419496688741722	0.645933774834437	-11.8082119205298	-9.46807947019868	2.46251655629139				1.2157880794702	-0.414834437086093	-0.436238410596026	-17.0596026490066	29.5576158940397	-2.71470198675497			
76	1520	0.199841059602649	0.194754966887417	-0.999523178807947	56.8733774834437	112.415364238411	27.3750993377483				1.05695364238411	0.0637880794701987	0.589139072847682	44.3939072847682	-54.5721854304636	-14.3059602649007				0.229827814569536	-0.289271523178808	-0.93594701986755	8.68741721854305	107.386490066225	-18.4002649006623				0.992529801324503	0.127470198675497	-0.693721854304636	26.2829139072848	25.9435761589404	11.7043708609272				1.02802649006623	0.419496688741722	0.597933774834437	-17.1282119205298	-17.8680794701987	3.86251655629139				1.1517880794702	-0.398834437086093	-0.404238410596026	-13.1396026490066	17.2376158940397	-9.71470198675497			
77	1540	0.167841059602649	0.210754966887417	-0.903523178807947	46.2333774834437	119.415364238411	3.85509933774834				0.848953642384106	-0.112211920529801	0.861139072847682	16.1139072847682	-29.3721854304636	-14.0259602649007				0.293827814569536	-0.385271523178808	-1.04794701986755	-2.23258278145695	103.186490066225	-13.3602649006623				0.976529801324503	0.0474701986754967	-0.693721854304636	31.6029139072848	20.0635761589404	10.0243708609272				0.948026490066225	0.355496688741722	0.565933774834437	-8.4482119205298	-29.9080794701987	7.22251655629139				1.0877880794702	-0.382834437086093	-0.404238410596026	-20.4196026490066	7.71761589403974	-12.794701986755			
78	1560	0.231841059602649	0.274754966887417	-0.887523178807947	70.8733774834437	110.175364238411	24.2950993377483				0.864953642384106	0.0317880794701987	0.893139072847682	-15.2460927152318	-13.9721854304636	-10.3859602649007				0.309827814569536	-0.449271523178808	-0.82394701986755	-10.072582781457	109.906490066225	-13.3602649006623				0.992529801324503	0.0474701986754967	-0.645721854304636	17.0429139072848	11.1035761589404	7.50437086092715				0.868026490066225	0.323496688741722	0.613933774834437	-14.3282119205298	-25.1480794701987	6.38251655629139				1.0077880794702	-0.350834437086093	-0.436238410596026	-19.0196026490066	6.03761589403974	-9.43470198675497			
79	1580	0.327841059602649	0.146754966887417	-0.791523178807947	75.0733774834437	115.775364238411	21.4950993377483				0.960953642384106	0.0637880794701987	0.765139072847682	-17.7660927152318	-19.2921854304636	-6.46596026490066				0.357827814569536	-0.257271523178808	-0.75994701986755	-24.352582781457	116.346490066225	-17.2802649006623				0.896529801324503	0.0954701986754967	-0.597721854304636	0.802913907284768	2.1435761589404	7.50437086092715				0.868026490066225	0.355496688741722	0.645933774834437	-16.5682119205298	-25.1480794701987	8.06251655629139				0.991788079470199	-0.334834437086093	-0.372238410596026	-15.9396026490066	4.35761589403974	-4.67470198675497			
80	1600	0.487841059602649	0.0347549668874172	-0.823523178807947	54.6333774834437	123.615364238411	24.2950993377483				0.944953642384106	0.0637880794701987	0.669139072847682	-2.08609271523179	-43.6521854304636	-13.4659602649007				0.405827814569536	-0.0812715231788079	-0.77594701986755	-14.552582781457	120.546490066225	-20.6402649006623				0.848529801324503	0.143470198675497	-0.533721854304636	7.52291390728477	2.4235761589404	7.22437086092715				0.900026490066225	0.355496688741722	0.501933774834437	-17.4082119205298	-27.9480794701987	10.0225165562914				1.0077880794702	-0.366834437086093	-0.292238410596026	-17.3396026490066	3.23761589403974	-1.03470198675497			
81	1620	0.471841059602649	0.0667549668874172	-0.791523178807947	38.1133774834437	119.135364238411	25.1350993377483				0.816953642384106	0.0797880794701987	0.557139072847682	9.67390728476821	-60.7321854304636	-10.1059602649007				0.437827814569536	-0.0652715231788079	-0.71194701986755	-0.272582781456954	118.306490066225	-20.3602649006623				0.816529801324503	0.111470198675497	-0.517721854304636	20.6829139072848	3.2635761589404	9.46437086092715				0.852026490066225	0.291496688741722	0.469933774834437	-15.7282119205298	-31.0280794701987	11.1425165562914				1.0397880794702	-0.382834437086093	-0.260238410596026	-20.4196026490066	-4.60238410596027	-3.83470198675497			
82	1640	0.471841059602649	0.0347549668874172	-0.775523178807947	26.9133774834437	123.055364238411	22.8950993377483				0.768953642384106	0.0317880794701987	0.541139072847682	-3.48609271523179	-41.4121854304636	-6.18596026490066				0.485827814569536	-0.209271523178808	-0.71194701986755	0.847417218543046	114.666490066225	-13.9202649006623				0.848529801324503	0.127470198675497	-0.469721854304636	23.2029139072848	-0.6564238410596	9.74437086092715				0.788026490066225	0.291496688741722	0.501933774834437	-22.4482119205298	-35.7880794701987	13.9425165562914				0.975788079470199	-0.366834437086093	-0.308238410596026	-10.0596026490066	-14.9623841059603	-4.39470198675497			
83	1660	0.487841059602649	0.0187549668874172	-0.679523178807947	26.3533774834437	127.815364238411	21.7750993377483				0.784953642384106	0.0957880794701987	0.637139072847682	-16.0860927152318	-25.4521854304636	-6.46596026490066				0.517827814569536	-0.305271523178808	-0.69594701986755	-9.51258278145695	116.626490066225	-10.8402649006623				0.832529801324503	0.159470198675497	-0.453721854304636	22.6429139072848	-6.2564238410596	8.06437086092715				0.788026490066225	0.275496688741722	0.565933774834437	-23.2882119205298	-41.1080794701987	17.3025165562914				0.879788079470199	-0.350834437086093	-0.292238410596026	-3.05960264900662	-12.4423841059603	-3.27470198675497			
84	1680	0.487841059602649	0.0827549668874172	-0.679523178807947	16.5533774834437	131.175364238411	20.0950993377483				0.816953642384106	0.0797880794701987	0.653139072847682	-9.36609271523179	-29.0921854304636	-7.58596026490066				0.517827814569536	-0.257271523178808	-0.61594701986755	-26.032582781457	120.546490066225	-12.5202649006623				0.800529801324503	0.159470198675497	-0.421721854304636	30.7629139072848	-9.0564238410596	6.10437086092715				0.756026490066225	0.307496688741722	0.549933774834437	-20.7682119205298	-39.4280794701987	17.8625165562914				0.831788079470199	-0.302834437086093	-0.292238410596026	-19.8596026490066	-15.8023841059603	5.12529801324503			
85	1700	0.567841059602649	0.0987549668874172	-0.663523178807947	12.9133774834437	136.775364238411	16.4550993377483				0.816953642384106	0.0157880794701987	0.605139072847682	0.993907284768212	-45.8921854304636	-6.18596026490066				0.501827814569536	-0.145271523178808	-0.56794701986755	-30.512582781457	126.706490066225	-13.6402649006623				0.800529801324503	0.0954701986754967	-0.421721854304636	34.4029139072848	-10.7364238410596	4.14437086092715				0.740026490066225	0.275496688741722	0.501933774834437	-19.9282119205298	-42.7880794701987	18.7025165562914				0.847788079470199	-0.334834437086093	-0.292238410596026	2.54039735099338	-31.7623841059603	9.32529801324503			
86	1720	0.631841059602649	0.0987549668874172	-0.647523178807947	12.0733774834437	140.695364238411	12.5350993377483				0.832953642384106	-0.000211920529801304	0.525139072847682	-6.00609271523179	-56.2521854304636	-2.54596026490066				0.501827814569536	-0.0812715231788079	-0.48794701986755	-27.432582781457	129.226490066225	-11.6802649006622				0.800529801324503	0.0474701986754967	-0.421721854304636	28.5229139072848	-10.1764238410596	4.98437086092715				0.724026490066225	0.227496688741722	0.485933774834437	-18.8082119205298	-41.9480794701987	21.2225165562914				0.863788079470199	-0.382834437086093	-0.244238410596026	-4.73960264900662	-31.7623841059603	12.965298013245			
87	1740	0.647841059602649	0.0667549668874172	-0.615523178807947	10.6733774834437	143.495364238411	10.2950993377483				0.752953642384106	-0.0802119205298013	0.557139072847682	-17.7660927152318	-51.2121854304636	3.61403973509934				0.549827814569536	-0.0972715231788079	-0.53594701986755	-20.992582781457	130.346490066225	-8.60026490066225				0.704529801324503	0.0634701986754967	-0.373721854304636	22.0829139072848	-7.0964238410596	6.10437086092715				0.724026490066225	0.195496688741722	0.453933774834437	-19.0882119205298	-36.3480794701987	22.0625165562914				0.783788079470199	-0.334834437086093	-0.260238410596026	-37.2196026490066	-25.8823841059603	18.285298013245			
88	1760	0.663841059602649	0.0827549668874172	-0.583523178807947	15.9933774834437	147.135364238411	7.77509933774834				0.688953642384106	0.0317880794701987	0.541139072847682	-30.3660927152318	-54.5721854304636	-2.54596026490066				0.645827814569536	-0.0972715231788079	-0.48794701986755	-11.752582781457	131.466490066225	-6.64026490066225				0.688529801324503	0.111470198675497	-0.309721854304636	27.6829139072848	-3.1764238410596	6.66437086092715				0.740026490066225	0.227496688741722	0.437933774834437	-20.7682119205298	-39.9880794701987	23.4625165562914				0.719788079470199	-0.254834437086093	-0.276238410596026	-20.4196026490066	-31.2023841059603	17.445298013245			
89	1780	0.695841059602649	0.0347549668874172	-0.471523178807947	15.4333774834437	148.535364238411	1.89509933774834				0.704953642384106	-0.000211920529801304	0.477139072847682	-29.8060927152318	-52.8921854304636	-2.82596026490066				0.773827814569536	-0.113271523178808	-0.48794701986755	-16.232582781457	133.146490066225	-7.20026490066225				0.704529801324503	0.143470198675497	-0.309721854304636	42.2429139072848	-0.0964238410596001	8.62437086092715				0.692026490066225	0.227496688741722	0.421933774834437	-18.8082119205298	-46.1480794701987	25.7025165562914				0.671788079470199	-0.222834437086093	-0.244238410596026	-13.4196026490066	-36.8023841059603	12.405298013245			
90	1800	0.759841059602649	0.0667549668874172	-0.423523178807947	12.6333774834437	149.095364238411	-2.86490066225166				0.720953642384106	0.0637880794701987	0.397139072847682	-21.1260927152318	-58.2121854304636	-3.66596026490066				0.789827814569536	-0.145271523178808	-0.40794701986755	-19.592582781457	130.346490066225	-12.2402649006623				0.752529801324503	0.0634701986754967	-0.309721854304636	47.0029139072848	-6.5364238410596	13.3843708609272				0.692026490066225	0.211496688741722	0.357933774834437	-14.3282119205298	-51.4680794701987	27.9425165562914				0.639788079470199	-0.206834437086093	-0.244238410596026	-17.0596026490066	-36.5223841059603	4.84529801324503			
91	1820	0.887841059602649	0.0347549668874172	-0.407523178807947	8.99337748344371	150.495364238411	-7.34490066225166				0.672953642384106	0.127788079470199	0.333139072847682	-7.96609271523179	-64.9321854304636	-2.26596026490066				0.757827814569536	-0.129271523178808	-0.37594701986755	-27.432582781457	136.226490066225	-12.2402649006623				0.752529801324503	-0.000529801324503289	-0.325721854304636	36.3629139072848	-12.1364238410596	14.7843708609272				0.676026490066225	0.227496688741722	0.325933774834437	-8.7282119205298	-58.7480794701987	29.0625165562914				0.623788079470199	-0.206834437086093	-0.244238410596026	-7.53960264900662	-37.3623841059603	-1.87470198675497			
92	1840	0.887841059602649	0.0507549668874172	-0.375523178807947	4.23337748344371	146.855364238411	-9.02490066225166				0.640953642384106	0.0957880794701987	0.333139072847682	-2.36609271523179	-61.2921854304636	1.65403973509934				0.693827814569536	-0.145271523178808	-0.32794701986755	-25.472582781457	130.066490066225	-4.68026490066225				0.672529801324503	-0.000529801324503289	-0.341721854304636	19.5629139072848	-16.0564238410596	14.5043708609272				0.660026490066225	0.211496688741722	0.293933774834437	-6.7682119205298	-62.6680794701987	29.6225165562914				0.607788079470199	-0.222834437086093	-0.228238410596026	-10.0596026490066	-37.9223841059603	-5.23470198675497			
93	1860	0.743841059602649	0.0827549668874172	-0.311523178807947	7.03337748344371	149.935364238411	-8.46490066225166				0.576953642384106	0.143788079470199	0.349139072847682	-0.966092715231788	-63.2521854304636	0.25403973509934				0.693827814569536	-0.113271523178808	-0.26394701986755	-15.392582781457	131.186490066225	0.91973509933775				0.560529801324503	0.0474701986754967	-0.325721854304636	26.0029139072848	-11.0164238410596	16.7443708609272				0.628026490066225	0.179496688741722	0.277933774834437	-2.5682119205298	-68.8280794701987	28.7825165562914				0.559788079470199	-0.222834437086093	-0.260238410596026	-17.3396026490066	-41.0023841059603	-6.63470198675497			
94	1880	0.727841059602649	0.0347549668874172	-0.215523178807947	20.1933774834437	149.375364238411	-11.5449006622517				0.512953642384106	0.175788079470199	0.349139072847682	0.153907284768212	-57.0921854304636	-3.94596026490066				0.741827814569536	-0.0332715231788079	-0.24794701986755	-9.79258278145695	130.066490066225	2.87973509933775				0.432529801324503	0.0314701986754967	-0.293721854304636	44.2029139072848	-7.6564238410596	18.7043708609272				0.532026490066225	0.179496688741722	0.229933774834437	-3.4082119205298	-77.7880794701987	28.7825165562914				0.511788079470199	-0.190834437086093	-0.276238410596026	-22.9396026490066	-48.8423841059603	-4.11470198675497			
95	1900	0.839841059602649	0.0827549668874172	-0.263523178807947	26.6333774834437	145.175364238411	-10.1449006622517				0.576953642384106	0.0637880794701987	0.365139072847682	-3.20609271523179	-45.3321854304636	-1.42596026490066				0.805827814569536	-0.0652715231788079	-0.27994701986755	-12.592582781457	130.346490066225	3.43973509933775				0.400529801324503	-0.0165298013245033	-0.341721854304636	53.4429139072848	-6.2564238410596	17.8643708609272				0.484026490066225	0.163496688741722	0.181933774834437	-0.888211920529802	-72.4680794701987	27.1025165562914				0.479788079470199	-0.110834437086093	-0.244238410596026	-20.6996026490066	-58.0823841059603	-2.99470198675497			
96	1920	0.807841059602649	0.0987549668874172	-0.231523178807947	14.5933774834437	143.215364238411	-8.18490066225166				0.544953642384106	0.0637880794701987	0.349139072847682	-7.40609271523179	-47.8521854304636	-0.30596026490066				0.853827814569536	-0.0972715231788079	-0.23194701986755	-15.952582781457	124.746490066225	3.15973509933775				0.496529801324503	-0.0485298013245033	-0.341721854304636	41.4029139072848	-11.0164238410596	18.1443708609272				0.548026490066225	0.0994966887417219	0.229933774834437	2.7517880794702	-60.1480794701987	24.5825165562914				0.479788079470199	-0.0948344370860927	-0.276238410596026	-17.0596026490066	-60.6023841059603	-5.23470198675497			
97	1940	0.791841059602649	0.0667549668874172	-0.151523178807947	27.1933774834437	147.695364238411	-11.5449006622517				0.480953642384106	0.0797880794701987	0.365139072847682	1.27390728476821	-47.2921854304636	2.77403973509934				0.853827814569536	-0.0972715231788079	-0.19994701986755	-20.992582781457	114.386490066225	1.75973509933775				0.480529801324503	-0.0485298013245033	-0.341721854304636	26.0029139072848	-12.4164238410596	18.9843708609272				0.596026490066225	0.0994966887417219	0.181933774834437	-3.1282119205298	-65.4680794701987	24.5825165562914				0	0	0	0	0	0			
98	1960	0	0	0	0	0	0				0.512953642384106	0.0637880794701987	0.381139072847682	10.7939072847682	-38.8921854304636	3.33403973509934				0.773827814569536	-0.113271523178808	-0.19994701986755	-15.672582781457	100.946490066225	-1.04026490066225				0	0	0	0	0	0				0	0	0	0	0	0				0.527788079470199	-0.190834437086093	-0.276238410596026	-17.0596026490066	-56.4023841059603	-18.114701986755			
99	1980	1.01584105960265	0.0187549668874172	-0.023523178807947	14.5933774834437	117.455364238411	-9.30490066225166				0.560953642384106	0.0797880794701987	0.381139072847682	9.95390728476821	-30.4921854304636	-0.30596026490066				0.789827814569536	-0.0972715231788079	-0.13594701986755	-9.51258278145695	89.1864900662252	-2.72026490066225				0.480529801324503	-0.0645298013245033	-0.341721854304636	50.0829139072848	-5.9764238410596	20.1043708609272				0.548026490066225	0.115496688741722	0.133933774834437	-0.0482119205298018	-61.5480794701987	24.0225165562914				0.479788079470199	-0.190834437086093	-0.260238410596026	-20.1396026490066	-53.3223841059603	-14.474701986755			
100	2000	0.887841059602649	0.0827549668874172	-0.039523178807947	14.5933774834437	95.0553642384106	-9.02490066225166				0.544953642384106	0.0797880794701987	0.413139072847682	5.75390728476821	-24.8921854304636	-0.86596026490066				0.901827814569536	-0.129271523178808	-0.0879470198675496	-4.47258278145695	84.7064900662252	-0.76026490066225				0.544529801324503	-0.128529801324503	-0.389721854304636	59.3229139072848	-6.8164238410596	26.2643708609272				0.564026490066225	0.0994966887417219	0.181933774834437	-0.328211920529802	-55.3880794701987	21.5025165562914				0.479788079470199	-0.158834437086093	-0.308238410596026	-20.4196026490066	-48.5623841059603	-10.554701986755			
101	2020	0.775841059602649	0.146754966887417	0.00847682119205304	22.7133774834437	79.3753642384106	-6.22490066225166				0.592953642384106	0.0157880794701987	0.461139072847682	6.03390728476821	-17.8921854304636	2.49403973509934				0.933827814569536	-0.177271523178808	-0.0719470198675496	-7.55258278145695	79.3864900662252	-0.76026490066225				0.576529801324503	-0.144529801324503	-0.437721854304636	35.2429139072848	-13.2564238410596	30.7443708609272				0.612026490066225	0.0994966887417219	0.197933774834437	-6.2082119205298	-46.4280794701987	19.5425165562914				0.511788079470199	-0.174834437086093	-0.356238410596026	-5.85960264900662	-50.8023841059603	-9.15470198675497			
102	2040	0.839841059602649	0.130754966887417	0.104476821192053	22.1533774834437	74.6153642384106	-5.94490066225166				0.704953642384106	0.0637880794701987	0.461139072847682	-6.84609271523179	-19.2921854304636	3.89403973509934				0.917827814569536	-0.225271523178808	-0.0399470198675496	-2.51258278145695	64.5464900662252	1.75973509933775				0.672529801324503	-0.112529801324503	-0.501721854304636	17.6029139072848	-17.4564238410596	29.3443708609272				0.692026490066225	0.115496688741722	0.165933774834437	-3.9682119205298	-42.7880794701987	17.8625165562914				0.527788079470199	-0.190834437086093	-0.404238410596026	6.46039735099338	-49.4023841059603	-8.03470198675497			
103	2060	0.951841059602649	0.0827549668874172	0.040476821192053	21.3133774834437	71.2553642384106	-6.50490066225166				0.720953642384106	-0.000211920529801304	0.397139072847682	-16.3660927152318	-28.8121854304636	8.93403973509934				0.901827814569536	-0.241271523178808	0.00805298013245037	-6.99258278145695	49.9864900662252	7.63973509933775				0.672529801324503	-0.160529801324503	-0.533721854304636	14.2429139072848	-16.3364238410596	25.7043708609272				0.740026490066225	0.0994966887417219	0.149933774834437	-0.608211920529802	-35.2280794701987	15.0625165562914				0.575788079470199	-0.238834437086093	-0.420238410596026	13.4603973509934	-41.0023841059603	-6.35470198675497			
104	2080	0.999841059602649	0.00275496688741723	0.024476821192053	19.0733774834437	59.2153642384106	-3.70490066225166				0.736953642384106	0.0797880794701987	0.429139072847682	-33.1660927152318	-13.6921854304636	3.89403973509934				0.965827814569536	-0.225271523178808	0.00805298013245037	-13.712582781457	40.7464900662252	9.87973509933775				0.576529801324503	-0.224529801324503	-0.565721854304636	13.6829139072848	-14.9364238410596	18.9843708609272				0.772026490066225	0.0674966887417219	0.149933774834437	-4.2482119205298	-27.1080794701987	12.5425165562914				0.639788079470199	-0.270834437086093	-0.452238410596026	14.5803973509934	-37.3623841059603	-2.71470198675497			
105	2100	1.03184105960265	-0.0132450331125828	0.024476821192053	12.6333774834437	56.4153642384106	-2.86490066225166				0.800953642384106	0.0317880794701987	0.445139072847682	-22.8060927152318	-8.65218543046358	6.69403973509934				1.02982781456954	-0.209271523178808	0.00805298013245037	-15.952582781457	26.1864900662252	11.5597350993378				0.688529801324503	-0.176529801324503	-0.581721854304636	13.1229139072848	-9.6164238410596	12.2643708609272				0.852026490066225	0.0674966887417219	0.133933774834437	-11.2482119205298	-20.9480794701987	11.7025165562914				0.687788079470199	-0.302834437086093	-0.484238410596026	10.9403973509934	-34.5623841059603	6.52529801324503			
106	2120	1.06384105960265	0.00275496688741723	0.072476821192053	3.11337748344371	49.9753642384106	-5.66490066225166				0.864953642384106	-0.0642119205298013	0.445139072847682	-5.72609271523179	-6.97218543046358	12.8540397350993				1.02982781456954	-0.209271523178808	0.00805298013245037	-7.55258278145695	14.1464900662252	9.03973509933775				0.832529801324503	-0.176529801324503	-0.549721854304636	7.52291390728477	-9.0564238410596	11.9843708609272				0.964026490066225	0.0834966887417219	0.101933774834437	-11.2482119205298	-17.8680794701987	9.46251655629139				0.687788079470199	-0.302834437086093	-0.548238410596027	-6.41960264900662	-32.0423841059603	14.925298013245			
107	2140	1.04784105960265	0.00275496688741723	0.072476821192053	-5.84662251655629	29.8153642384106	-3.70490066225166				0.848953642384106	0.0317880794701987	0.413139072847682	-14.1260927152318	-4.73218543046358	10.6140397350993				0.949827814569536	-0.161271523178808	0.00805298013245037	-0.832582781456954	6.02649006622517	5.11973509933775				0.768529801324503	-0.192529801324503	-0.565721854304636	-3.39708609271523	-17.1764238410596	8.34437086092715				0.948026490066225	0.0674966887417219	0.117933774834437	-11.2482119205298	-17.0280794701987	11.4225165562914				0.671788079470199	-0.270834437086093	-0.612238410596026	-10.6196026490066	-30.3623841059603	19.125298013245			
108	2160	1.14384105960265	0.0347549668874172	-0.00752317880794696	-12.2866225165563	1.8153642384106	-0.0649006622516557				0.912953642384106	0.111788079470199	0.429139072847682	-22.8060927152318	17.6678145695364	8.65403973509934				1.06182781456954	-0.0972715231788079	-0.0239470198675496	6.44741721854305	1.82649006622517	4.83973509933775				0.672529801324503	-0.160529801324503	-0.613721854304636	-3.95708609271523	-21.9364238410596	1.62437086092715				0.868026490066225	0.0994966887417219	0.0699337748344371	-13.7682119205298	-13.6680794701987	12.8225165562914				0.703788079470199	-0.190834437086093	-0.676238410596026	-4.17960264900662	-20.8423841059603	16.045298013245			
109	2180	1.11184105960265	0.0187549668874172	-0.055523178807947	-16.4866225165563	-7.4246357615894	-0.0649006622516557				0.992953642384106	-0.0642119205298013	0.429139072847682	-15.2460927152318	28.8678145695364	11.4540397350993				1.12582781456954	-0.145271523178808	-0.00794701986754963	10.647417218543	1.82649006622517	5.39973509933775				0.736529801324503	-0.208529801324503	-0.565721854304636	4.44291390728477	-16.0564238410596	-0.335629139072848				0.948026490066225	0.0994966887417219	0.0539337748344371	-9.5682119205298	-8.06807947019868	12.2625165562914				0.687788079470199	-0.142834437086093	-0.692238410596026	14.8603973509934	-13.8423841059603	11.845298013245			
110	2200	0.903841059602649	0.00275496688741723	0.040476821192053	-12.0066225165563	-6.8646357615894	-0.904900662251656				0.880953642384106	-0.0482119205298013	0.493139072847682	-14.1260927152318	26.3478145695364	9.49403973509934				0.981827814569536	-0.193271523178808	0.00805298013245037	17.087417218543	0.426490066225167	2.87973509933775				0.848529801324503	-0.240529801324503	-0.549721854304636	7.24291390728477	-11.8564238410596	4.14437086092715				0.980026490066225	0.0514966887417219	0.117933774834437	-3.1282119205298	1.45192052980132	12.2625165562914				0.591788079470199	-0.238834437086093	-0.628238410596026	32.2203973509934	-11.0423841059603	11.845298013245			
111	2220	0.823841059602649	-0.0132450331125828	0.136476821192053	5.91337748344371	-2.3846357615894	0.215099337748344				0.816953642384106	0.0957880794701987	0.493139072847682	-19.7260927152318	20.4678145695364	7.25403973509934				0.901827814569536	-0.193271523178808	0.00805298013245037	11.207417218543	0.146490066225167	0.35973509933775				0.832529801324503	-0.208529801324503	-0.581721854304636	-8.15708609271523	-5.9764238410596	2.18437086092715				0.900026490066225	0.0994966887417219	0.149933774834437	-6.7682119205298	2.29192052980133	12.8225165562914				0.655788079470199	-0.318834437086093	-0.628238410596026	11.7803973509934	1.83761589403974	14.925298013245			
112	2240	0.935841059602649	0.00275496688741723	0.184476821192053	8.43337748344371	-5.1846357615894	1.61509933774834				0.960953642384106	-0.0802119205298013	0.397139072847682	-7.68609271523179	21.5878145695364	16.4940397350993				0.965827814569536	-0.177271523178808	0.00805298013245037	15.407417218543	5.18649006622517	-0.48026490066225				0.736529801324503	-0.160529801324503	-0.597721854304636	-7.87708609271523	1.3035761589404	-5.65562913907285				0.884026490066225	0.0674966887417219	0.149933774834437	1.6317880794702	11.8119205298013	9.74251655629139				0.671788079470199	-0.286834437086093	-0.660238410596027	15.1403973509934	-7.96238410596027	17.445298013245			
113	2260	1.01584105960265	0.00275496688741723	0.216476821192053	-6.96662251655629	-2.6646357615894	1.61509933774834				1.02495364238411	-0.000211920529801304	0.397139072847682	0.153907284768212	14.3078145695364	13.6940397350993				0.981827814569536	-0.225271523178808	0.00805298013245037	19.327417218543	6.86649006622517	0.63973509933775				0.752529801324503	-0.144529801324503	-0.533721854304636	-0.597086092715232	3.8235761589404	-6.77562913907285				0.964026490066225	0.0514966887417219	0.149933774834437	1.9117880794702	13.2119205298013	8.06251655629139				0.591788079470199	-0.286834437086093	-0.580238410596026	20.1803973509934	-16.0823841059603	19.685298013245			
114	2280	0.887841059602649	0.00275496688741723	0.184476821192053	-9.76662251655629	0.135364238410596	2.73509933774834				0.816953642384106	0.0317880794701987	0.365139072847682	-14.6860927152318	-1.09218543046358	17.3340397350993				0.901827814569536	-0.273271523178808	0.00805298013245037	15.127417218543	7.98649006622517	0.91973509933775				0.704529801324503	-0.128529801324503	-0.501721854304636	2.20291390728477	1.0235761589404	-7.33562913907285				0.948026490066225	0.0514966887417219	0.133933774834437	-0.0482119205298018	9.29192052980133	7.78251655629139				0.591788079470199	-0.334834437086093	-0.548238410596027	10.9403973509934	-8.80238410596027	16.885298013245			
115	2300	0.935841059602649	0.0667549668874172	0.056476821192053	-4.44662251655629	-0.704635761589404	2.17509933774834				0.848953642384106	-0.0482119205298013	0.381139072847682	-26.1660927152318	6.74781456953642	20.6940397350993				0.901827814569536	-0.225271523178808	-0.0719470198675496	2.52741721854305	4.06649006622517	0.91973509933775				0.688529801324503	-0.128529801324503	-0.485721854304636	-1.43708609271523	-4.8564238410596	-5.65562913907285				0.900026490066225	0.0194966887417219	0.133933774834437	-2.0082119205298	9.29192052980133	8.34251655629139				0.671788079470199	-0.350834437086093	-0.564238410596026	0.860397350993377	-0.682384105960265	14.645298013245			
116	2320	1.01584105960265	0.0827549668874172	-0.023523178807947	-5.00662251655629	-6.8646357615894	1.33509933774834				0.928953642384106	-0.0802119205298013	0.397139072847682	-13.2860927152318	12.0678145695364	16.4940397350993				0.949827814569536	-0.177271523178808	-0.0719470198675496	-7.55258278145695	2.10649006622517	4.55973509933775				0.736529801324503	-0.160529801324503	-0.485721854304636	4.72291390728477	-3.7364238410596	-2.01562913907285				0.948026490066225	-0.0125033112582781	0.117933774834437	2.7517880794702	10.4119205298013	11.9825165562914				0.655788079470199	-0.302834437086093	-0.580238410596026	3.94039735099338	-3.20238410596026	11.005298013245			
117	2340	0.967841059602649	0.114754966887417	-0.087523178807947	-6.40662251655629	-12.4646357615894	1.33509933774834				0.912953642384106	-0.0162119205298013	0.349139072847682	0.153907284768212	-1.65218543046358	12.5740397350993				0.901827814569536	-0.145271523178808	-0.0239470198675496	-8.11258278145695	2.94649006622517	5.39973509933775				0.752529801324503	-0.208529801324503	-0.485721854304636	5.84291390728477	2.4235761589404	-2.01562913907285				0.932026490066225	0.00349668874172187	0.133933774834437	2.7517880794702	8.73192052980133	11.9825165562914				0.623788079470199	-0.302834437086093	-0.596238410596026	13.7403973509934	-1.80238410596026	4.56529801324503			
118	2360	0.967841059602649	0.0827549668874172	-0.119523178807947	-8.36662251655629	-13.5846357615894	3.57509933774835				0.944953642384106	-0.0322119205298013	0.333139072847682	-10.2060927152318	2.26781456953642	11.7340397350993				0.901827814569536	-0.129271523178808	-0.0559470198675496	3.64741721854305	2.10649006622517	4.55973509933775				0.752529801324503	-0.176529801324503	-0.549721854304636	9.20291390728477	16.7035761589404	-1.73562913907285				0.964026490066225	0.0194966887417219	0.181933774834437	0.511788079470198	8.73192052980133	13.9425165562914				0.623788079470199	-0.366834437086093	-0.612238410596026	28.0203973509934	1.27761589403974	-5.23470198675497			
119	2380	0.967841059602649	0.0347549668874172	-0.055523178807947	-5.56662251655629	-7.7046357615894	3.29509933774834				0.992953642384106	-0.0962119205298013	0.381139072847682	-18.0460927152318	2.54781456953642	13.4140397350993				0.965827814569536	-0.129271523178808	-0.0879470198675496	8.40741721854305	-0.693509933774834	3.99973509933775				0.752529801324503	-0.208529801324503	-0.533721854304636	17.3229139072848	27.6235761589404	3.02437086092715				0.964026490066225	0.00349668874172187	0.133933774834437	-0.328211920529802	4.25192052980133	10.0225165562914				0.607788079470199	-0.398834437086093	-0.612238410596026	18.2203973509934	-1.80238410596026	-2.71470198675497			
120	2400	0.967841059602649	0.00275496688741723	0.00847682119205304	5.63337748344371	1.5353642384106	3.57509933774835				0.992953642384106	-0.144211920529801	0.429139072847682	-17.7660927152318	-6.69218543046358	15.9340397350993				0.965827814569536	-0.129271523178808	-0.11994701986755	2.52741721854305	-1.81350993377483	3.43973509933775				0.752529801324503	-0.224529801324503	-0.501721854304636	20.1229139072848	30.9835761589404	5.26437086092715				0.996026490066225	-0.0285033112582781	0.101933774834437	4.1517880794702	5.65192052980133	10.5825165562914				0.607788079470199	-0.382834437086093	-0.628238410596026	2.54039735099338	0.997615894039735	1.76529801324503			
121	2420	0.999841059602649	0.00275496688741723	-0.00752317880794696	3.39337748344371	2.3753642384106	2.17509933774834				0.992953642384106	-0.0482119205298013	0.333139072847682	-17.7660927152318	-16.2121854304636	13.9740397350993				0.917827814569536	-0.145271523178808	-0.13594701986755	-7.83258278145695	2.38649006622517	0.63973509933775				0.800529801324503	-0.240529801324503	-0.533721854304636	22.6429139072848	28.7435761589404	5.82437086092715				1.01202649006623	-0.0605033112582781	0.117933774834437	2.4717880794702	2.29192052980133	10.5825165562914				0.639788079470199	-0.382834437086093	-0.644238410596026	6.46039735099338	0.997615894039735	-2.15470198675497			
122	2440	0.999841059602649	0.0347549668874172	-0.023523178807947	-8.64662251655629	-2.6646357615894	1.33509933774834				0.960953642384106	-0.0482119205298013	0.237139072847682	-16.0860927152318	-17.6121854304636	10.8940397350993				0.933827814569536	-0.129271523178808	-0.13594701986755	-12.592582781457	5.46649006622517	-0.48026490066225				0.784529801324503	-0.272529801324503	-0.597721854304636	20.1229139072848	22.0235761589404	5.82437086092715				1.01202649006623	-0.0605033112582781	0.0859337748344371	-0.608211920529802	-4.70807947019868	10.8625165562914				0.639788079470199	-0.414834437086093	-0.660238410596027	4.78039735099338	2.11761589403974	-4.39470198675497			
123	2460	0.983841059602649	0.0667549668874172	-0.023523178807947	-14.8066225165563	-2.1046357615894	1.33509933774834				0.976953642384106	-0.0962119205298013	0.221139072847682	-21.1260927152318	-13.6921854304636	8.09403973509934				0.981827814569536	-0.129271523178808	-0.10394701986755	-12.032582781457	6.58649006622517	-1.60026490066225				0.800529801324503	-0.336529801324503	-0.581721854304636	13.9629139072848	14.1835761589404	8.62437086092715				0.996026490066225	-0.0765033112582781	0.0699337748344371	-0.608211920529802	-7.50807947019868	12.2625165562914				0.639788079470199	-0.430834437086093	-0.676238410596026	3.10039735099338	4.35761589403974	-5.23470198675497			
124	2480	0.983841059602649	0.0507549668874172	0.00847682119205304	-11.1666225165563	7.4153642384106	-0.344900662251656				0.992953642384106	-0.0802119205298013	0.269139072847682	-12.1660927152318	-8.09218543046358	4.45403973509934				0.949827814569536	-0.113271523178808	-0.11994701986755	-9.51258278145695	7.98649006622517	-2.72026490066225				0.768529801324503	-0.352529801324503	-0.581721854304636	9.20291390728477	6.0635761589404	12.5443708609272				0.996026490066225	-0.0765033112582781	0.101933774834437	0.231788079470198	-7.78807947019868	11.9825165562914				0.639788079470199	-0.398834437086093	-0.676238410596026	4.50039735099338	-5.72238410596027	-3.83470198675497			
125	2500	0.951841059602649	0.0667549668874172	0.040476821192053	-5.00662251655629	11.8953642384106	-1.18490066225166				0.944953642384106	-0.0642119205298013	0.333139072847682	-7.12609271523179	-8.93218543046358	0.53403973509934				0.933827814569536	-0.145271523178808	-0.11994701986755	-12.872582781457	7.14649006622517	-2.44026490066225				0.752529801324503	-0.304529801324503	-0.581721854304636	10.8829139072848	4.9435761589404	10.5843708609272				0.980026490066225	-0.0605033112582781	0.0699337748344371	-3.1282119205298	-10.3080794701987	9.74251655629139				0.575788079470199	-0.398834437086093	-0.676238410596026	-0.819602649006623	-6.00238410596027	0.925298013245032			
126	2520	0.967841059602649	0.0827549668874172	0.040476821192053	-1.64662251655629	10.2153642384106	-0.0649006622516557				0.928953642384106	-0.0162119205298013	0.317139072847682	-5.44609271523179	-8.65218543046358	-1.14596026490066				0.965827814569536	-0.145271523178808	-0.10394701986755	-14.272582781457	7.14649006622517	-1.32026490066225				0.784529801324503	-0.336529801324503	-0.549721854304636	11.4429139072848	8.3035761589404	10.3043708609272				0.932026490066225	-0.0285033112582781	0.0539337748344371	-7.0482119205298	-10.0280794701987	8.34251655629139				0.559788079470199	-0.366834437086093	-0.660238410596027	-10.8996026490066	-5.16238410596027	5.12529801324503			
127	2540	0.999841059602649	0.0827549668874172	0.024476821192053	-3.32662251655629	6.5753642384106	0.775099337748344				0.928953642384106	-0.0482119205298013	0.317139072847682	-4.60609271523179	-4.17218543046358	-0.86596026490066				0.965827814569536	-0.129271523178808	-0.10394701986755	-11.752582781457	6.02649006622517	0.35973509933775				0.800529801324503	-0.320529801324503	-0.533721854304636	5.56291390728477	7.4635761589404	9.46437086092715				0.932026490066225	-0.0285033112582781	0.0699337748344371	-3.6882119205298	-4.70807947019868	4.14251655629139				0.559788079470199	-0.318834437086093	-0.660238410596027	-10.0596026490066	-4.60238410596027	6.24529801324503			
128	2560	0.983841059602649	0.0347549668874172	0.024476821192053	-5.00662251655629	4.8953642384106	1.05509933774834				0.928953642384106	-0.0642119205298013	0.333139072847682	-5.44609271523179	-3.61218543046358	-1.70596026490066				0.965827814569536	-0.129271523178808	-0.0879470198675496	-9.79258278145695	5.18649006622517	0.35973509933775				0.800529801324503	-0.288529801324503	-0.533721854304636	1.08291390728477	1.5835761589404	10.8643708609272				0.964026490066225	-0.0445033112582781	0.0699337748344371	-2.8482119205298	-4.42807947019868	2.18251655629139				0.543788079470199	-0.302834437086093	-0.628238410596026	-1.37960264900662	-3.48238410596027	0.925298013245032			
129	2580	0.967841059602649	0.0667549668874172	0.040476821192053	-1.92662251655629	5.1753642384106	0.775099337748344				0.928953642384106	-0.0482119205298013	0.349139072847682	-2.64609271523179	-5.29218543046358	-2.54596026490066				0.997827814569536	-0.129271523178808	-0.0559470198675496	-5.59258278145695	3.22649006622517	-1.88026490066225				0.800529801324503	-0.272529801324503	-0.533721854304636	-3.39708609271523	-1.4964238410596	9.18437086092715				0.948026490066225	-0.0605033112582781	0.101933774834437	1.3517880794702	-3.30807947019868	2.18251655629139				0.559788079470199	-0.334834437086093	-0.628238410596026	-5.85960264900662	-0.402384105960265	0.0852980132450323			
130	2600	0.951841059602649	0.0347549668874172	0.088476821192053	1.43337748344371	5.1753642384106	0.215099337748344				0.928953642384106	-0.0642119205298013	0.333139072847682	-3.20609271523179	-2.77218543046358	-3.94596026490066				0.997827814569536	-0.145271523178808	-0.0719470198675496	0.847417218543046	-0.133509933774833	-1.88026490066225				0.800529801324503	-0.288529801324503	-0.533721854304636	-2.55708609271523	-2.3364238410596	6.10437086092715				0.948026490066225	-0.0445033112582781	0.0859337748344371	-0.608211920529802	-2.18807947019868	-0.337483443708608				0.607788079470199	-0.382834437086093	-0.660238410596027	-5.01960264900662	-0.402384105960265	0.645298013245032			
131	2620	0.999841059602649	0.0347549668874172	0.104476821192053	-0.526622516556291	5.7353642384106	-0.0649006622516557				0.960953642384106	-0.0482119205298013	0.349139072847682	1.83390728476821	-0.812185430463576	-3.94596026490066				0.981827814569536	-0.161271523178808	-0.0399470198675496	6.44741721854305	-2.09350993377483	-1.60026490066225				0.784529801324503	-0.320529801324503	-0.533721854304636	-2.55708609271523	0.1835761589404	5.26437086092715				0.964026490066225	-0.0285033112582781	0.0859337748344371	-0.888211920529802	-3.02807947019868	-2.85748344370861				0.639788079470199	-0.350834437086093	-0.644238410596026	-5.85960264900662	-0.962384105960265	-2.43470198675497			
132	2640	0.983841059602649	0.0187549668874172	0.072476821192053	-3.04662251655629	4.0553642384106	0.775099337748344				0.976953642384106	-0.0482119205298013	0.317139072847682	10.5139072847682	-4.45218543046358	-1.42596026490066				0.981827814569536	-0.209271523178808	-0.0239470198675496	8.12741721854305	-4.05350993377483	-0.48026490066225				0.752529801324503	-0.272529801324503	-0.517721854304636	-4.51708609271523	1.0235761589404	3.86437086092715				0.964026490066225	-0.0125033112582781	0.0859337748344371	-1.1682119205298	-1.90807947019868	-2.29748344370861				0.639788079470199	-0.334834437086093	-0.644238410596026	-2.77960264900662	-0.402384105960265	-3.55470198675497			
133	2660	0.967841059602649	0.0347549668874172	0.040476821192053	-4.16662251655629	0.415364238410596	0.775099337748344				0.896953642384106	-0.0802119205298013	0.301139072847682	7.43390728476821	-2.77218543046358	-0.86596026490066				0.949827814569536	-0.225271523178808	-0.0399470198675496	7.00741721854305	-4.33350993377483	0.91973509933775				0.752529801324503	-0.256529801324503	-0.517721854304636	-5.35708609271523	3.2635761589404	3.30437086092715				0.932026490066225	-0.0285033112582781	0.0859337748344371	-2.0082119205298	-1.34807947019868	-3.13748344370861				0.591788079470199	-0.350834437086093	-0.644238410596026	0.0203973509933773	-4.04238410596027	-0.754701986754968			
134	2680	0.951841059602649	0.0187549668874172	0.024476821192053	-0.806622516556291	-2.1046357615894	0.495099337748344				0.912953642384106	-0.0642119205298013	0.349139072847682	4.35390728476821	2.26781456953642	-1.98596026490066				0.933827814569536	-0.193271523178808	-0.0399470198675496	1.68741721854305	-0.693509933774834	1.75973509933775				0.752529801324503	-0.256529801324503	-0.517721854304636	-4.23708609271523	5.7835761589404	3.30437086092715				0.948026490066225	-0.0125033112582781	0.101933774834437	-2.8482119205298	-1.34807947019868	-4.25748344370861				0.575788079470199	-0.350834437086093	-0.628238410596026	-7.81960264900662	0.157615894039735	0.925298013245032			
135	2700	0.951841059602649	0.00275496688741723	0.024476821192053	1.99337748344371	-0.704635761589404	-0.0649006622516557				0.944953642384106	-0.0802119205298013	0.333139072847682	3.23390728476821	5.06781456953642	-0.86596026490066				0.949827814569536	-0.177271523178808	-0.0239470198675496	-1.39258278145695	2.66649006622517	2.31973509933775				0.784529801324503	-0.272529801324503	-0.517721854304636	-1.15708609271523	5.7835761589404	4.70437086092715				0.964026490066225	-0.0445033112582781	0.0859337748344371	-3.4082119205298	-0.508079470198675	-3.69748344370861				0.607788079470199	-0.334834437086093	-0.628238410596026	-4.17960264900662	2.11761589403974	0.925298013245032			
136	2720	0.951841059602649	0.0187549668874172	0.088476821192053	-0.526622516556291	4.6153642384106	0.495099337748344				0.960953642384106	-0.0962119205298013	0.301139072847682	0.993907284768212	1.98781456953642	-2.54596026490066				0.949827814569536	-0.193271523178808	-0.00794701986754963	0.567417218543046	3.22649006622517	2.31973509933775				0.816529801324503	-0.272529801324503	-0.533721854304636	-2.83708609271523	1.8635761589404	3.58437086092715				0.964026490066225	-0.0285033112582781	0.101933774834437	-3.4082119205298	0.891920529801325	-3.97748344370861				0.639788079470199	-0.350834437086093	-0.644238410596026	-3.33960264900662	3.51761589403974	-0.754701986754968			
137	2740	0.983841059602649	0.0187549668874172	0.088476821192053	0.313377483443709	7.4153642384106	-0.904900662251656				0.944953642384106	-0.0962119205298013	0.301139072847682	0.153907284768212	1.98781456953642	-2.54596026490066				0.949827814569536	-0.193271523178808	-0.00794701986754963	-1.67258278145695	2.10649006622517	0.91973509933775				0.784529801324503	-0.272529801324503	-0.549721854304636	-8.43708609271523	-3.4564238410596	-0.0556291390728476				0.964026490066225	-0.0445033112582781	0.0859337748344371	-4.5282119205298	-1.90807947019868	-4.81748344370861				0.607788079470199	-0.366834437086093	-0.660238410596027	-4.73960264900662	2.67761589403974	-1.31470198675497			
138	2760	0.983841059602649	0.0187549668874172	0.040476821192053	-1.64662251655629	3.2153642384106	-2.86490066225166				0.928953642384106	-0.0802119205298013	0.333139072847682	0.433907284768212	2.82781456953642	-1.98596026490066				0.965827814569536	-0.177271523178808	-0.0239470198675496	0.847417218543046	4.06649006622517	-1.04026490066225				0.768529801324503	-0.272529801324503	-0.533721854304636	-11.7970860927152	-8.7764238410596	-1.73562913907285				0.948026490066225	-0.0285033112582781	0.101933774834437	-4.2482119205298	0.611920529801325	-4.25748344370861				0.607788079470199	-0.334834437086093	-0.628238410596026	-6.69960264900662	4.91761589403974	-1.31470198675497			
139	2780	0.983841059602649	0.0187549668874172	-0.00752317880794696	-5.84662251655629	-1.2646357615894	-0.904900662251656				0.928953642384106	-0.0802119205298013	0.349139072847682	1.83390728476821	5.90781456953642	-3.10596026490066				0.981827814569536	-0.177271523178808	-0.0399470198675496	-0.832582781456954	4.06649006622517	-1.04026490066225				0.784529801324503	-0.288529801324503	-0.533721854304636	-10.6770860927152	-9.8964238410596	-1.45562913907285				0.964026490066225	-0.0285033112582781	0.0859337748344371	-3.4082119205298	0.891920529801325	-4.81748344370861				0.607788079470199	-0.318834437086093	-0.628238410596026	-0.819602649006623	6.03761589403974	-4.95470198675497			
140	2800	0.983841059602649	0.00275496688741723	0.024476821192053	-7.24662251655629	-1.8246357615894	-1.46490066225166				0.944953642384106	-0.0482119205298013	0.381139072847682	1.27390728476821	5.06781456953642	-3.94596026490066				0.965827814569536	-0.161271523178808	-0.0239470198675496	-3.91258278145695	4.06649006622517	-1.88026490066225				0.784529801324503	-0.256529801324503	-0.517721854304636	-10.9570860927152	-10.4564238410596	-2.01562913907285				0.964026490066225	-0.0125033112582781	0.101933774834437	-3.1282119205298	0.891920529801325	-5.93748344370861				0.623788079470199	-0.334834437086093	-0.660238410596027	-0.259602649006623	6.87761589403974	-8.31470198675497			
141	2820	0.967841059602649	0.0187549668874172	0.088476821192053	-6.12662251655629	2.6553642384106	-1.46490066225166				0.960953642384106	-0.0642119205298013	0.349139072847682	-1.52609271523179	2.54781456953642	-3.94596026490066				0.965827814569536	-0.177271523178808	-0.0399470198675496	-4.47258278145695	1.26649006622517	-3.00026490066225				0.768529801324503	-0.224529801324503	-0.517721854304636	-11.2370860927152	-9.3364238410596	-3.97562913907285				0.964026490066225	-0.0125033112582781	0.117933774834437	-4.8082119205298	0.0519205298013249	-6.21748344370861				0.639788079470199	-0.350834437086093	-0.676238410596026	-1.65960264900662	3.51761589403974	-8.59470198675497			
142	2840	0.967841059602649	0.0507549668874172	0.104476821192053	-1.64662251655629	4.6153642384106	-1.74490066225166				0.928953642384106	-0.0642119205298013	0.333139072847682	-0.406092715231788	2.82781456953642	-3.66596026490066				0.965827814569536	-0.177271523178808	-0.0719470198675496	-3.35258278145695	-0.413509933774833	-3.00026490066225				0.784529801324503	-0.224529801324503	-0.517721854304636	-10.1170860927152	-8.4964238410596	-4.53562913907285				0.964026490066225	0.00349668874172187	0.101933774834437	-3.6882119205298	1.73192052980133	-5.93748344370861				0.623788079470199	-0.350834437086093	-0.612238410596026	-1.93960264900662	1.27761589403974	-5.79470198675497			
143	2860	0.983841059602649	0.0667549668874172	0.088476821192053	-3.04662251655629	3.2153642384106	-3.14490066225166				0.944953642384106	-0.0322119205298013	0.349139072847682	1.27390728476821	1.98781456953642	-3.10596026490066				0.965827814569536	-0.145271523178808	-0.0559470198675496	-4.75258278145695	0.706490066225167	-3.56026490066225				0.784529801324503	-0.208529801324503	-0.517721854304636	-10.6770860927152	-10.4564238410596	-4.81562913907285				0.964026490066225	0.0194966887417219	0.101933774834437	-1.4482119205298	0.611920529801325	-7.05748344370861				0.639788079470199	-0.318834437086093	-0.644238410596026	-4.17960264900662	3.23761589403974	-4.95470198675497			
144	2880	0.983841059602649	0.0667549668874172	0.056476821192053	-3.60662251655629	-0.704635761589404	-2.86490066225166				0.928953642384106	-0.0162119205298013	0.349139072847682	5.47390728476821	-1.09218543046358	-3.10596026490066				0.949827814569536	-0.145271523178808	-0.0559470198675496	-3.63258278145695	1.26649006622517	-2.72026490066225				0.752529801324503	-0.176529801324503	-0.517721854304636	-9.83708609271523	-11.8564238410596	-5.93562913907285				0.964026490066225	0.0194966887417219	0.101933774834437	0.231788079470198	-0.508079470198675	-6.21748344370861				0.655788079470199	-0.318834437086093	-0.644238410596026	1.98039735099338	0.717615894039735	-6.35470198675497			
145	2900	0.951841059602649	0.0507549668874172	0.024476821192053	-1.36662251655629	-2.9446357615894	-2.58490066225166				0.944953642384106	-0.0162119205298013	0.333139072847682	8.27390728476821	1.42781456953642	-3.38596026490066				0.965827814569536	-0.145271523178808	-0.0559470198675496	-0.552582781456954	1.54649006622517	-2.44026490066225				0.768529801324503	-0.176529801324503	-0.517721854304636	-5.63708609271523	-10.4564238410596	-6.49562913907285				0.964026490066225	0.0194966887417219	0.117933774834437	1.9117880794702	-1.34807947019868	-5.09748344370861				0.639788079470199	-0.318834437086093	-0.644238410596026	0.300397350993377	-0.402384105960265	-5.23470198675497			
146	2920	0.967841059602649	0.0347549668874172	0.040476821192053	0.593377483443709	-0.984635761589404	-1.46490066225166				0.928953642384106	-0.000211920529801304	0.381139072847682	7.99390728476821	1.70781456953642	-4.22596026490066				0.949827814569536	-0.145271523178808	-0.0559470198675496	4.76741721854305	-0.133509933774833	-3.00026490066225				0.752529801324503	-0.192529801324503	-0.533721854304636	-0.0370860927152318	-6.5364238410596	-6.21562913907285				0.964026490066225	0.0354966887417219	0.101933774834437	3.8717880794702	-2.18807947019868	-5.65748344370861				0.639788079470199	-0.318834437086093	-0.628238410596026	-1.65960264900662	-0.682384105960265	-4.95470198675497			
147	2940	0.983841059602649	0.0347549668874172	0.088476821192053	1.71337748344371	2.6553642384106	-1.46490066225166				0.960953642384106	-0.0322119205298013	0.349139072847682	5.47390728476821	-3.33218543046358	-4.22596026490066				0.965827814569536	-0.145271523178808	-0.0399470198675496	7.00741721854305	0.986490066225167	-2.72026490066225				0.768529801324503	-0.192529801324503	-0.533721854304636	3.60291390728477	-4.2964238410596	-5.93562913907285				0.964026490066225	0.0194966887417219	0.101933774834437	4.1517880794702	-1.34807947019868	-5.93748344370861				0.655788079470199	-0.286834437086093	-0.612238410596026	-1.93960264900662	0.157615894039735	-8.03470198675497			
148	2960	0.967841059602649	0.0507549668874172	0.088476821192053	3.67337748344371	3.4953642384106	-1.74490066225166				0.960953642384106	-0.0482119205298013	0.349139072847682	3.23390728476821	-2.77218543046358	-3.94596026490066				0.981827814569536	-0.161271523178808	-0.0559470198675496	5.60741721854305	0.986490066225167	-2.16026490066225				0.784529801324503	-0.208529801324503	-0.565721854304636	3.88291390728477	-4.2964238410596	-5.65562913907285				0.980026490066225	0.0194966887417219	0.117933774834437	4.9917880794702	-0.228079470198675	-5.65748344370861				0.655788079470199	-0.286834437086093	-0.628238410596026	1.42039735099338	3.23761589403974	-9.99470198675497			
149	2980	0.967841059602649	0.0507549668874172	0.056476821192053	2.27337748344371	1.8153642384106	-2.30490066225166				0	0	0	0	0	0				0	0	0	0	0	0				0	0	0	0	0	0				0.980026490066225	0.0194966887417219	0.0859337748344371	5.8317880794702	-2.46807947019868	-5.65748344370861				0.671788079470199	-0.302834437086093	-0.660238410596027	1.14039735099338	4.63761589403974	-11.394701986755			
150	3000	0	0	0	0	0	0				0.928953642384106	-0.000211920529801304	0.317139072847682	5.75390728476821	0.0278145695364242	-4.22596026490066				0.981827814569536	-0.177271523178808	-0.0239470198675496	1.68741721854305	3.50649006622517	-1.60026490066225				0.768529801324503	-0.224529801324503	-0.597721854304636	2.20291390728477	-8.4964238410596	-1.45562913907285				0.964026490066225	0.0354966887417219	0.0859337748344371	8.3517880794702	-2.74807947019868	-4.81748344370861				0.671788079470199	-0.318834437086093	-0.628238410596026	1.42039735099338	1.55761589403974	-11.394701986755			
151	3020	0.983841059602649	0.0347549668874172	0.024476821192053	0.313377483443709	-2.3846357615894	-2.30490066225166				0.960953642384106	-0.0162119205298013	0.333139072847682	7.71390728476821	0.0278145695364242	-4.22596026490066				0.981827814569536	-0.145271523178808	-0.00794701986754963	1.68741721854305	1.26649006622517	-2.16026490066225				0.720529801324503	-0.224529801324503	-0.597721854304636	-1.99708609271523	-11.2964238410596	-3.13562913907285				0.964026490066225	0.0354966887417219	0.101933774834437	8.6317880794702	0.611920529801325	-5.65748344370861				0.655788079470199	-0.334834437086093	-0.596238410596026	0.300397350993377	0.997615894039735	-9.99470198675497			
152	3040	0.967841059602649	0.0347549668874172	0.040476821192053	1.99337748344371	-2.1046357615894	-0.624900662251656				0.944953642384106	-0.0322119205298013	0.365139072847682	3.51390728476821	4.22781456953642	-3.66596026490066				0.981827814569536	-0.161271523178808	-0.0239470198675496	3.08741721854305	-0.693509933774834	-0.76026490066225				0.736529801324503	-0.208529801324503	-0.565721854304636	-4.51708609271523	-11.0164238410596	-3.97562913907285				0.948026490066225	0.0194966887417219	0.0859337748344371	4.7117880794702	-1.06807947019868	-5.65748344370861				0.655788079470199	-0.334834437086093	-0.596238410596026	-4.73960264900662	0.157615894039735	-8.03470198675497			
153	3060	0.967841059602649	0.0347549668874172	0.072476821192053	2.27337748344371	-0.704635761589404	-1.46490066225166				0.944953642384106	-0.0162119205298013	0.365139072847682	2.39390728476821	3.94781456953642	-4.22596026490066				0.965827814569536	-0.161271523178808	-0.0399470198675496	3.08741721854305	0.426490066225167	-1.04026490066225				0.736529801324503	-0.208529801324503	-0.565721854304636	-5.63708609271523	-10.7364238410596	-4.53562913907285				0.948026490066225	0.0354966887417219	0.101933774834437	2.7517880794702	-0.508079470198675	-6.49748344370861				0.687788079470199	-0.302834437086093	-0.612238410596026	-5.85960264900662	0.717615894039735	-7.75470198675497			
154	3080	0.951841059602649	0.0507549668874172	0.088476821192053	1.43337748344371	0.415364238410596	-1.74490066225166				0.944953642384106	-0.0322119205298013	0.365139072847682	1.55390728476821	4.78781456953642	-3.38596026490066				0.981827814569536	-0.145271523178808	-0.0399470198675496	0.287417218543046	0.986490066225167	-1.60026490066225				0.720529801324503	-0.176529801324503	-0.597721854304636	-3.67708609271523	-7.3764238410596	-5.65562913907285				0.964026490066225	0.0514966887417219	0.0859337748344371	0.791788079470198	0.0519205298013249	-5.93748344370861				0.687788079470199	-0.286834437086093	-0.628238410596026	0.0203973509933773	-0.682384105960265	-8.31470198675497			
155	3100	0.983841059602649	0.0667549668874172	0.088476821192053	0.313377483443709	-0.424635761589404	-1.74490066225166				0.944953642384106	-0.0162119205298013	0.381139072847682	2.95390728476821	2.26781456953642	-2.82596026490066				0.981827814569536	-0.145271523178808	-0.0239470198675496	-2.51258278145695	0.426490066225167	-1.60026490066225				0.736529801324503	-0.160529801324503	-0.597721854304636	-2.27708609271523	-4.8564238410596	-6.49562913907285				0.964026490066225	0.0514966887417219	0.0859337748344371	2.7517880794702	-0.228079470198675	-4.81748344370861				0.703788079470199	-0.286834437086093	-0.628238410596026	-1.09960264900662	-0.962384105960265	-7.47470198675497			
156	3120	0.999841059602649	0.0667549668874172	0.056476821192053	0.593377483443709	-0.984635761589404	-2.02490066225166				0.928953642384106	0.0157880794701987	0.397139072847682	6.59390728476821	-4.17218543046358	-3.94596026490066				0.981827814569536	-0.145271523178808	-0.0239470198675496	-0.552582781456954	-0.693509933774834	-1.60026490066225				0.736529801324503	-0.160529801324503	-0.565721854304636	-2.27708609271523	-6.5364238410596	-6.77562913907285				0.964026490066225	0.0674966887417219	0.101933774834437	3.0317880794702	-0.788079470198675	-4.53748344370861				0.703788079470199	-0.286834437086093	-0.628238410596026	-0.539602649006623	-2.08238410596027	-7.75470198675497			
157	3140	0.967841059602649	0.0827549668874172	0.056476821192053	0.593377483443709	-1.2646357615894	-1.46490066225166				0.944953642384106	-0.0162119205298013	0.365139072847682	8.55390728476821	-3.61218543046358	-2.26596026490066				0.965827814569536	-0.129271523178808	-0.0239470198675496	2.24741721854305	-0.693509933774834	-1.60026490066225				0.704529801324503	-0.160529801324503	-0.581721854304636	-1.15708609271523	-6.5364238410596	-7.61562913907285				0.964026490066225	0.0834966887417219	0.0859337748344371	1.6317880794702	-1.34807947019868	-3.97748344370861				0.719788079470199	-0.254834437086093	-0.628238410596026	-0.259602649006623	-2.08238410596027	-7.75470198675497			
158	3160	0.951841059602649	0.0667549668874172	0.056476821192053	1.99337748344371	-1.5446357615894	-0.0649006622516557				0.960953642384106	-0.0162119205298013	0.365139072847682	7.15390728476821	-0.532185430463576	-0.86596026490066				0.981827814569536	-0.145271523178808	-0.0239470198675496	1.68741721854305	-2.09350993377483	-1.32026490066225				0.720529801324503	-0.144529801324503	-0.565721854304636	0.802913907284768	-2.3364238410596	-7.89562913907285				0.948026490066225	0.0674966887417219	0.101933774834437	2.4717880794702	-1.34807947019868	-2.57748344370861				0.719788079470199	-0.254834437086093	-0.628238410596026	2.54039735099338	-4.04238410596027	-7.19470198675497			
159	3180	0.967841059602649	0.0667549668874172	0.072476821192053	3.11337748344371	-1.8246357615894	-0.0649006622516557				0.944953642384106	-0.0162119205298013	0.365139072847682	1.83390728476821	-2.49218543046358	-1.42596026490066				0.965827814569536	-0.145271523178808	-0.0399470198675496	1.96741721854305	-1.53350993377483	-0.20026490066225				0.704529801324503	-0.160529801324503	-0.565721854304636	4.16291390728477	3.5435761589404	-7.05562913907285				0.948026490066225	0.0674966887417219	0.101933774834437	1.3517880794702	-1.06807947019868	-1.45748344370861				0.687788079470199	-0.286834437086093	-0.628238410596026	5.62039735099338	-5.16238410596027	-7.75470198675497			
160	3200	0.983841059602649	0.0347549668874172	0.056476821192053	1.99337748344371	-2.3846357615894	-0.904900662251656				0.960953642384106	0.0157880794701987	0.349139072847682	-1.52609271523179	-1.37218543046358	-2.26596026490066				0.981827814569536	-0.145271523178808	-0.0239470198675496	-1.39258278145695	-0.693509933774834	-0.20026490066225				0.720529801324503	-0.160529801324503	-0.581721854304636	6.96291390728477	6.9035761589404	-5.09562913907285				0.964026490066225	0.0674966887417219	0.101933774834437	0.511788079470198	-1.34807947019868	-0.617483443708608				0.703788079470199	-0.286834437086093	-0.628238410596026	2.82039735099338	-4.04238410596027	-6.35470198675497			
161	3220	0.967841059602649	0.0187549668874172	0.040476821192053	0.593377483443709	-2.1046357615894	-0.0649006622516557				0.960953642384106	-0.000211920529801304	0.365139072847682	-1.52609271523179	-1.93218543046358	-1.42596026490066				0.981827814569536	-0.145271523178808	-0.0239470198675496	-1.39258278145695	-1.53350993377483	0.0797350993377501				0.736529801324503	-0.176529801324503	-0.597721854304636	8.92291390728477	6.9035761589404	-3.69562913907285				0.964026490066225	0.0674966887417219	0.0859337748344371	-1.7282119205298	-1.90807947019868	-0.897483443708608				0.703788079470199	-0.270834437086093	-0.628238410596026	0.0203973509933773	-6.00238410596027	-4.95470198675497			
162	3240	0.983841059602649	0.0507549668874172	0.024476821192053	-2.20662251655629	-1.8246357615894	1.33509933774834				0.944953642384106	-0.000211920529801304	0.333139072847682	-1.52609271523179	-2.49218543046358	-1.70596026490066				0.965827814569536	-0.145271523178808	-0.0239470198675496	-0.832582781456954	-2.65350993377483	-0.48026490066225				0.752529801324503	-0.176529801324503	-0.613721854304636	8.92291390728477	4.1035761589404	-1.45562913907285				0.964026490066225	0.0834966887417219	0.0859337748344371	-1.4482119205298	-1.62807947019868	0.222516556291392				0.671788079470199	-0.254834437086093	-0.612238410596026	1.98039735099338	-7.12238410596027	-6.07470198675497			
163	3260	0.967841059602649	0.0827549668874172	0.056476821192053	-2.48662251655629	-1.2646357615894	0.215099337748344				0.944953642384106	-0.000211920529801304	0.349139072847682	-2.08609271523179	0.587814569536424	-1.42596026490066				0.965827814569536	-0.129271523178808	-0.0239470198675496	-0.272582781456954	-1.25350993377483	-0.20026490066225				0.768529801324503	-0.208529801324503	-0.597721854304636	5.00291390728477	1.3035761589404	0.504370860927152				0.964026490066225	0.0674966887417219	0.0859337748344371	-0.0482119205298018	0.0519205298013249	0.502516556291392				0.655788079470199	-0.238834437086093	-0.612238410596026	-1.93960264900662	-0.402384105960265	-7.19470198675497			
164	3280	0.967841059602649	0.0667549668874172	0.056476821192053	-0.526622516556291	-0.984635761589404	0.215099337748344				0.944953642384106	-0.000211920529801304	0.365139072847682	-2.64609271523179	0.307814569536424	-1.14596026490066				0.965827814569536	-0.129271523178808	-0.0239470198675496	-1.11258278145695	-2.09350993377483	0.0797350993377501				0.752529801324503	-0.192529801324503	-0.613721854304636	0.522913907284768	-0.0964238410596001	0.224370860927152				0.964026490066225	0.0514966887417219	0.0859337748344371	0.511788079470198	0.0519205298013249	0.222516556291392				0.671788079470199	-0.254834437086093	-0.612238410596026	3.66039735099338	0.717615894039735	-10.274701986755			
165	3300	0.967841059602649	0.0667549668874172	0.056476821192053	0.0333774834437086	-1.8246357615894	0.775099337748344				0.944953642384106	0.0317880794701987	0.365139072847682	-1.80609271523179	-1.65218543046358	-1.42596026490066				0.949827814569536	-0.145271523178808	-0.0399470198675496	-1.95258278145695	-2.37350993377483	0.35973509933775				0.736529801324503	-0.192529801324503	-0.597721854304636	0.242913907284768	1.0235761589404	-0.0556291390728476				0.964026490066225	0.0514966887417219	0.0699337748344371	0.231788079470198	-1.34807947019868	-0.617483443708608				0.671788079470199	-0.286834437086093	-0.612238410596026	1.98039735099338	-1.24238410596026	-9.15470198675497			
166	3320	0.967841059602649	0.0667549668874172	0.072476821192053	-2.48662251655629	-1.5446357615894	0.775099337748344				0.928953642384106	-0.000211920529801304	0.333139072847682	-0.126092715231788	-0.812185430463576	-0.585960264900661				0.949827814569536	-0.129271523178808	-0.0559470198675496	-2.23258278145695	-3.21350993377483	0.63973509933775				0.720529801324503	-0.176529801324503	-0.565721854304636	-0.877086092715232	2.4235761589404	-2.29562913907285				0.948026490066225	0.0514966887417219	0.0699337748344371	-0.328211920529802	-0.228079470198675	-0.337483443708608				0.687788079470199	-0.286834437086093	-0.628238410596026	-2.77960264900662	-1.52238410596026	-7.19470198675497			
167	3340	0.967841059602649	0.0667549668874172	0.088476821192053	-1.64662251655629	-0.984635761589404	1.61509933774834				0.944953642384106	-0.0162119205298013	0.349139072847682	-1.52609271523179	-0.812185430463576	-0.0259602649006601				0.965827814569536	-0.129271523178808	-0.0399470198675496	-1.39258278145695	-2.37350993377483	0.63973509933775				0.736529801324503	-0.160529801324503	-0.549721854304636	1.36291390728477	3.2635761589404	-2.85562913907285				0.948026490066225	0.0354966887417219	0.0859337748344371	-0.328211920529802	0.331920529801325	0.222516556291392				0.671788079470199	-0.270834437086093	-0.644238410596026	-1.93960264900662	-1.52238410596026	-4.11470198675497			
168	3360	0.967841059602649	0.0507549668874172	0.056476821192053	1.43337748344371	-0.424635761589404	1.05509933774834				0.944953642384106	-0.000211920529801304	0.349139072847682	-3.48609271523179	-1.37218543046358	-0.30596026490066				0.981827814569536	-0.129271523178808	-0.0399470198675496	1.96741721854305	-2.37350993377483	-0.20026490066225				0.752529801324503	-0.160529801324503	-0.565721854304636	4.44291390728477	2.9835761589404	-2.57562913907285				0.964026490066225	0.0514966887417219	0.0859337748344371	-0.888211920529802	0.331920529801325	0.502516556291392				0.687788079470199	-0.254834437086093	-0.660238410596027	2.26039735099338	-1.24238410596026	-4.11470198675497			
169	3380	0.983841059602649	0.0507549668874172	0.040476821192053	1.71337748344371	-2.3846357615894	0.215099337748344				0.928953642384106	0.0157880794701987	0.349139072847682	-1.52609271523179	-0.812185430463576	-0.0259602649006601				0.965827814569536	-0.145271523178808	-0.0559470198675496	2.52741721854305	-1.81350993377483	-0.48026490066225				0.752529801324503	-0.160529801324503	-0.565721854304636	5.56291390728477	2.9835761589404	-3.41562913907285				0.964026490066225	0.0674966887417219	0.0859337748344371	-1.4482119205298	-0.788079470198675	1.06251655629139				0.671788079470199	-0.254834437086093	-0.660238410596027	6.46039735099338	-4.60238410596027	-4.95470198675497			
170	3400	0.983841059602649	0.0347549668874172	0.024476821192053	0.313377483443709	-4.0646357615894	1.33509933774834				0.928953642384106	-0.000211920529801304	0.349139072847682	1.55390728476821	-1.09218543046358	1.09403973509934				0.949827814569536	-0.145271523178808	-0.0399470198675496	3.08741721854305	-1.53350993377483	0.35973509933775				0.736529801324503	-0.176529801324503	-0.565721854304636	5.28291390728477	4.3835761589404	-2.85562913907285				0.964026490066225	0.0674966887417219	0.0859337748344371	0.791788079470198	-0.788079470198675	2.18251655629139				0.671788079470199	-0.270834437086093	-0.660238410596027	5.62039735099338	-4.04238410596027	-2.99470198675497			
171	3420	0.967841059602649	0.0347549668874172	0.040476821192053	1.71337748344371	-4.0646357615894	2.17509933774834				0.960953642384106	-0.0482119205298013	0.349139072847682	2.11390728476821	-1.37218543046358	2.21403973509934				0.965827814569536	-0.145271523178808	-0.0559470198675496	3.64741721854305	-2.09350993377483	0.0797350993377501				0.752529801324503	-0.192529801324503	-0.549721854304636	5.00291390728477	4.3835761589404	-1.45562913907285				0.964026490066225	0.0514966887417219	0.0859337748344371	3.8717880794702	0.331920529801325	1.62251655629139				0.655788079470199	-0.270834437086093	-0.644238410596026	3.66039735099338	-4.32238410596027	0.365298013245032			
172	3440	0.951841059602649	0.0187549668874172	0.056476821192053	4.23337748344371	-1.8246357615894	1.33509933774834				0.960953642384106	-0.0322119205298013	0.333139072847682	-0.126092715231788	-3.89218543046358	2.21403973509934				0.981827814569536	-0.177271523178808	-0.0559470198675496	5.04741721854305	-4.33350993377483	0.0797350993377501				0.752529801324503	-0.192529801324503	-0.549721854304636	5.84291390728477	6.3435761589404	-2.01562913907285				0.980026490066225	0.0354966887417219	0.0859337748344371	3.3117880794702	-1.06807947019868	3.30251655629139				0.655788079470199	-0.270834437086093	-0.660238410596027	3.10039735099338	-2.36238410596027	0.925298013245032			
173	3460	0.967841059602649	0.0187549668874172	0.056476821192053	3.67337748344371	-0.144635761589404	0.775099337748344				0.960953642384106	-0.0322119205298013	0.301139072847682	-0.966092715231788	-3.33218543046358	3.05403973509934				0.965827814569536	-0.177271523178808	-0.0559470198675496	4.76741721854305	-3.49350993377483	-0.20026490066225				0.752529801324503	-0.208529801324503	-0.565721854304636	9.20291390728477	7.7435761589404	-1.17562913907285				0.964026490066225	0.0194966887417219	0.0859337748344371	2.7517880794702	-1.06807947019868	4.14251655629139				0.671788079470199	-0.270834437086093	-0.660238410596027	5.90039735099338	-4.32238410596027	-0.194701986754968			
174	3480	0.967841059602649	0.0347549668874172	0.040476821192053	0.873377483443709	-0.984635761589404	0.215099337748344				0.960953642384106	-0.0162119205298013	0.317139072847682	-2.36609271523179	-0.532185430463576	3.33403973509934				0.965827814569536	-0.161271523178808	-0.0719470198675496	2.52741721854305	-0.693509933774834	-0.20026490066225				0.752529801324503	-0.224529801324503	-0.565721854304636	13.4029139072848	7.4635761589404	1.34437086092715				0.964026490066225	0.0194966887417219	0.0699337748344371	4.1517880794702	-1.34807947019868	4.42251655629139				0.671788079470199	-0.270834437086093	-0.660238410596027	6.18039735099338	-6.00238410596027	-1.03470198675497			
175	3500	0.983841059602649	0.0347549668874172	0.00847682119205304	-0.806622516556291	-2.3846357615894	0.215099337748344				0.960953642384106	-0.0162119205298013	0.317139072847682	-0.966092715231788	0.867814569536424	2.49403973509934				0.981827814569536	-0.161271523178808	-0.0559470198675496	-0.272582781456954	-0.133509933774833	0.0797350993377501				0.752529801324503	-0.240529801324503	-0.565721854304636	12.2829139072848	6.9035761589404	1.90437086092715				0.964026490066225	0.0194966887417219	0.0699337748344371	4.1517880794702	-1.62807947019868	5.26251655629139				0.639788079470199	-0.270834437086093	-0.660238410596027	4.22039735099338	-4.60238410596027	-1.03470198675497			
176	3520	0.999841059602649	0.00275496688741723	-0.00752317880794696	0.0333774834437086	-4.3446357615894	1.33509933774834				0.960953642384106	-0.0162119205298013	0.317139072847682	0.713907284768212	-1.09218543046358	2.77403973509934				0.981827814569536	-0.161271523178808	-0.0559470198675496	-0.552582781456954	-0.693509933774834	0.63973509933775				0.752529801324503	-0.240529801324503	-0.565721854304636	8.08291390728477	6.0635761589404	2.74437086092715				0.980026490066225	0.00349668874172187	0.0539337748344371	4.1517880794702	-2.18807947019868	6.38251655629139				0.639788079470199	-0.270834437086093	-0.644238410596026	2.54039735099338	-2.92238410596027	-1.59470198675497			
177	3540	0.951841059602649	0.0187549668874172	0.00847682119205304	0.873377483443709	-2.1046357615894	1.33509933774834				0.944953642384106	-0.0162119205298013	0.317139072847682	-1.24609271523179	-1.93218543046358	2.77403973509934				0.949827814569536	-0.161271523178808	-0.0719470198675496	1.96741721854305	-2.37350993377483	0.91973509933775				0.752529801324503	-0.224529801324503	-0.565721854304636	6.68291390728477	4.3835761589404	0.504370860927152				0.964026490066225	0.0194966887417219	0.0699337748344371	5.5517880794702	-1.06807947019868	5.26251655629139				0.607788079470199	-0.254834437086093	-0.660238410596027	1.98039735099338	-2.08238410596027	-2.99470198675497			
178	3560	0.967841059602649	0.0347549668874172	0.040476821192053	1.71337748344371	2.0953642384106	0.215099337748344				0.960953642384106	-0.0322119205298013	0.317139072847682	-3.48609271523179	-1.09218543046358	2.49403973509934				0.949827814569536	-0.161271523178808	-0.0719470198675496	2.80741721854305	-0.133509933774833	0.35973509933775				0.752529801324503	-0.224529801324503	-0.565721854304636	7.24291390728477	4.3835761589404	-0.615629139072848				0.964026490066225	0.0194966887417219	0.0539337748344371	4.4317880794702	-2.18807947019868	5.26251655629139				0.623788079470199	-0.270834437086093	-0.644238410596026	-0.539602649006623	0.437615894039735	-4.11470198675497			
