No	Time	12-AccX	12-AccY	12-AccZ	12-GyroX	12-GyroY	12-GyroZ	13-AccX	13-AccY	13-AccZ	13-GyroX	13-GyroY	13-GyroZ	14-AccX	14-AccY	14-AccZ	14-GyroX	14-GyroY	14-GyroZ	15-AccX	15-AccY	15-AccZ	15-GyroX	15-GyroY	15-GyroZ	16-AccX	16-AccY	16-AccZ	16-GyroX	16-GyroY	16-GyroZ	17-AccX	17-AccY	17-AccZ	17-GyroX	17-GyroY	17-GyroZ
0	0	-0.248158940397351	0.146754966887417	-0.935523178807947	1.43337748344371	-0.704635761589404	-0.904900662251656				0.960953642384106	0.0637880794701987	-0.146860927152318	0.153907284768212	12.6278145695364	1.93403973509934				-0.218172185430464	-0.0332715231788079	-0.88794701986755	0.567417218543046	-0.133509933774833	-0.76026490066225				0	0	0	0	0	0				0.948026490066225	0.0834966887417219	0.117933774834437	-0.328211920529802	4.81192052980133	-2.29748344370861				0	0	0	0	0	0			
1	20	-0.248158940397351	0.162754966887417	-0.935523178807947	0.313377483443709	-0.144635761589404	-0.904900662251656				0.976953642384106	0.0797880794701987	-0.130860927152318	-1.52609271523179	13.7478145695364	1.65403973509934				-0.218172185430464	-0.0172715231788079	-0.90394701986755	0.00741721854304636	0.706490066225167	-0.20026490066225				0.160529801324503	-0.0165298013245033	-0.965721854304636	-1.99708609271523	5.2235761589404	-4.81562913907285				0.948026490066225	0.0834966887417219	0.133933774834437	0.791788079470198	5.37192052980133	-2.01748344370861				0.191788079470199	-0.222834437086093	-0.868238410596026	4.78039735099338	6.59761589403974	-4.39470198675497			
2	40	-0.264158940397351	0.162754966887417	-0.935523178807947	0.313377483443709	0.695364238410596	-1.18490066225166				0.976953642384106	0.0797880794701987	-0.114860927152318	-2.08609271523179	13.4678145695364	1.37403973509934				-0.234172185430464	-0.0172715231788079	-0.88794701986755	0.287417218543046	0.986490066225167	0.35973509933775				0.160529801324503	0.0154701986754967	-0.965721854304636	-5.35708609271523	5.5035761589404	-4.81562913907285				0.964026490066225	0.0994966887417219	0.133933774834437	0.231788079470198	4.53192052980133	-2.01748344370861				0.191788079470199	-0.238834437086093	-0.868238410596026	3.66039735099338	7.71761589403974	-3.55470198675497			
3	60	-0.248158940397351	0.162754966887417	-0.919523178807947	0.873377483443709	0.975364238410596	-0.624900662251656				0.992953642384106	0.0797880794701987	-0.114860927152318	-0.406092715231788	13.4678145695364	1.93403973509934				-0.218172185430464	-0.0332715231788079	-0.88794701986755	0.567417218543046	0.706490066225167	0.0797350993377501				0.160529801324503	-0.000529801324503289	-0.933721854304636	-3.39708609271523	7.1835761589404	-2.57562913907285				0.964026490066225	0.0994966887417219	0.133933774834437	1.6317880794702	5.93192052980133	-2.57748344370861				0.223788079470199	-0.238834437086093	-0.884238410596026	1.14039735099338	9.39761589403974	-2.71470198675497			
4	80	-0.232158940397351	0.146754966887417	-0.919523178807947	-0.246622516556291	0.415364238410596	-1.18490066225166				0.976953642384106	0.0797880794701987	-0.130860927152318	0.433907284768212	11.7878145695364	3.05403973509934				-0.218172185430464	-0.0332715231788079	-0.88794701986755	0.567417218543046	0.426490066225167	-0.20026490066225				0.160529801324503	-0.000529801324503289	-0.949721854304636	-2.27708609271523	9.1435761589404	-1.17562913907285				0.932026490066225	0.0994966887417219	0.165933774834437	2.4717880794702	8.45192052980133	-2.85748344370861				0.239788079470199	-0.238834437086093	-0.868238410596026	-0.259602649006623	9.67761589403974	-4.39470198675497			
5	100	-0.232158940397351	0.130754966887417	-0.919523178807947	0.313377483443709	-0.144635761589404	-1.74490066225166				0.976953642384106	0.0637880794701987	-0.0988609271523179	2.39390728476821	5.34781456953642	2.21403973509934				-0.202172185430464	-0.0172715231788079	-0.87194701986755	0.847417218543046	-0.413509933774833	-1.32026490066225				0.176529801324503	-0.000529801324503289	-0.949721854304636	-1.43708609271523	8.5835761589404	-0.0556291390728476				0.964026490066225	0.0674966887417219	0.149933774834437	0.791788079470198	8.17192052980133	-2.57748344370861				0.239788079470199	-0.254834437086093	-0.884238410596026	2.54039735099338	8.27761589403974	-6.91470198675497			
6	120	-0.248158940397351	0.146754966887417	-0.935523178807947	-0.806622516556291	0.135364238410596	-0.904900662251656				0.976953642384106	0.0637880794701987	-0.130860927152318	4.63390728476821	2.54781456953642	3.05403973509934				-0.218172185430464	-0.0172715231788079	-0.88794701986755	0.567417218543046	0.426490066225167	-0.76026490066225				0.176529801324503	0.0154701986754967	-0.981721854304636	-1.43708609271523	8.3035761589404	-0.0556291390728476				0.964026490066225	0.0674966887417219	0.165933774834437	1.6317880794702	5.37192052980133	-1.45748344370861				0.239788079470199	-0.254834437086093	-0.884238410596026	2.26039735099338	8.83761589403974	-8.31470198675497			
7	140	-0.248158940397351	0.146754966887417	-0.935523178807947	-1.08662251655629	0.415364238410596	-0.904900662251656				0.992953642384106	0.0637880794701987	-0.130860927152318	1.83390728476821	5.06781456953642	1.37403973509934				-0.218172185430464	-0.0332715231788079	-0.88794701986755	0.287417218543046	0.146490066225167	-0.48026490066225				0.176529801324503	-0.000529801324503289	-0.965721854304636	-1.43708609271523	6.6235761589404	-0.335629139072848				0.964026490066225	0.0674966887417219	0.165933774834437	1.0717880794702	3.13192052980133	-1.45748344370861				0.239788079470199	-0.254834437086093	-0.900238410596026	3.10039735099338	8.27761589403974	-9.99470198675497			
8	160	-0.232158940397351	0.146754966887417	-0.919523178807947	-1.08662251655629	1.2553642384106	-0.904900662251656				0.976953642384106	0.0637880794701987	-0.0668609271523178	0.993907284768212	6.74781456953642	1.37403973509934				-0.202172185430464	-0.0172715231788079	-0.88794701986755	0.287417218543046	-0.133509933774833	0.0797350993377501				0.160529801324503	-0.000529801324503289	-0.965721854304636	-1.15708609271523	6.6235761589404	-0.0556291390728476				0.948026490066225	0.0834966887417219	0.149933774834437	0.791788079470198	4.81192052980133	-0.897483443708608				0.239788079470199	-0.254834437086093	-0.916238410596027	1.42039735099338	4.07761589403974	-8.87470198675497			
9	180	-0.232158940397351	0.146754966887417	-0.919523178807947	0.593377483443709	0.695364238410596	0.215099337748344				0.976953642384106	0.0637880794701987	-0.0668609271523178	0.433907284768212	5.90781456953642	1.09403973509934				-0.202172185430464	-0.0332715231788079	-0.88794701986755	1.68741721854305	0.146490066225167	-1.04026490066225				0.160529801324503	-0.000529801324503289	-0.949721854304636	-1.99708609271523	6.6235761589404	-0.895629139072848				0.948026490066225	0.0674966887417219	0.149933774834437	1.3517880794702	6.77192052980133	-2.01748344370861				0.239788079470199	-0.254834437086093	-0.900238410596026	-0.259602649006623	2.39761589403974	-8.59470198675497			
10	200	-0.232158940397351	0.146754966887417	-0.935523178807947	1.43337748344371	0.135364238410596	-0.0649006622516557				0.976953642384106	0.0637880794701987	-0.0668609271523178	1.27390728476821	-0.252185430463576	0.81403973509934				-0.202172185430464	-0.0332715231788079	-0.88794701986755	1.12741721854305	0.986490066225167	-0.48026490066225				0.144529801324503	-0.000529801324503289	-0.933721854304636	-1.15708609271523	7.7435761589404	-2.01562913907285				0.948026490066225	0.0674966887417219	0.165933774834437	1.0717880794702	7.33192052980133	-2.29748344370861				0.239788079470199	-0.254834437086093	-0.916238410596027	1.98039735099338	2.67761589403974	-7.75470198675497			
11	220	-0.232158940397351	0.146754966887417	-0.951523178807947	0.313377483443709	0.135364238410596	-0.0649006622516557				0.976953642384106	0.0637880794701987	-0.130860927152318	1.27390728476821	-1.93218543046358	-0.0259602649006601				-0.202172185430464	-0.0332715231788079	-0.88794701986755	-0.272582781456954	0.426490066225167	-0.20026490066225				0.160529801324503	-0.000529801324503289	-0.949721854304636	0.802913907284768	9.9835761589404	-1.45562913907285				0.948026490066225	0.0834966887417219	0.165933774834437	1.6317880794702	6.49192052980132	-2.29748344370861				0.223788079470199	-0.254834437086093	-0.884238410596026	3.10039735099338	1.83761589403974	-6.35470198675497			
12	240	-0.232158940397351	0.146754966887417	-0.919523178807947	-1.08662251655629	0.415364238410596	-0.0649006622516557				0.960953642384106	0.0637880794701987	-0.114860927152318	-0.126092715231788	-3.89218543046358	0.53403973509934				-0.218172185430464	-0.0492715231788079	-0.88794701986755	1.12741721854305	0.146490066225167	-0.48026490066225				0.176529801324503	-0.000529801324503289	-0.965721854304636	1.36291390728477	8.5835761589404	-1.73562913907285				0.948026490066225	0.0674966887417219	0.133933774834437	2.1917880794702	7.61192052980133	-2.01748344370861				0.239788079470199	-0.254834437086093	-0.884238410596026	5.06039735099338	0.437615894039735	-5.79470198675497			
13	260	-0.248158940397351	0.146754966887417	-0.919523178807947	0.313377483443709	0.415364238410596	-0.904900662251656				0.960953642384106	0.0477880794701987	-0.114860927152318	1.27390728476821	0.867814569536424	1.09403973509934				-0.218172185430464	-0.0332715231788079	-0.88794701986755	0.847417218543046	0.426490066225167	0.35973509933775				0.176529801324503	-0.000529801324503289	-0.981721854304636	-0.0370860927152318	5.7835761589404	-2.57562913907285				0.948026490066225	0.0834966887417219	0.149933774834437	0.791788079470198	8.17192052980133	-2.29748344370861				0.239788079470199	-0.254834437086093	-0.868238410596026	5.62039735099338	0.437615894039735	-2.99470198675497			
14	280	-0.232158940397351	0.146754966887417	-0.919523178807947	-1.64662251655629	-0.424635761589404	-1.18490066225166				0.976953642384106	0.0477880794701987	-0.0988609271523179	2.39390728476821	3.66781456953642	1.65403973509934				-0.218172185430464	-0.0332715231788079	-0.88794701986755	0.567417218543046	0.146490066225167	-0.76026490066225				0.192529801324503	-0.000529801324503289	-0.965721854304636	-2.27708609271523	5.2235761589404	-3.97562913907285				0.980026490066225	0.0674966887417219	0.165933774834437	-0.0482119205298018	8.45192052980133	-2.29748344370861				0.223788079470199	-0.286834437086093	-0.884238410596026	7.30039735099338	1.83761589403974	-2.15470198675497			
15	300	-0.232158940397351	0.146754966887417	-0.919523178807947	-1.64662251655629	-0.424635761589404	-1.18490066225166				0.944953642384106	0.0637880794701987	-0.130860927152318	3.79390728476821	3.10781456953642	0.25403973509934				-0.218172185430464	-0.0172715231788079	-0.88794701986755	0.287417218543046	-0.413509933774833	-0.48026490066225				0.192529801324503	0.0154701986754967	-0.965721854304636	-1.15708609271523	3.5435761589404	-5.65562913907285				0.964026490066225	0.0834966887417219	0.165933774834437	-0.328211920529802	5.65192052980133	-1.45748344370861				0.223788079470199	-0.286834437086093	-0.884238410596026	5.62039735099338	3.23761589403974	-0.474701986754968			
16	320	-0.248158940397351	0.162754966887417	-0.935523178807947	-1.08662251655629	0.135364238410596	-0.344900662251656				0.976953642384106	0.0797880794701987	-0.114860927152318	2.39390728476821	6.74781456953642	-0.86596026490066				-0.218172185430464	-0.0172715231788079	-0.88794701986755	0.847417218543046	0.146490066225167	0.0797350993377501				0.160529801324503	-0.000529801324503289	-0.965721854304636	-0.877086092715232	3.5435761589404	-5.65562913907285				0.948026490066225	0.0674966887417219	0.133933774834437	-0.888211920529802	5.65192052980133	-1.45748344370861				0.223788079470199	-0.254834437086093	-0.884238410596026	3.10039735099338	4.35761589403974	1.48529801324503			
17	340	-0.232158940397351	0.146754966887417	-0.935523178807947	-1.08662251655629	0.695364238410596	-0.344900662251656				0.992953642384106	0.0957880794701987	-0.130860927152318	3.79390728476821	9.54781456953642	2.21403973509934				-0.218172185430464	-0.0172715231788079	-0.90394701986755	1.12741721854305	0.146490066225167	0.0797350993377501				0.176529801324503	-0.000529801324503289	-0.949721854304636	-1.71708609271523	2.4235761589404	-5.65562913907285				0.964026490066225	0.0994966887417219	0.149933774834437	0.231788079470198	5.93192052980133	-0.897483443708608				0.239788079470199	-0.254834437086093	-0.868238410596026	3.66039735099338	4.91761589403974	3.44529801324503			
18	360	-0.232158940397351	0.130754966887417	-0.919523178807947	-1.64662251655629	0.415364238410596	-0.0649006622516557				0.976953642384106	0.0797880794701987	-0.146860927152318	6.59390728476821	8.98781456953643	4.73403973509934				-0.218172185430464	-0.0172715231788079	-0.90394701986755	1.68741721854305	0.146490066225167	0.0797350993377501				0.208529801324503	-0.000529801324503289	-0.981721854304636	-1.99708609271523	1.5835761589404	-4.25562913907285				0.980026490066225	0.0994966887417219	0.165933774834437	0.231788079470198	7.05192052980133	-1.17748344370861				0.223788079470199	-0.270834437086093	-0.884238410596026	2.82039735099338	5.19761589403974	4.56529801324503			
19	380	-0.248158940397351	0.130754966887417	-0.919523178807947	-2.20662251655629	0.135364238410596	0.215099337748344				0.976953642384106	0.0637880794701987	-0.130860927152318	6.59390728476821	7.58781456953643	4.17403973509934				-0.234172185430464	-0.0172715231788079	-0.88794701986755	1.40741721854305	1.54649006622517	-1.32026490066225				0.208529801324503	-0.000529801324503289	-0.997721854304636	-0.597086092715232	4.1035761589404	-2.57562913907285				0.996026490066225	0.0994966887417219	0.165933774834437	1.3517880794702	4.81192052980133	-2.29748344370861				0.239788079470199	-0.270834437086093	-0.884238410596026	2.54039735099338	5.75761589403974	4.84529801324503			
20	400	-0.280158940397351	0.162754966887417	-0.919523178807947	-1.92662251655629	0.975364238410596	0.495099337748344				0.976953642384106	0.0797880794701987	-0.130860927152318	3.79390728476821	8.98781456953643	3.61403973509934				-0.234172185430464	-0.0172715231788079	-0.88794701986755	3.08741721854305	0.426490066225167	-1.04026490066225				0.192529801324503	-0.000529801324503289	-0.997721854304636	-0.877086092715232	3.2635761589404	-2.29562913907285				0.996026490066225	0.0994966887417219	0.165933774834437	0.511788079470198	0.891920529801325	-1.73748344370861				0.255788079470199	-0.270834437086093	-0.900238410596026	0.0203973509933773	6.31761589403974	4.56529801324503			
21	420	-0.264158940397351	0.162754966887417	-0.935523178807947	-1.08662251655629	2.9353642384106	0.495099337748344				0.992953642384106	0.0797880794701987	-0.114860927152318	0.713907284768212	14.5878145695364	2.21403973509934				-0.250172185430464	-0.0172715231788079	-0.88794701986755	2.24741721854305	0.986490066225167	-1.04026490066225				0.176529801324503	0.0154701986754967	-0.981721854304636	-3.11708609271523	1.0235761589404	-3.69562913907285				0.980026490066225	0.0994966887417219	0.149933774834437	0.511788079470198	0.331920529801325	-1.17748344370861				0.255788079470199	-0.270834437086093	-0.900238410596026	-1.09960264900662	6.59761589403974	5.12529801324503			
22	440	-0.248158940397351	0.162754966887417	-0.935523178807947	-2.76662251655629	3.2153642384106	2.17509933774834				1.00895364238411	0.0797880794701987	-0.0988609271523179	2.11390728476821	17.1078145695364	2.49403973509934				-0.218172185430464	-0.0172715231788079	-0.90394701986755	1.68741721854305	0.426490066225167	-0.48026490066225				0.176529801324503	0.0154701986754967	-0.949721854304636	-2.55708609271523	1.0235761589404	-3.41562913907285				0.964026490066225	0.0834966887417219	0.165933774834437	0.231788079470198	1.45192052980132	-1.73748344370861				0.255788079470199	-0.270834437086093	-0.884238410596026	-3.05960264900662	6.31761589403974	5.96529801324503			
23	460	-0.200158940397351	0.146754966887417	-0.919523178807947	-3.88662251655629	2.9353642384106	1.89509933774834				0.992953642384106	0.0477880794701987	-0.0508609271523178	2.39390728476821	4.78781456953642	4.17403973509934				-0.202172185430464	-0.0332715231788079	-0.90394701986755	4.76741721854305	2.10649006622517	-1.04026490066225				0.176529801324503	0.0154701986754967	-0.949721854304636	-1.71708609271523	-0.0964238410596001	-2.29562913907285				0.932026490066225	0.0994966887417219	0.165933774834437	-1.1682119205298	1.45192052980132	-2.29748344370861				0.255788079470199	-0.270834437086093	-0.884238410596026	-3.05960264900662	4.63761589403974	6.80529801324503			
24	480	-0.216158940397351	0.146754966887417	-0.935523178807947	-2.76662251655629	2.0953642384106	1.61509933774834				0.960953642384106	0.0317880794701987	-0.0668609271523178	2.11390728476821	0.867814569536424	2.77403973509934				-0.186172185430464	-0.0492715231788079	-0.88794701986755	4.48741721854305	2.38649006622517	-2.16026490066225				0.192529801324503	-0.000529801324503289	-0.965721854304636	1.08291390728477	0.4635761589404	-1.45562913907285				0.948026490066225	0.0994966887417219	0.165933774834437	-2.8482119205298	1.73192052980133	-1.45748344370861				0.239788079470199	-0.270834437086093	-0.900238410596026	-1.93960264900662	4.91761589403974	9.04529801324503			
25	500	-0.200158940397351	0.162754966887417	-0.935523178807947	-2.76662251655629	1.2553642384106	1.61509933774834				0.960953642384106	0.0477880794701987	-0.0668609271523178	-4.88609271523179	1.98781456953642	0.81403973509934				-0.186172185430464	-0.0652715231788079	-0.87194701986755	5.04741721854305	1.54649006622517	-3.00026490066225				0.176529801324503	0.0154701986754967	-0.965721854304636	0.242913907284768	-0.9364238410596	-2.01562913907285				0.948026490066225	0.0834966887417219	0.165933774834437	-2.0082119205298	1.45192052980132	-0.897483443708608				0.255788079470199	-0.270834437086093	-0.868238410596026	-2.77960264900662	3.23761589403974	9.60529801324503			
26	520	-0.232158940397351	0.162754966887417	-0.935523178807947	-5.56662251655629	1.5353642384106	2.73509933774834				0.944953642384106	0.0637880794701987	-0.0668609271523178	-7.96609271523179	0.587814569536424	1.09403973509934				-0.218172185430464	-0.0492715231788079	-0.88794701986755	4.48741721854305	-0.693509933774834	-2.16026490066225				0.160529801324503	-0.000529801324503289	-0.965721854304636	0.242913907284768	-0.9364238410596	-2.57562913907285				0.948026490066225	0.0834966887417219	0.149933774834437	-3.9682119205298	-0.788079470198675	-1.17748344370861				0.239788079470199	-0.270834437086093	-0.884238410596026	-1.93960264900662	3.51761589403974	10.725298013245			
27	540	-0.232158940397351	0.146754966887417	-0.919523178807947	-4.16662251655629	0.695364238410596	1.61509933774834				1.00895364238411	0.0637880794701987	-0.0508609271523178	-2.08609271523179	-0.252185430463576	2.49403973509934				-0.202172185430464	-0.0492715231788079	-0.90394701986755	1.68741721854305	0.146490066225167	-1.04026490066225				0.128529801324503	-0.0325298013245033	-0.949721854304636	4.44291390728477	-0.3764238410596	-4.25562913907285				0.916026490066225	0.0674966887417219	0.133933774834437	-4.8082119205298	-1.62807947019868	-2.29748344370861				0.239788079470199	-0.254834437086093	-0.884238410596026	-2.21960264900662	4.07761589403974	13.525298013245			
28	560	-0.232158940397351	0.178754966887417	-0.951523178807947	-1.92662251655629	0.415364238410596	2.45509933774835				0.960953642384106	0.0637880794701987	-0.0508609271523178	3.23390728476821	-2.21218543046358	1.09403973509934				-0.218172185430464	-0.0492715231788079	-0.90394701986755	5.32741721854305	0.706490066225167	-0.48026490066225				0.112529801324503	-0.000529801324503289	-0.949721854304636	1.92291390728477	-4.0164238410596	-6.21562913907285				0.868026490066225	0.0994966887417219	0.149933774834437	-2.8482119205298	5.65192052980133	-2.29748344370861				0.207788079470199	-0.238834437086093	-0.884238410596026	0.580397350993377	2.95761589403974	16.045298013245			
29	580	-0.232158940397351	0.178754966887417	-0.935523178807947	-2.48662251655629	-0.144635761589404	2.73509933774834				0.944953642384106	0.0317880794701987	-0.0188609271523178	2.11390728476821	-3.33218543046358	-3.38596026490066				-0.218172185430464	-0.0332715231788079	-0.87194701986755	3.64741721854305	0.426490066225167	0.91973509933775				0.128529801324503	-0.0165298013245033	-0.949721854304636	-5.07708609271523	-10.1764238410596	-6.21562913907285				0.900026490066225	0.0994966887417219	0.149933774834437	-5.6482119205298	10.4119205298013	-2.85748344370861				0.207788079470199	-0.222834437086093	-0.884238410596026	-0.259602649006623	3.79761589403974	18.005298013245			
30	600	-0.232158940397351	0.162754966887417	-0.919523178807947	-1.36662251655629	1.5353642384106	1.89509933774834				0.944953642384106	-0.000211920529801304	-0.0188609271523178	8.55390728476821	7.58781456953643	0.25403973509934				-0.186172185430464	-0.0492715231788079	-0.88794701986755	0.567417218543046	-0.693509933774834	2.31973509933775				0.160529801324503	-0.000529801324503289	-0.949721854304636	-8.15708609271523	-9.8964238410596	-7.89562913907285				0.916026490066225	0.0674966887417219	0.165933774834437	-8.1682119205298	13.2119205298013	-4.25748344370861				0.191788079470199	-0.222834437086093	-0.900238410596026	5.62039735099338	7.71761589403974	18.845298013245			
31	620	-0.216158940397351	0.162754966887417	-0.919523178807947	-1.08662251655629	0.975364238410596	1.61509933774834				0.960953642384106	0.0477880794701987	-0.0508609271523178	2.95390728476821	10.6678145695364	-0.0259602649006601				-0.186172185430464	-0.0492715231788079	-0.87194701986755	3.36741721854305	-0.693509933774834	2.03973509933775				0.160529801324503	0.0154701986754967	-0.965721854304636	-6.47708609271523	-6.5364238410596	-9.01562913907285				0.948026490066225	0.0834966887417219	0.181933774834437	-7.3282119205298	15.4519205298013	-4.53748344370861				0.207788079470199	-0.238834437086093	-0.868238410596026	14.5803973509934	8.55761589403974	20.525298013245			
32	640	-0.216158940397351	0.146754966887417	-0.919523178807947	-3.60662251655629	0.135364238410596	0.775099337748344				0.960953642384106	0.0637880794701987	-0.0988609271523179	2.39390728476821	10.6678145695364	1.65403973509934				-0.218172185430464	-0.0332715231788079	-0.90394701986755	0.567417218543046	-2.37350993377483	0.63973509933775				0.144529801324503	0.0154701986754967	-0.949721854304636	-3.95708609271523	-4.2964238410596	-9.29562913907285				0.964026490066225	0.0834966887417219	0.149933774834437	-6.2082119205298	14.0519205298013	-4.25748344370861				0.191788079470199	-0.254834437086093	-0.868238410596026	13.1803973509934	8.27761589403974	18.845298013245			
33	660	-0.232158940397351	0.162754966887417	-0.935523178807947	-4.16662251655629	-0.984635761589404	0.215099337748344				0.976953642384106	0.0637880794701987	-0.146860927152318	5.75390728476821	12.9078145695364	1.09403973509934				-0.218172185430464	-0.0492715231788079	-0.90394701986755	1.40741721854305	-3.77350993377483	-1.32026490066225				0.144529801324503	0.0314701986754967	-0.965721854304636	0.242913907284768	-2.8964238410596	-9.01562913907285				0.964026490066225	0.115496688741722	0.149933774834437	-5.6482119205298	13.4919205298013	-0.897483443708608				0.191788079470199	-0.254834437086093	-0.900238410596026	8.98039735099338	13.8776158940397	21.365298013245			
34	680	-0.248158940397351	0.178754966887417	-0.935523178807947	-2.76662251655629	-0.704635761589404	0.215099337748344				0.944953642384106	0.0477880794701987	-0.114860927152318	7.71390728476821	21.3078145695364	0.81403973509934				-0.234172185430464	-0.0172715231788079	-0.88794701986755	1.68741721854305	-2.93350993377483	-1.60026490066225				0.128529801324503	0.0314701986754967	-0.933721854304636	3.32291390728477	-2.6164238410596	-11.2556291390728				0.996026490066225	0.0834966887417219	0.133933774834437	-6.4882119205298	12.6519205298013	0.782516556291392				0.207788079470199	-0.254834437086093	-0.900238410596026	14.3003973509934	14.9976158940397	19.685298013245			
35	700	-0.264158940397351	0.178754966887417	-0.919523178807947	-1.08662251655629	-0.144635761589404	-0.0649006622516557				0.960953642384106	0.0637880794701987	-0.0828609271523179	7.99390728476821	30.5478145695364	1.65403973509934				-0.250172185430464	-0.0332715231788079	-0.87194701986755	0.567417218543046	-0.693509933774834	-1.04026490066225				0.160529801324503	0.0314701986754967	-0.965721854304636	7.52291390728477	-3.4564238410596	-11.8156291390728				0.980026490066225	0.115496688741722	0.149933774834437	-4.2482119205298	12.9319205298013	-0.337483443708608				0.207788079470199	-0.254834437086093	-0.884238410596026	11.2203973509934	13.8776158940397	19.405298013245			
36	720	-0.280158940397351	0.178754966887417	-0.919523178807947	-3.32662251655629	1.5353642384106	-0.624900662251656				1.00895364238411	0.0637880794701987	-0.0668609271523178	3.79390728476821	37.5478145695364	3.89403973509934				-0.250172185430464	-0.0492715231788079	-0.87194701986755	2.24741721854305	-0.973509933774833	0.0797350993377501				0.192529801324503	-0.0165298013245033	-0.981721854304636	0.242913907284768	-5.6964238410596	-12.9356291390728				0.964026490066225	0.0994966887417219	0.149933774834437	1.0717880794702	12.3719205298013	-0.337483443708608				0.191788079470199	-0.270834437086093	-0.884238410596026	7.58039735099338	14.4376158940397	22.205298013245			
37	740	-0.280158940397351	0.162754966887417	-0.919523178807947	-5.00662251655629	2.6553642384106	-0.624900662251656				0.976953642384106	0.0637880794701987	-0.0508609271523178	-0.126092715231788	39.7878145695364	3.61403973509934				-0.234172185430464	-0.0652715231788079	-0.90394701986755	3.36741721854305	0.146490066225167	0.35973509933775				0.160529801324503	0.0154701986754967	-0.997721854304636	-6.75708609271523	-5.4164238410596	-11.8156291390728				0.964026490066225	0.131496688741722	0.197933774834437	-0.888211920529802	14.0519205298013	0.222516556291392				0.207788079470199	-0.286834437086093	-0.900238410596026	7.30039735099338	20.0376158940397	23.605298013245			
38	760	-0.248158940397351	0.194754966887417	-0.919523178807947	-6.68662251655629	1.8153642384106	1.05509933774834				0.928953642384106	0.0797880794701987	-0.0348609271523178	-1.80609271523179	42.0278145695364	1.37403973509934				-0.218172185430464	-0.0492715231788079	-0.88794701986755	3.08741721854305	0.146490066225167	-0.48026490066225				0.112529801324503	0.0314701986754967	-0.981721854304636	-1.71708609271523	1.0235761589404	-9.57562913907285				0.980026490066225	0.0994966887417219	0.213933774834437	-0.328211920529802	11.2519205298013	-0.337483443708608				0.239788079470199	-0.270834437086093	-0.916238410596027	11.5003973509934	21.4376158940397	23.325298013245			
39	780	-0.216158940397351	0.178754966887417	-0.919523178807947	-5.56662251655629	0.975364238410596	1.61509933774834				0.960953642384106	0.0797880794701987	-0.00286092715231785	-0.686092715231788	51.8278145695364	2.49403973509934				-0.202172185430464	-0.0492715231788079	-0.88794701986755	1.68741721854305	2.94649006622517	-0.20026490066225				0.112529801324503	0.0314701986754967	-0.981721854304636	3.88291390728477	6.9035761589404	-8.45562913907285				0.964026490066225	0.115496688741722	0.181933774834437	-3.1282119205298	5.93192052980133	-2.01748344370861				0.271788079470199	-0.254834437086093	-0.884238410596026	13.4603973509934	13.3176158940397	19.125298013245			
40	800	-0.200158940397351	0.194754966887417	-0.935523178807947	-2.20662251655629	1.8153642384106	2.17509933774834				0.976953642384106	0.0957880794701987	0.0291390728476822	1.55390728476821	59.9478145695364	4.17403973509934				-0.186172185430464	-0.0332715231788079	-0.88794701986755	2.52741721854305	1.26649006622517	1.19973509933775				0.0965298013245033	-0.000529801324503289	-0.965721854304636	11.4429139072848	9.9835761589404	-10.9756291390728				0.932026490066225	0.115496688741722	0.149933774834437	-2.2882119205298	2.29192052980133	-1.45748344370861				0.255788079470199	-0.270834437086093	-0.884238410596026	14.3003973509934	11.6376158940397	19.125298013245			
41	820	-0.168158940397351	0.178754966887417	-0.935523178807947	0.593377483443709	0.975364238410596	3.01509933774834				0.928953642384106	0.0797880794701987	0.0771390728476822	2.39390728476821	64.4278145695364	6.97403973509934				-0.186172185430464	-0.0332715231788079	-0.88794701986755	5.88741721854305	1.26649006622517	1.47973509933775				0.0965298013245033	0.0154701986754967	-0.949721854304636	3.88291390728477	8.3035761589404	-14.6156291390728				0.932026490066225	0.115496688741722	0.149933774834437	0.231788079470198	5.93192052980133	-2.85748344370861				0.239788079470199	-0.318834437086093	-0.852238410596026	16.5403973509934	4.63761589403974	22.485298013245			
42	840	-0.168158940397351	0.162754966887417	-0.935523178807947	1.43337748344371	-0.424635761589404	2.73509933774834				0.960953642384106	0.0477880794701987	0.0451390728476822	5.75390728476821	67.5078145695364	11.1740397350993				-0.186172185430464	-0.0332715231788079	-0.88794701986755	5.88741721854305	0.146490066225167	0.0797350993377501				0.0965298013245033	0.0314701986754967	-0.949721854304636	3.60291390728477	6.0635761589404	-13.7756291390728				0.964026490066225	0.115496688741722	0.165933774834437	-2.2882119205298	7.89192052980133	-0.617483443708608				0.239788079470199	-0.318834437086093	-0.852238410596026	8.14039735099338	2.39761589403974	25.565298013245			
43	860	-0.216158940397351	0.178754966887417	-0.935523178807947	3.11337748344371	-2.1046357615894	1.61509933774834				0.960953642384106	0.0317880794701987	0.0771390728476822	1.83390728476821	71.9878145695364	13.9740397350993				-0.202172185430464	-0.0492715231788079	-0.88794701986755	6.44741721854305	-0.413509933774833	-1.32026490066225				0.112529801324503	0.0634701986754967	-0.949721854304636	9.48291390728477	5.2235761589404	-10.1356291390728				1.02802649006623	0.0994966887417219	0.165933774834437	-6.2082119205298	0.331920529801325	-0.897483443708608				0.223788079470199	-0.318834437086093	-0.916238410596027	5.06039735099338	5.47761589403974	27.245298013245			
44	880	-0.264158940397351	0.194754966887417	-0.951523178807947	1.15337748344371	-3.2246357615894	0.215099337748344				0.944953642384106	0.0637880794701987	0.0931390728476822	-6.56609271523179	80.3878145695364	13.6940397350993				-0.218172185430464	-0.0332715231788079	-0.90394701986755	3.92741721854305	0.706490066225167	-2.44026490066225				0.144529801324503	0.0154701986754967	-0.997721854304636	15.3629139072848	6.3435761589404	-9.29562913907285				0.996026490066225	0.131496688741722	0.181933774834437	-3.4082119205298	-8.06807947019868	1.62251655629139				0.271788079470199	-0.302834437086093	-0.900238410596026	9.26039735099338	9.95761589403974	29.765298013245			
45	900	-0.280158940397351	0.210754966887417	-0.919523178807947	-1.08662251655629	-1.5446357615894	0.495099337748344				1.02495364238411	0.0477880794701987	0.141139072847682	-8.52609271523179	87.3878145695364	14.5340397350993				-0.266172185430464	-0.0332715231788079	-0.91994701986755	3.08741721854305	-0.133509933774833	-2.72026490066225				0.160529801324503	-0.0165298013245033	-0.981721854304636	11.7229139072848	8.3035761589404	-8.45562913907285				0.932026490066225	0.115496688741722	0.213933774834437	2.7517880794702	-3.58807947019868	2.18251655629139				0.287788079470199	-0.318834437086093	-0.868238410596026	13.7403973509934	1.83761589403974	29.205298013245			
46	920	-0.296158940397351	0.194754966887417	-0.903523178807947	-1.36662251655629	2.0953642384106	0.495099337748344				1.07295364238411	0.0317880794701987	0.173139072847682	-1.52609271523179	77.3078145695364	17.3340397350993				-0.298172185430464	-0.0172715231788079	-0.90394701986755	5.60741721854305	1.82649006622517	-3.00026490066225				0.176529801324503	-0.000529801324503289	-0.981721854304636	5.28291390728477	7.7435761589404	-9.01562913907285				0.932026490066225	0.131496688741722	0.245933774834437	4.4317880794702	4.53192052980133	3.02251655629139				0.303788079470199	-0.366834437086093	-0.852238410596026	7.30039735099338	-1.24238410596026	26.965298013245			
47	940	-0.312158940397351	0.194754966887417	-0.903523178807947	0.313377483443709	2.3753642384106	0.495099337748344				0	0	0	0	0	0				0	0	0	0	0	0				0.208529801324503	0.0314701986754967	-0.981721854304636	8.08291390728477	7.1835761589404	-6.49562913907285				0.980026490066225	0.115496688741722	0.293933774834437	8.3517880794702	6.21192052980133	3.58251655629139				0.303788079470199	-0.414834437086093	-0.836238410596026	5.62039735099338	-2.64238410596027	23.605298013245			
48	960	-0.312158940397351	0.210754966887417	-0.887523178807947	-0.246622516556291	2.6553642384106	-0.0649006622516557				0.992953642384106	0.0157880794701987	0.397139072847682	-12.4460927152318	65.8278145695364	13.1340397350993				-0.266172185430464	-0.0172715231788079	-0.90394701986755	7.28741721854305	4.34649006622517	-2.16026490066225				0.256529801324503	-0.000529801324503289	-0.965721854304636	10.0429139072848	8.8635761589404	-3.13562913907285				0.980026490066225	0.0834966887417219	0.325933774834437	4.9917880794702	3.69192052980133	2.46251655629139				0.319788079470199	-0.414834437086093	-0.852238410596026	-10.3396026490066	3.23761589403974	18.845298013245			
49	980	-0.280158940397351	0.210754966887417	-0.903523178807947	-0.526622516556291	3.2153642384106	-1.46490066225166				0.976953642384106	0.0157880794701987	0.445139072847682	-15.8060927152318	58.2678145695364	5.85403973509934				-0.234172185430464	-0.0172715231788079	-0.88794701986755	11.487417218543	5.46649006622517	-3.00026490066225				0.256529801324503	-0.000529801324503289	-0.965721854304636	3.32291390728477	8.0235761589404	-3.13562913907285				0.916026490066225	0.0994966887417219	0.325933774834437	0.231788079470198	1.17192052980133	1.90251655629139				0.335788079470199	-0.382834437086093	-0.804238410596027	-10.6196026490066	2.39761589403974	15.485298013245			
50	1000	-0.216158940397351	0.178754966887417	-0.935523178807947	-1.36662251655629	4.3353642384106	0.215099337748344				0.992953642384106	-0.000211920529801304	0.397139072847682	-11.3260927152318	47.9078145695364	5.01403973509934				-0.218172185430464	-0.0172715231788079	-0.90394701986755	11.487417218543	5.18649006622517	-3.56026490066225				0.256529801324503	0.0154701986754967	-0.933721854304636	-5.07708609271523	7.4635761589404	-3.97562913907285				0.868026490066225	0.0994966887417219	0.325933774834437	0.231788079470198	3.41192052980132	2.18251655629139				0.319788079470199	-0.382834437086093	-0.788238410596027	-6.69960264900662	3.79761589403974	12.405298013245			
51	1020	-0.168158940397351	0.162754966887417	-0.951523178807947	-0.806622516556291	4.8953642384106	0.215099337748344				0.944953642384106	-0.0322119205298013	0.381139072847682	-9.64609271523179	37.5478145695364	6.69403973509934				-0.154172185430464	-0.0652715231788079	-0.88794701986755	16.5274172185431	5.74649006622517	-3.84026490066225				0.240529801324503	0.0154701986754967	-0.901721854304636	-4.23708609271523	5.7835761589404	-2.29562913907285				0.852026490066225	0.0994966887417219	0.373933774834437	-0.608211920529802	8.45192052980133	-0.337483443708608				0.351788079470199	-0.430834437086093	-0.788238410596027	10.1003973509934	2.67761589403974	7.64529801324503			
52	1040	-0.136158940397351	0.146754966887417	-0.967523178807947	-1.64662251655629	3.7753642384106	0.215099337748344				0.880953642384106	-0.0482119205298013	0.429139072847682	-13.8460927152318	35.8678145695364	5.01403973509934				-0.122172185430464	-0.0972715231788079	-0.88794701986755	11.767417218543	5.74649006622517	-5.80026490066225				0.256529801324503	0.0314701986754967	-0.901721854304636	-1.43708609271523	7.4635761589404	0.224370860927152				0.868026490066225	0.115496688741722	0.373933774834437	-4.2482119205298	8.45192052980133	-0.897483443708608				0.383788079470199	-0.462834437086093	-0.788238410596027	10.9403973509934	1.83761589403974	7.08529801324503			
53	1060	-0.104158940397351	0.146754966887417	-0.935523178807947	-1.64662251655629	1.8153642384106	-0.904900662251656				0.880953642384106	-0.0482119205298013	0.445139072847682	-14.1260927152318	30.2678145695364	2.77403973509934				-0.106172185430464	-0.161271523178808	-0.87194701986755	9.80741721854305	3.50649006622517	-7.48026490066225				0.304529801324503	0.0474701986754967	-0.917721854304636	-1.43708609271523	11.1035761589404	3.58437086092715				0.884026490066225	0.115496688741722	0.341933774834437	-5.6482119205298	7.05192052980133	1.62251655629139				0.383788079470199	-0.462834437086093	-0.788238410596027	9.54039735099338	-2.64238410596027	10.445298013245			
54	1080	-0.136158940397351	0.162754966887417	-0.951523178807947	0.0333774834437086	-0.984635761589404	-1.18490066225166				0.880953642384106	-0.0322119205298013	0.397139072847682	-10.4860927152318	25.2278145695364	3.33403973509934				-0.122172185430464	-0.145271523178808	-0.85594701986755	8.40741721854305	-1.25350993377483	-6.36026490066225				0.304529801324503	0.0474701986754967	-0.869721854304636	2.76291390728477	11.6635761589404	5.82437086092715				0.852026490066225	0.0994966887417219	0.325933774834437	-5.3682119205298	6.21192052980133	3.30251655629139				0.351788079470199	-0.414834437086093	-0.804238410596027	13.4603973509934	-5.44238410596027	14.365298013245			
55	1100	-0.184158940397351	0.162754966887417	-0.951523178807947	2.27337748344371	-2.3846357615894	-1.46490066225166				0.880953642384106	-0.0642119205298013	0.413139072847682	-11.3260927152318	28.5878145695364	7.81403973509934				-0.138172185430464	-0.161271523178808	-0.88794701986755	6.44741721854305	1.82649006622517	-4.40026490066225				0.272529801324503	0.0474701986754967	-0.869721854304636	3.60291390728477	8.8635761589404	6.10437086092715				0.836026490066225	0.115496688741722	0.309933774834437	-8.7282119205298	8.17192052980133	4.70251655629139				0.287788079470199	-0.414834437086093	-0.788238410596027	21.0203973509934	-8.24238410596027	17.725298013245			
56	1120	-0.200158940397351	0.162754966887417	-0.935523178807947	2.27337748344371	-2.1046357615894	-0.904900662251656				0.880953642384106	-0.0962119205298013	0.413139072847682	-14.9660927152318	34.4678145695364	7.81403973509934				-0.154172185430464	-0.161271523178808	-0.88794701986755	3.36741721854305	1.26649006622517	-2.72026490066225				0.256529801324503	0.0634701986754967	-0.901721854304636	2.20291390728477	4.3835761589404	4.98437086092715				0.868026490066225	0.115496688741722	0.293933774834437	-7.8882119205298	11.5319205298013	4.14251655629139				0.255788079470199	-0.430834437086093	-0.804238410596027	19.3403973509934	-10.4823841059603	18.565298013245			
57	1140	-0.216158940397351	0.146754966887417	-0.919523178807947	1.71337748344371	-2.1046357615894	-1.46490066225166				0.912953642384106	-0.0482119205298013	0.429139072847682	-19.7260927152318	32.7878145695364	4.17403973509934				-0.154172185430464	-0.145271523178808	-0.88794701986755	0.847417218543046	-1.81350993377483	-2.16026490066225				0.240529801324503	0.0154701986754967	-0.917721854304636	3.88291390728477	4.9435761589404	3.02437086092715				0.916026490066225	0.0994966887417219	0.309933774834437	-6.2082119205298	11.8119205298013	5.54251655629139				0.271788079470199	-0.430834437086093	-0.788238410596027	8.42039735099338	-11.8823841059603	19.685298013245			
58	1160	-0.248158940397351	0.162754966887417	-0.935523178807947	-0.246622516556291	-2.6646357615894	-1.46490066225166				0.960953642384106	-0.0322119205298013	0.429139072847682	-19.7260927152318	24.9478145695364	5.57403973509934				-0.186172185430464	-0.129271523178808	-0.90394701986755	-1.39258278145695	-2.09350993377483	-1.32026490066225				0.240529801324503	0.0314701986754967	-0.901721854304636	2.76291390728477	8.3035761589404	2.74437086092715				0.948026490066225	0.0834966887417219	0.309933774834437	-6.7682119205298	9.57192052980133	4.98251655629139				0.255788079470199	-0.398834437086093	-0.788238410596027	6.18039735099338	-8.52238410596027	13.805298013245			
59	1180	-0.264158940397351	0.178754966887417	-0.919523178807947	-3.60662251655629	-2.9446357615894	-0.0649006622516557				0.944953642384106	-0.0482119205298013	0.397139072847682	-14.9660927152318	15.1478145695364	7.81403973509934				-0.218172185430464	-0.0972715231788079	-0.88794701986755	-0.272582781456954	-0.973509933774833	-1.32026490066225				0.208529801324503	0.0314701986754967	-0.917721854304636	4.16291390728477	10.2635761589404	4.98437086092715				0.948026490066225	0.0674966887417219	0.277933774834437	-6.7682119205298	9.01192052980133	5.54251655629139				0.207788079470199	-0.398834437086093	-0.804238410596027	9.54039735099338	-4.32238410596027	7.36529801324503			
60	1200	-0.280158940397351	0.178754966887417	-0.935523178807947	-4.16662251655629	-0.984635761589404	0.215099337748344				0.976953642384106	-0.0642119205298013	0.381139072847682	-16.0860927152318	14.5878145695364	6.41403973509934				-0.266172185430464	-0.0652715231788079	-0.90394701986755	-3.07258278145695	-0.973509933774833	-1.04026490066225				0.240529801324503	-0.000529801324503289	-0.933721854304636	10.3229139072848	11.3835761589404	5.54437086092715				0.964026490066225	0.0514966887417219	0.309933774834437	-4.8082119205298	6.21192052980133	8.34251655629139				0.207788079470199	-0.398834437086093	-0.836238410596026	16.8203973509934	-0.402384105960265	-0.474701986754968			
61	1220	-0.280158940397351	0.178754966887417	-0.919523178807947	-3.60662251655629	0.415364238410596	-0.0649006622516557				0.992953642384106	0.0157880794701987	0.381139072847682	-13.8460927152318	14.0278145695364	2.49403973509934				-0.266172185430464	-0.0652715231788079	-0.88794701986755	-1.95258278145695	0.426490066225167	-0.20026490066225				0.256529801324503	-0.000529801324503289	-0.981721854304636	13.1229139072848	13.9035761589404	5.54437086092715				0.980026490066225	0.0514966887417219	0.293933774834437	-4.5282119205298	3.97192052980133	8.34251655629139				0.223788079470199	-0.446834437086093	-0.836238410596026	16.2603973509934	1.27761589403974	-1.87470198675497			
62	1240	-0.264158940397351	0.194754966887417	-0.919523178807947	-5.28662251655629	1.8153642384106	0.215099337748344				0.992953642384106	0.0957880794701987	0.413139072847682	-7.68609271523179	4.50781456953642	4.45403973509934				-0.266172185430464	-0.0492715231788079	-0.91994701986755	-0.272582781456954	1.82649006622517	0.0797350993377501				0.256529801324503	-0.0485298013245033	-1.04572185430464	19.2829139072848	15.3035761589404	5.82437086092715				1.01202649006623	0.0834966887417219	0.277933774834437	-3.9682119205298	4.25192052980133	7.50251655629139				0.223788079470199	-0.462834437086093	-0.852238410596026	12.3403973509934	2.67761589403974	-2.43470198675497			
63	1260	-0.264158940397351	0.226754966887417	-0.919523178807947	-5.00662251655629	2.3753642384106	2.17509933774834				0.976953642384106	0.0157880794701987	0.413139072847682	4.91390728476821	-1.37218543046358	10.6140397350993				-0.266172185430464	-0.0492715231788079	-0.88794701986755	5.88741721854305	1.82649006622517	-0.48026490066225				0.304529801324503	-0.0485298013245033	-1.02972185430464	10.8829139072848	15.0235761589404	4.70437086092715				1.01202649006623	0.115496688741722	0.245933774834437	-3.1282119205298	3.69192052980133	8.06251655629139				0.223788079470199	-0.462834437086093	-0.868238410596026	12.6203973509934	2.39761589403974	-2.71470198675497			
64	1280	-0.248158940397351	0.210754966887417	-0.951523178807947	-5.00662251655629	4.0553642384106	4.13509933774834				0.976953642384106	-0.000211920529801304	0.381139072847682	13.8739072847682	-7.53218543046358	10.8940397350993				-0.234172185430464	-0.0492715231788079	-0.90394701986755	3.64741721854305	4.06649006622517	-1.60026490066225				0.288529801324503	-0.0325298013245033	-1.02972185430464	4.44291390728477	10.8235761589404	1.34437086092715				0.980026490066225	0.0994966887417219	0.245933774834437	-0.0482119205298018	3.97192052980133	6.38251655629139				0.207788079470199	-0.446834437086093	-0.884238410596026	14.5803973509934	-0.402384105960265	-0.474701986754968			
65	1300	-0.248158940397351	0.226754966887417	-0.919523178807947	-6.96662251655629	1.8153642384106	5.53509933774834				0.960953642384106	-0.0162119205298013	0.349139072847682	14.7139072847682	-16.7721854304636	10.6140397350993				-0.234172185430464	-0.0492715231788079	-0.85594701986755	10.647417218543	3.78649006622517	-3.56026490066225				0.272529801324503	-0.0325298013245033	-0.997721854304636	-0.597086092715232	8.0235761589404	0.784370860927152				0.996026490066225	0.0834966887417219	0.229933774834437	-0.328211920529802	0.891920529801325	4.70251655629139				0.175788079470199	-0.494834437086093	-0.852238410596026	14.8603973509934	-6.28238410596027	3.16529801324503			
66	1320	-0.248158940397351	0.210754966887417	-0.935523178807947	-4.44662251655629	5.1753642384106	5.53509933774834				0.928953642384106	-0.0322119205298013	0.381139072847682	4.63390728476821	-10.8921854304636	8.37403973509934				-0.250172185430464	-0.0652715231788079	-0.91994701986755	9.24741721854305	4.90649006622517	-2.72026490066225				0.240529801324503	-0.0645298013245033	-0.981721854304636	2.20291390728477	8.3035761589404	-0.615629139072848				0.964026490066225	0.0834966887417219	0.213933774834437	-1.7282119205298	-1.06807947019868	4.14251655629139				0.207788079470199	-0.478834437086093	-0.852238410596026	-6.97960264900662	-7.40238410596027	13.245298013245			
67	1340	-0.232158940397351	0.226754966887417	-0.903523178807947	-3.88662251655629	4.8953642384106	5.25509933774834				0.896953642384106	-0.0322119205298013	0.413139072847682	-5.44609271523179	-6.13218543046358	7.81403973509934				-0.202172185430464	-0.113271523178808	-0.90394701986755	14.287417218543	4.62649006622517	-5.24026490066225				0.208529801324503	-0.0485298013245033	-0.965721854304636	-1.43708609271523	5.5035761589404	-0.0556291390728476				0.932026490066225	0.0674966887417219	0.213933774834437	0.791788079470198	0.331920529801325	5.26251655629139				0.143788079470199	-0.398834437086093	-0.868238410596026	-10.6196026490066	-4.60238410596027	21.085298013245			
68	1360	-0.200158940397351	0.178754966887417	-0.903523178807947	-5.56662251655629	4.3353642384106	4.41509933774834				0.912953642384106	-0.0162119205298013	0.349139072847682	0.713907284768212	-6.69218543046358	8.65403973509934				-0.138172185430464	-0.129271523178808	-0.88794701986755	12.887417218543	5.46649006622517	-8.04026490066225				0.208529801324503	-0.0645298013245033	-0.949721854304636	-2.83708609271523	4.3835761589404	-3.13562913907285				0.916026490066225	0.0354966887417219	0.181933774834437	1.0717880794702	0.331920529801325	3.86251655629139				0.159788079470199	-0.302834437086093	-0.852238410596026	0.300397350993377	-2.92238410596027	21.365298013245			
69	1380	-0.184158940397351	0.226754966887417	-0.935523178807947	-7.80662251655629	3.4953642384106	4.69509933774834				0.832953642384106	-0.0482119205298013	0.301139072847682	11.6339072847682	-1.93218543046358	12.0140397350993				-0.154172185430464	-0.0972715231788079	-0.88794701986755	14.847417218543	1.54649006622517	-8.88026490066225				0.176529801324503	-0.0645298013245033	-0.933721854304636	-3.11708609271523	2.4235761589404	-3.69562913907285				0.916026490066225	0.0354966887417219	0.165933774834437	2.1917880794702	1.17192052980133	3.86251655629139				0.111788079470199	-0.366834437086093	-0.852238410596026	19.9003973509934	-10.4823841059603	17.725298013245			
70	1400	-0.168158940397351	0.274754966887417	-0.887523178807947	-11.1666225165563	-1.2646357615894	6.37509933774834				0.800953642384106	-0.0642119205298013	0.301139072847682	7.99390728476821	11.2278145695364	10.0540397350993				-0.122172185430464	-0.113271523178808	-0.83994701986755	12.887417218543	-0.133509933774833	-7.48026490066225				0.0965298013245033	-0.0805298013245033	-0.917721854304636	-5.07708609271523	1.0235761589404	-5.65562913907285				0.900026490066225	0.0194966887417219	0.149933774834437	2.4717880794702	1.45192052980132	1.62251655629139				0.143788079470199	-0.398834437086093	-0.820238410596026	19.6203973509934	-16.3623841059603	21.085298013245			
71	1420	-0.152158940397351	0.194754966887417	-0.903523178807947	-6.40662251655629	-2.3846357615894	3.85509933774834				0.816953642384106	-0.0482119205298013	0.317139072847682	3.51390728476821	20.1878145695364	10.3340397350993				-0.170172185430464	-0.129271523178808	-0.85594701986755	8.96741721854305	-2.65350993377483	-5.24026490066225				0.0965298013245033	-0.0965298013245033	-0.917721854304636	-5.07708609271523	0.7435761589404	-4.53562913907285				0.884026490066225	0.0194966887417219	0.133933774834437	2.7517880794702	1.17192052980133	1.34251655629139				0.127788079470199	-0.414834437086093	-0.820238410596026	1.42039735099338	-18.6023841059603	30.045298013245			
72	1440	-0.200158940397351	0.146754966887417	-0.951523178807947	0.0333774834437086	-3.2246357615894	-0.344900662251656				0.864953642384106	-0.0482119205298013	0.317139072847682	1.55390728476821	30.2678145695364	12.0140397350993				-0.202172185430464	-0.161271523178808	-0.88794701986755	11.767417218543	-8.81350993377484	-5.24026490066225				0.0485298013245033	-0.0645298013245033	-0.901721854304636	-8.15708609271523	-0.3764238410596	-2.85562913907285				0.900026490066225	0.00349668874172187	0.133933774834437	2.1917880794702	3.69192052980133	1.90251655629139				0.0637880794701987	-0.366834437086093	-0.804238410596027	-1.09960264900662	-11.8823841059603	33.125298013245			
73	1460	-0.200158940397351	0.146754966887417	-0.935523178807947	-8.36662251655629	-4.6246357615894	-3.14490066225166				0.880953642384106	-0.112211920529801	0.413139072847682	5.75390728476821	43.7078145695364	12.8540397350993				-0.170172185430464	-0.161271523178808	-0.90394701986755	10.927417218543	-9.93350993377483	-4.68026490066225				0.0485298013245033	-0.0485298013245033	-0.917721854304636	-0.877086092715232	3.8235761589404	-0.895629139072848				0.964026490066225	0.0194966887417219	0.133933774834437	-1.7282119205298	-1.06807947019868	2.74251655629139				0.0477880794701987	-0.398834437086093	-0.804238410596027	5.62039735099338	-6.56238410596027	31.725298013245			
74	1480	-0.264158940397351	0.178754966887417	-0.919523178807947	-11.4466225165563	-2.9446357615894	-2.86490066225166				0.928953642384106	-0.0322119205298013	0.445139072847682	15.2739072847682	44.8278145695364	14.5340397350993				-0.218172185430464	-0.161271523178808	-0.88794701986755	8.68741721854305	-6.85350993377483	-3.28026490066225				0.128529801324503	-0.0805298013245033	-0.965721854304636	10.0429139072848	8.8635761589404	1.62437086092715				0.980026490066225	0.0194966887417219	0.133933774834437	-6.7682119205298	-13.6680794701987	2.74251655629139				0.191788079470199	-0.382834437086093	-0.884238410596026	14.5803973509934	-6.56238410596027	24.165298013245			
75	1500	-0.344158940397351	0.178754966887417	-0.871523178807947	-12.2866225165563	-2.9446357615894	-1.46490066225166				0.960953642384106	-0.0162119205298013	0.333139072847682	7.99390728476821	40.6278145695364	19.2940397350993				-0.314172185430464	-0.145271523178808	-0.90394701986755	6.16741721854305	-6.01350993377483	-1.88026490066225				0.160529801324503	-0.0645298013245033	-0.965721854304636	4.44291390728477	6.9035761589404	5.82437086092715				0.932026490066225	0.0514966887417219	0.181933774834437	-2.5682119205298	-7.78807947019868	4.14251655629139				0.175788079470199	-0.414834437086093	-0.836238410596026	11.5003973509934	-2.64238410596027	29.485298013245			
76	1520	-0.360158940397351	0.194754966887417	-0.903523178807947	-10.8866225165563	2.9353642384106	-0.344900662251656				0.992953642384106	-0.0482119205298013	0.429139072847682	-7.68609271523179	46.2278145695364	17.0540397350993				-0.314172185430464	-0.129271523178808	-0.90394701986755	11.207417218543	-2.37350993377483	-0.48026490066225				0.160529801324503	-0.0645298013245033	-0.965721854304636	1.36291390728477	4.6635761589404	8.90437086092715				0.884026490066225	0.0674966887417219	0.261933774834437	-0.888211920529802	0.611920529801325	4.98251655629139				0.0957880794701987	-0.462834437086093	-0.820238410596026	6.46039735099338	-2.36238410596027	35.925298013245			
77	1540	-0.328158940397351	0.242754966887417	-0.935523178807947	-10.6066225165563	3.4953642384106	1.05509933774834				1.00895364238411	-0.0962119205298013	0.573139072847682	-11.6060927152318	39.2278145695364	14.2540397350993				-0.282172185430464	-0.113271523178808	-0.90394701986755	9.52741721854305	0.986490066225167	1.75973509933775				0.144529801324503	-0.0805298013245033	-0.981721854304636	3.04291390728477	9.7035761589404	13.1043708609272				0.980026490066225	0.0194966887417219	0.261933774834437	-2.2882119205298	8.45192052980133	1.06251655629139				0.143788079470199	-0.462834437086093	-0.852238410596026	-2.21960264900662	2.95761589403974	36.485298013245			
78	1560	-0.328158940397351	0.274754966887417	-1.07952317880795	-17.3266225165563	10.7753642384106	3.01509933774834				1.00895364238411	-0.112211920529801	0.621139072847682	-8.24609271523179	36.4278145695364	12.5740397350993				-0.250172185430464	-0.113271523178808	-0.93594701986755	10.087417218543	2.94649006622517	4.83973509933775				0.192529801324503	-0.0805298013245033	-1.02972185430464	5.84291390728477	15.0235761589404	18.7043708609272				1.06002649006623	0.00349668874172187	0.293933774834437	-11.2482119205298	8.45192052980133	-1.73748344370861				0.143788079470199	-0.446834437086093	-0.868238410596026	-4.45960264900662	4.63761589403974	33.405298013245			
79	1580	-0.328158940397351	0.306754966887417	-1.11152317880795	-11.4466225165563	5.4553642384106	4.41509933774834				1.05695364238411	-0.0482119205298013	0.605139072847682	0.153907284768212	24.6678145695364	9.77403973509934				-0.266172185430464	-0.113271523178808	-0.93594701986755	17.087417218543	9.38649006622517	6.23973509933775				0.272529801324503	-0.0485298013245033	-1.06172185430464	12.0029139072848	22.3035761589404	25.9843708609272				1.12402649006623	0.0514966887417219	0.325933774834437	-31.6882119205298	-0.228079470198675	-2.57748344370861				0.0957880794701987	-0.494834437086093	-0.916238410596027	2.82039735099338	9.95761589403974	21.085298013245			
80	1600	-0.280158940397351	0.242754966887417	-0.775523178807947	-16.4866225165563	28.9753642384106	9.17509933774834				1.00895364238411	-0.0322119205298013	0.557139072847682	-0.406092715231788	17.6678145695364	8.37403973509934				-0.330172185430464	-0.0812715231788079	-0.96794701986755	20.727417218543	13.0264900662252	7.35973509933775				0.352529801324503	-0.0325298013245033	-1.06172185430464	19.5629139072848	22.0235761589404	28.2243708609272				1.06002649006623	0.0354966887417219	0.325933774834437	-9.8482119205298	-3.86807947019868	0.782516556291392				0.207788079470199	-0.494834437086093	-0.900238410596026	11.7803973509934	26.7576158940397	10.445298013245			
81	1620	-0.264158940397351	0.194754966887417	-0.951523178807947	-4.72662251655629	27.0153642384106	11.1350993377483				0.976953642384106	-0.0802119205298013	0.653139072847682	-10.4860927152318	20.4678145695364	5.85403973509934				-0.298172185430464	-0.0972715231788079	-0.93594701986755	24.647417218543	18.0664900662252	8.75973509933775				0.400529801324503	-0.0645298013245033	-1.10972185430464	19.2829139072848	16.1435761589404	26.8243708609272				1.02802649006623	0.0514966887417219	0.389933774834437	-14.3282119205298	7.33192052980133	-4.53748344370861				0.159788079470199	-0.606834437086093	-0.884238410596026	12.0603973509934	17.2376158940397	7.08529801324503			
82	1640	-0.328158940397351	0.290754966887417	-1.14352317880795	-5.28662251655629	28.9753642384106	13.3750993377483				1.02495364238411	-0.144211920529801	0.669139072847682	-8.80609271523179	9.26781456953642	4.17403973509934				-0.266172185430464	-0.177271523178808	-1.04794701986755	26.3274172185431	25.0664900662252	5.39973509933775				0.496529801324503	-0.0645298013245033	-1.10972185430464	10.3229139072848	11.3835761589404	20.1043708609272				1.04402649006623	0.0834966887417219	0.389933774834437	-17.1282119205298	9.57192052980133	-6.77748344370861				0.159788079470199	-0.622834437086093	-0.916238410596027	-6.41960264900662	11.9176158940397	13.245298013245			
83	1660	-0.232158940397351	0.274754966887417	-0.999523178807947	-1.36662251655629	31.2153642384106	13.9350993377483				1.02495364238411	-0.144211920529801	0.605139072847682	-0.966092715231788	3.10781456953642	4.73403973509934				-0.234172185430464	-0.225271523178808	-1.03194701986755	30.247417218543	37.6664900662252	0.0797350993377501				0.480529801324503	-0.0645298013245033	-1.09372185430464	-7.03708609271523	5.5035761589404	12.8243708609272				1.04402649006623	0.0994966887417219	0.325933774834437	-8.1682119205298	7.61192052980133	-6.49748344370861				0.175788079470199	-0.526834437086093	-0.852238410596026	-16.7796026490066	12.1976158940397	17.165298013245			
84	1680	-0.184158940397351	0.274754966887417	-0.935523178807947	-11.7266225165563	36.5353642384106	19.8150993377483				0.992953642384106	-0.0962119205298013	0.621139072847682	2.11390728476821	3.94781456953642	10.3340397350993				-0.266172185430464	-0.209271523178808	-0.98394701986755	28.0074172185431	42.9864900662252	-4.40026490066225				0.432529801324503	-0.000529801324503289	-1.04572185430464	-19.9170860927152	1.8635761589404	8.90437086092715				1.06002649006623	0.0834966887417219	0.373933774834437	-7.0482119205298	13.2119205298013	-9.57748344370861				0.191788079470199	-0.494834437086093	-0.884238410596026	-1.65960264900662	2.11761589403974	7.08529801324503			
85	1700	-0.264158940397351	0.194754966887417	-0.999523178807947	1.15337748344371	41.2953642384106	19.5350993377483				0.960953642384106	-0.128211920529801	0.653139072847682	2.67390728476821	-3.89218543046358	11.7340397350993				-0.234172185430464	-0.225271523178808	-0.85594701986755	7.00741721854305	42.1464900662252	-4.12026490066225				0.368529801324503	-0.000529801324503289	-1.02972185430464	-15.4370860927152	2.9835761589404	5.54437086092715				1.06002649006623	0.0674966887417219	0.373933774834437	-2.2882119205298	12.0919205298013	-10.1374834437086				0.175788079470199	-0.542834437086093	-0.916238410596027	10.6603973509934	-2.92238410596027	-7.47470198675497			
86	1720	-0.280158940397351	0.242754966887417	-0.967523178807947	3.67337748344371	44.9353642384106	18.6950993377483				0.976953642384106	-0.224211920529801	0.653139072847682	-6.28609271523179	-1.09218543046358	11.4540397350993				-0.266172185430464	-0.209271523178808	-0.95194701986755	7.00741721854305	42.1464900662252	-7.20026490066225				0.368529801324503	-0.0485298013245033	-1.01372185430464	-16.2770860927152	8.0235761589404	1.34437086092715				1.02802649006623	0.0674966887417219	0.405933774834437	2.7517880794702	16.8519205298013	-9.85748344370861				0.143788079470199	-0.526834437086093	-0.932238410596026	5.34039735099338	-0.402384105960265	-11.114701986755			
87	1740	-0.200158940397351	0.274754966887417	-0.951523178807947	4.23337748344371	49.1353642384106	18.4150993377483				1.05695364238411	-0.176211920529801	0.685139072847682	-4.60609271523179	3.66781456953642	7.53403973509934				-0.234172185430464	-0.193271523178808	-0.82394701986755	7.56741721854305	46.9064900662252	-9.16026490066225				0.368529801324503	-0.0165298013245033	-0.965721854304636	-21.8770860927152	16.1435761589404	-2.01562913907285				1.02802649006623	0.0674966887417219	0.421933774834437	1.3517880794702	25.2519205298013	-7.33748344370861				0.127788079470199	-0.510834437086093	-0.948238410596026	2.26039735099338	13.0376158940397	-11.954701986755			
88	1760	-0.184158940397351	0.322754966887417	-0.919523178807947	7.87337748344371	53.0553642384106	14.4950993377483				1.02495364238411	-0.176211920529801	0.557139072847682	14.7139072847682	-14.8121854304636	7.81403973509934				-0.186172185430464	-0.289271523178808	-0.93594701986755	-6.15258278145695	46.3464900662252	-9.72026490066225				0.384529801324503	0.0314701986754967	-0.917721854304636	-19.3570860927152	29.3035761589404	-2.01562913907285				1.04402649006623	0.0674966887417219	0.357933774834437	-4.2482119205298	29.1719205298013	-5.09748344370861				0.159788079470199	-0.494834437086093	-0.948238410596026	7.58039735099338	18.6376158940397	-16.714701986755			
89	1780	-0.184158940397351	0.306754966887417	-0.999523178807947	12.0733774834437	56.1353642384106	10.0150993377483				0.976953642384106	-0.144211920529801	0.445139072847682	16.1139072847682	-27.4121854304636	7.81403973509934				-0.186172185430464	-0.289271523178808	-0.88794701986755	-16.232582781457	51.9464900662252	-9.72026490066225				0.352529801324503	0.0314701986754967	-0.917721854304636	-7.31708609271523	38.5435761589404	-0.335629139072848				1.06002649006623	0.0674966887417219	0.325933774834437	3.8717880794702	27.4919205298013	-2.29748344370861				0.175788079470199	-0.526834437086093	-0.884238410596026	12.3403973509934	18.9176158940397	-19.234701986755			
90	1800	-0.104158940397351	0.338754966887417	-0.983523178807947	12.6333774834437	61.4553642384106	6.37509933774834				0.928953642384106	-0.0322119205298013	0.445139072847682	9.95390728476821	-18.1721854304636	4.73403973509934				-0.170172185430464	-0.209271523178808	-0.87194701986755	-33.312582781457	56.7064900662252	-6.64026490066225				0.336529801324503	0.0314701986754967	-0.949721854304636	1.92291390728477	44.9835761589404	-5.09562913907285				1.02802649006623	0.0674966887417219	0.293933774834437	12.8317880794702	25.8119205298013	0.502516556291392				0.191788079470199	-0.526834437086093	-0.884238410596026	8.70039735099338	19.4776158940397	-19.514701986755			
91	1820	-0.056158940397351	0.338754966887417	-0.871523178807947	21.3133774834437	67.6153642384106	3.01509933774834				0.960953642384106	-0.0322119205298013	0.461139072847682	18.6339072847682	-10.6121854304636	4.73403973509934				-0.122172185430464	-0.0492715231788079	-0.95194701986755	-26.312582781457	58.1064900662252	-6.08026490066225				0.352529801324503	0.0154701986754967	-0.949721854304636	11.7229139072848	53.9435761589404	-12.3756291390728				0.980026490066225	0.0514966887417219	0.325933774834437	23.1917880794702	22.7319205298013	4.14251655629139				0.175788079470199	-0.478834437086093	-0.868238410596026	10.3803973509934	25.6376158940397	-20.074701986755			
92	1840	0.007841059602649	0.258754966887417	-0.983523178807947	27.7533774834437	62.5753642384106	2.17509933774834				1.00895364238411	-0.176211920529801	0.477139072847682	18.0739072847682	-6.13218543046358	8.09403973509934				-0.0581721854304636	-0.0652715231788079	-0.98394701986755	-9.23258278145695	58.9464900662252	-6.64026490066225				0.368529801324503	-0.0485298013245033	-0.981721854304636	20.9629139072848	54.7835761589404	-17.6956291390729				0.996026490066225	0.0674966887417219	0.373933774834437	15.6317880794702	23.2919205298013	1.06251655629139				0.159788079470199	-0.446834437086093	-0.836238410596026	14.3003973509934	28.9976158940397	-23.154701986755			
93	1860	0.007841059602649	0.194754966887417	-1.03152317880795	15.9933774834437	67.8953642384106	1.89509933774834				1.08895364238411	-0.112211920529801	0.557139072847682	14.4339072847682	-5.85218543046358	6.13403973509934				0.00582781456953642	-0.145271523178808	-0.95194701986755	-2.23258278145695	62.0264900662252	-9.44026490066225				0.416529801324503	-0.0645298013245033	-1.01372185430464	17.6029139072848	54.7835761589404	-18.8156291390729				1.10802649006623	0.115496688741722	0.357933774834437	3.8717880794702	20.4919205298013	-1.17748344370861				0.159788079470199	-0.446834437086093	-0.820238410596026	24.6603973509934	30.6776158940397	-32.114701986755			
94	1880	0.039841059602649	0.306754966887417	-1.09552317880795	11.5133774834437	77.1353642384106	1.05509933774834				1.10495364238411	-0.0642119205298013	0.557139072847682	23.6739072847682	-22.3721854304636	10.3340397350993				0.0218278145695364	-0.177271523178808	-0.99994701986755	5.04741721854305	66.5064900662252	-13.3602649006623				0.400529801324503	-0.0485298013245033	-1.09372185430464	15.0829139072848	58.4235761589404	-17.4156291390728				1.15602649006623	0.0674966887417219	0.293933774834437	3.5917880794702	13.4919205298013	-1.73748344370861				0.207788079470199	-0.462834437086093	-0.884238410596026	25.5003973509934	41.8776158940397	-41.354701986755			
95	1900	0.135841059602649	0.258754966887417	-0.999523178807947	29.9933774834437	78.2553642384106	3.29509933774834				1.05695364238411	-0.0482119205298013	0.493139072847682	22.5539072847682	-3.61218543046358	8.93403973509934				0.0378278145695364	-0.177271523178808	-0.99994701986755	4.76741721854305	72.6664900662252	-12.8002649006623				0.416529801324503	-0.0325298013245033	-1.10972185430464	21.5229139072848	60.1035761589404	-16.5756291390728				1.09202649006623	0.0994966887417219	0.357933774834437	9.4717880794702	12.9319205298013	-0.617483443708608				0.287788079470199	-0.478834437086093	-0.900238410596026	28.3003973509934	63.1576158940397	-43.594701986755			
96	1920	0.119841059602649	0.146754966887417	-1.06352317880795	33.6333774834437	80.7753642384106	6.93509933774835				1.10495364238411	-0.112211920529801	0.637139072847682	11.6339072847682	11.2278145695364	11.1740397350993				0.117827814569536	-0.129271523178808	-0.93594701986755	1.96741721854305	78.8264900662252	-11.1202649006623				0.496529801324503	-0.0645298013245033	-1.14172185430464	22.0829139072848	60.9435761589404	-18.8156291390729				1.06002649006623	0.163496688741722	0.437933774834437	19.2717880794702	22.7319205298013	-2.57748344370861				0.335788079470199	-0.558834437086093	-0.916238410596027	40.3403973509934	61.1976158940397	-42.754701986755			
97	1940	0.183841059602649	0.178754966887417	-1.09552317880795	26.3533774834437	81.3353642384106	8.05509933774835				1.10495364238411	-0.160211920529801	0.701139072847682	6.31390728476821	-5.01218543046358	10.3340397350993				0.197827814569536	-0.0972715231788079	-0.98394701986755	8.40741721854305	81.9064900662252	-13.3602649006623				0.576529801324503	-0.0645298013245033	-1.10972185430464	16.2029139072848	55.0635761589404	-20.7756291390729				1.15602649006623	0.179496688741722	0.405933774834437	17.8717880794702	25.2519205298013	-5.65748344370861				0.415788079470199	-0.670834437086093	-0.980238410596026	19.3403973509934	51.1176158940397	-36.034701986755			
98	1960	0.247841059602649	0.194754966887417	-1.06352317880795	22.9933774834437	88.0553642384106	7.49509933774834				1.12095364238411	-0.144211920529801	0.589139072847682	13.0339072847682	-0.812185430463576	12.5740397350993				0.197827814569536	-0.161271523178808	-0.98394701986755	12.887417218543	85.8264900662252	-17.0002649006623				0	0	0	0	0	0				1.20402649006623	0.115496688741722	0.405933774834437	25.1517880794702	18.8119205298013	-1.17748344370861				0	0	0	0	0	0			
99	1980	0.327841059602649	0.146754966887417	-1.01552317880795	25.5133774834437	96.1753642384106	9.17509933774834				1.16895364238411	-0.112211920529801	0.509139072847682	15.2739072847682	1.14781456953642	15.9340397350993				0.229827814569536	-0.113271523178808	-0.98394701986755	13.727417218543	90.5864900662252	-23.1602649006623				0.624529801324503	0.0314701986754967	-0.965721854304636	3.04291390728477	50.5835761589404	-15.1756291390728				1.20402649006623	0.0674966887417219	0.469933774834437	20.3917880794702	20.4919205298013	0.222516556291392				0.527788079470199	-0.750834437086093	-0.964238410596026	-12.2996026490066	50.8376158940397	-38.274701986755			
100	2000	0.279841059602649	0.162754966887417	-1.01552317880795	22.9933774834437	102.895364238411	11.1350993377483				1.10495364238411	-0.0802119205298013	0.525139072847682	21.7139072847682	-15.0921854304636	15.3740397350993				0.229827814569536	-0.0332715231788079	-0.98394701986755	21.287417218543	96.1864900662252	-28.4802649006623				0.608529801324503	-0.0325298013245033	-0.981721854304636	13.6829139072848	52.5435761589404	-14.0556291390728				1.14002649006623	0.0994966887417219	0.517933774834437	13.6717880794702	13.7719205298013	1.62251655629139				0.575788079470199	-0.638834437086093	-0.916238410596027	-12.8596026490066	45.5176158940397	-43.314701986755			
101	2020	0.295841059602649	0.178754966887417	-1.04752317880795	15.7133774834437	103.175364238411	11.9750993377483				1.08895364238411	-0.112211920529801	0.669139072847682	18.3539072847682	5.62781456953642	13.9740397350993				0.261827814569536	-0.0492715231788079	-0.93594701986755	31.6474172185431	100.946490066225	-32.1202649006623				0.592529801324503	-0.000529801324503289	-0.997721854304636	29.0829139072848	54.7835761589404	-12.6556291390728				1.09202649006623	0.115496688741722	0.453933774834437	16.7517880794702	13.7719205298013	4.14251655629139				0.543788079470199	-0.494834437086093	-0.868238410596026	-26.2996026490066	41.8776158940397	-33.514701986755			
102	2040	0.311841059602649	0.274754966887417	-0.951523178807947	20.4733774834437	105.135364238411	7.21509933774835				1.21695364238411	-0.176211920529801	0.717139072847682	18.6339072847682	11.2278145695364	6.97403973509934				0.325827814569536	-0.161271523178808	-0.88794701986755	36.967417218543	103.466490066225	-34.0802649006623				0.592529801324503	-0.0805298013245033	-0.997721854304636	33.2829139072848	61.7835761589404	-12.6556291390728				1.07602649006623	0.115496688741722	0.421933774834437	21.5117880794702	21.3319205298013	3.30251655629139				0.479788079470199	-0.494834437086093	-0.836238410596026	-30.2196026490066	41.0376158940397	-32.954701986755			
103	2060	0.343841059602649	0.242754966887417	-0.887523178807947	32.5133774834437	111.855364238411	2.73509933774834				1.04095364238411	-0.160211920529801	0.541139072847682	22.5539072847682	-23.7721854304636	12.0140397350993				0.373827814569536	-0.273271523178808	-0.80794701986755	27.727417218543	108.226490066225	-33.8002649006623				0.656529801324503	-0.112529801324503	-0.981721854304636	34.6829139072848	60.9435761589404	-14.0556291390728				1.09202649006623	0.131496688741722	0.485933774834437	2.1917880794702	5.65192052980133	0.502516556291392				0.495788079470199	-0.494834437086093	-0.964238410596026	-1.09960264900662	51.9576158940397	-46.394701986755			
104	2080	0.423841059602649	0.130754966887417	-0.855523178807947	33.6333774834437	116.615364238411	-1.74490066225166				0.944953642384106	-0.0482119205298013	0.397139072847682	12.7539072847682	-12.2921854304636	10.6140397350993				0.357827814569536	-0.369271523178808	-0.79194701986755	19.8874172185431	115.506490066225	-27.6402649006623				0.736529801324503	-0.0965298013245033	-0.933721854304636	28.2429139072848	60.1035761589404	-14.0556291390728				1.02802649006623	0.0834966887417219	0.501933774834437	2.4717880794702	8.45192052980133	1.34251655629139				0.591788079470199	-0.462834437086093	-0.932238410596026	16.5403973509934	56.1576158940397	-55.634701986755			
105	2100	0.455841059602649	0.0987549668874172	-0.839523178807947	17.1133774834437	114.655364238411	-1.74490066225166				1.10495364238411	0.0157880794701987	0.381139072847682	33.1939072847682	3.38781456953642	8.37403973509934				0.357827814569536	-0.353271523178808	-0.75994701986755	15.127417218543	122.226490066225	-20.3602649006623				0.752529801324503	-0.112529801324503	-0.885721854304636	22.3629139072848	60.9435761589404	-14.3356291390729				1.01202649006623	0.147496688741722	0.389933774834437	15.9117880794702	11.5319205298013	1.62251655629139				0.543788079470199	-0.542834437086093	-0.916238410596027	20.7403973509934	36.8376158940397	-43.034701986755			
106	2120	0.455841059602649	0.0507549668874172	-0.871523178807947	9.83337748344371	113.815364238411	-0.0649006622516557				1.00895364238411	-0.112211920529801	0.413139072847682	45.7939072847682	-9.77218543046358	10.8940397350993				0.421827814569536	-0.257271523178808	-0.72794701986755	10.927417218543	126.146490066225	-15.0402649006623				0.768529801324503	-0.0645298013245033	-0.773721854304636	17.6029139072848	57.0235761589404	-13.4956291390728				1.01202649006623	0.163496688741722	0.373933774834437	23.4717880794702	9.57192052980133	2.74251655629139				0.479788079470199	-0.606834437086093	-0.868238410596026	-0.259602649006623	24.2376158940397	-32.674701986755			
107	2140	0	0	0	0	0	0				0.896953642384106	-0.144211920529801	0.381139072847682	28.1539072847682	-18.7321854304636	5.01403973509934				0.453827814569536	-0.177271523178808	-0.71194701986755	7.00741721854305	130.906490066225	-9.72026490066225				0.768529801324503	-0.0485298013245033	-0.757721854304636	24.8829139072848	48.9035761589404	-9.01562913907285				0.964026490066225	0.131496688741722	0.437933774834437	12.8317880794702	3.41192052980132	3.58251655629139				0.479788079470199	-0.494834437086093	-0.820238410596026	-22.6596026490066	18.0776158940397	-22.594701986755			
108	2160	0.487841059602649	-0.0292450331125828	-0.743523178807947	22.9933774834437	124.455364238411	-3.14490066225166				0.864953642384106	-0.112211920529801	0.397139072847682	21.7139072847682	-8.93218543046358	2.77403973509934				0.517827814569536	-0.113271523178808	-0.66394701986755	9.24741721854305	134.266490066225	-9.72026490066225				0.736529801324503	-0.0805298013245033	-0.709721854304636	29.6429139072848	41.0635761589404	-10.4156291390728				0.916026490066225	0.0834966887417219	0.373933774834437	23.4717880794702	-3.58807947019868	8.06251655629139				0.415788079470199	-0.334834437086093	-0.788238410596027	-15.6596026490066	6.59761589403974	-15.594701986755			
109	2180	0.503841059602649	0.0187549668874172	-0.727523178807947	7.87337748344371	126.695364238411	-0.344900662251656				0.912953642384106	-0.160211920529801	0.397139072847682	22.2739072847682	-5.85218543046358	5.29403973509934				0.549827814569536	-0.113271523178808	-0.59994701986755	6.44741721854305	137.346490066225	-13.9202649006623				0.672529801324503	-0.0325298013245033	-0.677721854304636	24.3229139072848	36.0235761589404	-11.8156291390728				0.868026490066225	0.0834966887417219	0.373933774834437	29.0717880794702	-4.70807947019868	8.34251655629139				0.351788079470199	-0.334834437086093	-0.724238410596026	5.06039735099338	-1.24238410596026	-21.474701986755			
110	2200	0.519841059602649	0.0507549668874172	-0.695523178807947	2.83337748344371	129.495364238411	1.33509933774834				0.880953642384106	-0.160211920529801	0.301139072847682	14.9939072847682	-7.25218543046358	6.41403973509934				0.629827814569536	-0.0652715231788079	-0.59994701986755	6.44741721854305	139.586490066225	-17.2802649006623				0.656529801324503	-0.0965298013245033	-0.629721854304636	27.1229139072848	29.8635761589404	-13.7756291390728				0.852026490066225	0.0834966887417219	0.405933774834437	38.0317880794702	-12.8280794701987	6.10251655629139				0.367788079470199	-0.398834437086093	-0.708238410596026	23.8203973509934	3.23761589403974	-29.594701986755			
111	2220	0.583841059602649	0.0347549668874172	-0.663523178807947	2.27337748344371	133.135364238411	-0.624900662251656				0.768953642384106	0.0157880794701987	0.365139072847682	17.2339072847682	-15.3721854304636	2.49403973509934				0.629827814569536	-0.0492715231788079	-0.59994701986755	21.567417218543	138.746490066225	-20.0802649006623				0.672529801324503	-0.128529801324503	-0.517721854304636	26.0029139072848	33.2235761589404	-17.6956291390729				0.836026490066225	0.0194966887417219	0.357933774834437	40.2717880794702	-12.5480794701987	6.66251655629139				0.447788079470199	-0.382834437086093	-0.628238410596026	17.1003973509934	-2.08238410596027	-31.834701986755			
112	2240	0.647841059602649	0.0667549668874172	-0.615523178807947	-1.92662251655629	137.615364238411	-2.58490066225166				0.752953642384106	-0.0482119205298013	0.429139072847682	33.4739072847682	-20.4121854304636	1.93403973509934				0.581827814569536	-0.161271523178808	-0.58394701986755	28.567417218543	140.146490066225	-19.8002649006623				0.688529801324503	-0.0965298013245033	-0.549721854304636	31.6029139072848	32.6635761589404	-17.1356291390729				0.788026490066225	0.0514966887417219	0.357933774834437	40.5517880794702	-18.4280794701987	8.34251655629139				0.463788079470199	-0.398834437086093	-0.612238410596026	-10.3396026490066	4.63761589403974	-28.474701986755			
113	2260	0.663841059602649	0.0987549668874172	-0.519523178807947	-2.20662251655629	139.015364238411	1.05509933774834				0.784953642384106	-0.112211920529801	0.317139072847682	29.2739072847682	-12.0121854304636	-0.30596026490066				0.693827814569536	-0.225271523178808	-0.51994701986755	36.967417218543	141.546490066225	-18.4002649006623				0.656529801324503	-0.160529801324503	-0.485721854304636	33.5629139072848	32.6635761589404	-12.9356291390728				0.740026490066225	0.115496688741722	0.373933774834437	28.5117880794702	-30.1880794701987	10.3025165562914				0.431788079470199	-0.414834437086093	-0.596238410596026	-6.69960264900662	8.83761589403974	-32.394701986755			
114	2280	0.695841059602649	-0.0292450331125828	-0.487523178807947	-5.28662251655629	143.215364238411	4.97509933774835				0.752953642384106	-0.0322119205298013	0.365139072847682	32.0739072847682	-27.6921854304636	-4.78596026490066				0.757827814569536	-0.193271523178808	-0.40794701986755	26.607417218543	147.426490066225	-18.9602649006623				0.544529801324503	-0.160529801324503	-0.485721854304636	38.8829139072848	33.2235761589404	-14.8956291390728				0.740026490066225	0.0194966887417219	0.325933774834437	32.7117880794702	-35.2280794701987	12.8225165562914				0.399788079470199	-0.366834437086093	-0.548238410596027	11.7803973509934	-2.92238410596027	-37.434701986755			
115	2300	0.695841059602649	0.0347549668874172	-0.455523178807947	-7.80662251655629	139.295364238411	7.21509933774835				0.720953642384106	-0.0642119205298013	0.429139072847682	38.7939072847682	-36.0921854304636	-5.34596026490066				0.773827814569536	-0.209271523178808	-0.34394701986755	12.047417218543	147.986490066225	-17.5602649006623				0.560529801324503	-0.0165298013245033	-0.437721854304636	51.2029139072848	34.3435761589404	-7.61562913907285				0.692026490066225	0.0514966887417219	0.341933774834437	32.1517880794702	-33.5480794701987	10.5825165562914				0.351788079470199	-0.350834437086093	-0.532238410596027	-0.539602649006623	-2.08238410596027	-39.954701986755			
116	2320	0	0	0	0	0	0				0.672953642384106	-0.0482119205298013	0.397139072847682	23.1139072847682	-40.5721854304636	-5.90596026490066				0.805827814569536	-0.209271523178808	-0.29594701986755	0.847417218543046	144.906490066225	-15.8802649006623				0.512529801324503	-0.176529801324503	-0.501721854304636	56.8029139072848	20.0635761589404	-4.81562913907285				0.628026490066225	0.115496688741722	0.325933774834437	30.7517880794702	-34.1080794701987	6.94251655629139				0.351788079470199	-0.318834437086093	-0.532238410596027	10.9403973509934	2.67761589403974	-37.434701986755			
117	2340	0.807841059602649	0.0827549668874172	-0.375523178807947	17.3933774834437	166.455364238411	12.8150993377483				0.560953642384106	-0.160211920529801	0.349139072847682	12.4739072847682	-58.4921854304636	-7.30596026490066				0.885827814569536	-0.193271523178808	-0.27994701986755	-0.272582781456954	137.066490066225	-17.8402649006623				0.512529801324503	-0.240529801324503	-0.405721854304636	38.0429139072848	18.1035761589404	-5.65562913907285				0.676026490066225	0.0194966887417219	0.261933774834437	12.8317880794702	-34.9480794701987	4.70251655629139				0.415788079470199	-0.350834437086093	-0.388238410596026	16.2603973509934	1.55761589403974	-33.514701986755			
118	2360	0.903841059602649	0.0507549668874172	-0.407523178807947	23.2733774834437	160.295364238411	17.0150993377483				0.592953642384106	-0.128211920529801	0.349139072847682	20.3139072847682	-48.4121854304636	-6.46596026490066				0.853827814569536	-0.161271523178808	-0.21594701986755	-3.35258278145695	134.546490066225	-20.6402649006623				0.368529801324503	-0.160529801324503	-0.373721854304636	38.6029139072848	9.7035761589404	-0.335629139072848				0.644026490066225	0.00349668874172187	0.277933774834437	11.1517880794702	-32.1480794701987	3.02251655629139				0.399788079470199	-0.414834437086093	-0.372238410596026	-1.65960264900662	-0.682384105960265	-27.634701986755			
119	2380	0.823841059602649	0.0667549668874172	-0.279523178807947	14.5933774834437	152.175364238411	19.5350993377483				0.592953642384106	-0.0482119205298013	0.365139072847682	22.5539072847682	-43.6521854304636	-7.30596026490066				0.837827814569536	-0.0972715231788079	-0.18394701986755	-6.71258278145695	128.946490066225	-20.0802649006623				0.256529801324503	-0.224529801324503	-0.437721854304636	37.7629139072848	5.2235761589404	-0.0556291390728476				0.548026490066225	0.00349668874172187	0.277933774834437	20.9517880794702	-31.8680794701987	2.46251655629139				0.415788079470199	-0.414834437086093	-0.388238410596026	-17.6196026490066	4.07761589403974	-27.354701986755			
120	2400	0.711841059602649	0.0507549668874172	-0.199523178807947	18.7933774834437	158.055364238411	18.9750993377483				0.576953642384106	-0.0482119205298013	0.381139072847682	7.71390728476821	-28.2521854304636	-14.8659602649007				0.869827814569536	-0.225271523178808	-0.13594701986755	1.96741721854305	116.906490066225	-15.8802649006623				0.304529801324503	-0.240529801324503	-0.549721854304636	34.1229139072848	20.6235761589404	-10.6956291390728				0.580026490066225	-0.0605033112582781	0.245933774834437	17.0317880794702	-20.6680794701987	2.18251655629139				0.479788079470199	-0.318834437086093	-0.372238410596026	-29.9396026490066	21.9976158940397	-40.794701986755			
121	2420	0.727841059602649	0.0987549668874172	-0.119523178807947	14.8733774834437	152.455364238411	12.8150993377483				0.608953642384106	-0.224211920529801	0.461139072847682	3.79390728476821	-30.2121854304636	-22.9859602649007				0.773827814569536	-0.273271523178808	-0.15194701986755	-18.472582781457	98.1464900662252	-12.5202649006623				0.448529801324503	0.0154701986754967	-0.533721854304636	40.8429139072848	46.9435761589404	-10.9756291390728				0.596026490066225	0.00349668874172187	0.261933774834437	7.7917880794702	-14.5080794701987	-2.57748344370861				0.447788079470199	-0.190834437086093	-0.372238410596026	-22.9396026490066	19.1976158940397	-47.514701986755			
122	2440	0.711841059602649	0.226754966887417	-0.103523178807947	16.5533774834437	147.695364238411	6.37509933774834				0.448953642384106	0.0477880794701987	0.333139072847682	9.95390728476821	-45.0521854304636	-22.4259602649007				0.757827814569536	-0.289271523178808	-0.16794701986755	-31.072582781457	95.9064900662252	-6.92026490066225				0.512529801324503	-0.0805298013245033	-0.373721854304636	49.5229139072848	46.3835761589404	-9.85562913907285				0.484026490066225	0.131496688741722	0.277933774834437	3.8717880794702	-16.4680794701987	-5.37748344370861				0.271788079470199	-0.206834437086093	-0.388238410596026	-6.13960264900662	3.79761589403974	-43.314701986755			
123	2460	0.839841059602649	0.210754966887417	-0.039523178807947	20.7533774834437	143.215364238411	-0.624900662251656				0.512953642384106	0.0637880794701987	0.237139072847682	2.95390728476821	-38.6121854304636	-12.6259602649007				0.757827814569536	-0.177271523178808	-0.0879470198675496	-54.592582781457	90.3064900662252	-3.00026490066225				0.560529801324503	-0.128529801324503	-0.341721854304636	35.8029139072848	21.7435761589404	-0.895629139072848				0.452026490066225	0.211496688741722	0.245933774834437	-0.0482119205298018	-7.22807947019868	-7.61748344370861				0.319788079470199	-0.190834437086093	-0.356238410596026	3.10039735099338	9.95761589403974	-39.394701986755			
124	2480	0.951841059602649	0.178754966887417	-0.103523178807947	26.3533774834437	107.655364238411	-8.46490066225166				0.560953642384106	-0.144211920529801	0.429139072847682	-8.80609271523179	-9.49218543046358	-14.5859602649007				0.789827814569536	-0.0972715231788079	-0.0399470198675496	-46.192582781457	70.9864900662252	-1.04026490066225				0.480529801324503	-0.0965298013245033	-0.309721854304636	7.24291390728477	-13.2564238410596	5.54437086092715				0.580026490066225	0.0834966887417219	0.149933774834437	4.9917880794702	-5.82807947019868	-2.57748344370861				0.511788079470199	-0.238834437086093	-0.324238410596026	-10.0596026490066	27.0376158940397	-37.994701986755			
125	2500	0.807841059602649	0.0507549668874172	-0.055523178807947	31.9533774834437	85.5353642384106	-0.904900662251656				0.464953642384106	0.0477880794701987	0.397139072847682	-0.406092715231788	-10.6121854304636	-17.9459602649007				0.869827814569536	-0.0652715231788079	0.00805298013245037	-17.632582781457	57.2664900662252	-0.48026490066225				0.416529801324503	-0.0965298013245033	-0.389721854304636	-7.59708609271523	-12.4164238410596	3.02437086092715				0.612026490066225	0.0194966887417219	0.229933774834437	6.6717880794702	-15.3480794701987	-0.337483443708608				0.527788079470199	-0.334834437086093	-0.404238410596026	-47.0196026490066	16.6776158940397	-39.394701986755			
126	2520	0.855841059602649	-0.141245033112583	0.040476821192053	32.5133774834437	76.8553642384106	-0.904900662251656				0.736953642384106	0.111788079470199	0.477139072847682	7.43390728476821	3.94781456953642	-11.2259602649007				0.917827814569536	-0.0652715231788079	-0.0239470198675496	12.327417218543	32.3464900662252	2.31973509933775				0.544529801324503	-0.0485298013245033	-0.501721854304636	11.7229139072848	14.4635761589404	1.06437086092715				0.580026490066225	0.163496688741722	0.325933774834437	-1.1682119205298	-14.5080794701987	-3.13748344370861				0.415788079470199	-0.270834437086093	-0.468238410596026	-46.1796026490066	-1.52238410596026	-25.674701986755			
127	2540	0.935841059602649	-0.253245033112583	-0.023523178807947	17.1133774834437	69.0153642384106	-4.54490066225166				0.752953642384106	0.0637880794701987	0.397139072847682	8.55390728476821	-11.4521854304636	-10.3859602649007				0.933827814569536	-0.0492715231788079	-0.0719470198675496	-1.39258278145695	25.0664900662252	4.83973509933775				0.624529801324503	-0.112529801324503	-0.437721854304636	27.1229139072848	27.0635761589404	-3.41562913907285				0.644026490066225	0.227496688741722	0.229933774834437	-3.1282119205298	-1.90807947019868	-7.05748344370861				0.431788079470199	-0.0948344370860927	-0.404238410596026	-26.0196026490066	17.2376158940397	-24.554701986755			
128	2560	0.903841059602649	-0.125245033112583	-0.055523178807947	-6.40662251655629	66.4953642384106	5.25509933774834				0.736953642384106	-0.0322119205298013	0.461139072847682	8.83390728476821	7.58781456953643	-6.74596026490066				0.885827814569536	-0.0652715231788079	-0.11994701986755	-6.99258278145695	25.3464900662252	2.87973509933775				0.656529801324503	-0.128529801324503	-0.517721854304636	37.4829139072848	23.9835761589404	-0.895629139072848				0.740026490066225	0.131496688741722	0.245933774834437	13.9517880794702	13.2119205298013	-11.2574834437086				0.591788079470199	-0.222834437086093	-0.564238410596026	-45.8996026490066	36.5576158940397	-36.594701986755			
129	2580	1.04784105960265	-0.0132450331125828	0.152476821192053	-20.1266225165563	60.0553642384106	8.61509933774835				0.784953642384106	-0.0162119205298013	0.589139072847682	-2.36609271523179	12.0678145695364	-9.26596026490066				0.901827814569536	-0.0492715231788079	-0.0399470198675496	-2.79258278145695	30.3864900662252	-1.32026490066225				0.752529801324503	-0.144529801324503	-0.613721854304636	14.8029139072848	21.7435761589404	-1.73562913907285				0.756026490066225	0.179496688741722	0.341933774834437	1.9117880794702	19.0919205298013	-14.3374834437086				0.751788079470199	-0.254834437086093	-0.708238410596026	-33.5796026490066	12.1976158940397	-29.314701986755			
130	2600	1.01584105960265	0.0507549668874172	0.152476821192053	-12.2866225165563	41.2953642384106	4.13509933774834				0.800953642384106	0.0477880794701987	0.429139072847682	12.4739072847682	12.0678145695364	-7.30596026490066				1.01382781456954	-0.00127152317880793	0.0240529801324504	8.68741721854305	25.6264900662252	-2.44026490066225				0.800529801324503	-0.208529801324503	-0.581721854304636	10.3229139072848	25.1035761589404	-11.2556291390728				0.772026490066225	0.195496688741722	0.373933774834437	-2.2882119205298	22.4519205298013	-14.6174834437086				0.767788079470199	-0.222834437086093	-0.580238410596026	0.580397350993377	-7.68238410596027	-18.674701986755			
131	2620	0.999841059602649	0.0507549668874172	0.136476821192053	3.39337748344371	25.6153642384106	2.73509933774834				0.816953642384106	0.0957880794701987	0.333139072847682	4.63390728476821	28.0278145695364	-2.82596026490066				0.981827814569536	-0.113271523178808	0.0880529801324504	24.647417218543	11.6264900662252	-4.68026490066225				0.864529801324503	-0.0485298013245033	-0.469721854304636	-2.83708609271523	14.1835761589404	-12.9356291390728				0.852026490066225	0.291496688741722	0.293933774834437	-8.7282119205298	25.2519205298013	-9.57748344370861				0.687788079470199	-0.398834437086093	-0.756238410596026	-13.4196026490066	4.07761589403974	-26.234701986755			
132	2640	0.951841059602649	0.00275496688741723	0.152476821192053	8.99337748344371	18.3353642384106	2.17509933774834				1.02495364238411	0.0957880794701987	0.589139072847682	14.9939072847682	31.9478145695364	2.49403973509934				1.01382781456954	-0.177271523178808	0.00805298013245037	33.327417218543	4.62649006622517	-4.12026490066225				0.976529801324503	-0.000529801324503289	-0.389721854304636	-27.4770860927152	-12.9764238410596	-5.37562913907285				0.868026490066225	0.275496688741722	0.389933774834437	6.9517880794702	30.8519205298013	-7.89748344370861				0.767788079470199	-0.270834437086093	-0.644238410596026	-12.2996026490066	2.39761589403974	-12.794701986755			
133	2660	0.951841059602649	0.00275496688741723	0.152476821192053	19.9133774834437	15.8153642384106	1.89509933774834				0.976953642384106	-0.0962119205298013	0.557139072847682	31.7939072847682	6.74781456953642	-2.54596026490066				1.04582781456954	-0.161271523178808	-0.0239470198675496	36.967417218543	12.4664900662252	0.35973509933775				0.944529801324503	-0.112529801324503	-0.469721854304636	-8.99708609271523	-0.3764238410596	-7.89562913907285				0.948026490066225	0.163496688741722	0.597933774834437	24.3117880794702	30.0119205298013	-7.33748344370861				0.655788079470199	-0.126834437086093	-0.644238410596026	-15.3796026490066	-20.0023841059603	6.24529801324503			
134	2680	1.04784105960265	-0.0612450331125828	0.056476821192053	18.5133774834437	11.0553642384106	4.97509933774835				0.880953642384106	0.0477880794701987	0.509139072847682	10.7939072847682	18.7878145695364	-3.94596026490066				1.02982781456954	-0.241271523178808	0.00805298013245037	24.647417218543	16.9464900662252	2.59973509933775				0.912529801324503	-0.0325298013245033	-0.581721854304636	17.8829139072848	17.2635761589404	-15.1756291390728				0.932026490066225	0.259496688741722	0.517933774834437	6.3917880794702	12.3719205298013	-5.65748344370861				0.671788079470199	-0.318834437086093	-0.708238410596026	0.300397350993377	4.35761589403974	0.0852980132450323			
135	2700	1.09584105960265	-0.0612450331125828	0.040476821192053	3.67337748344371	11.8953642384106	5.81509933774834				1.10495364238411	0.0157880794701987	0.477139072847682	3.23390728476821	12.3478145695364	8.09403973509934				1.10982781456954	-0.273271523178808	0.0400529801324504	5.04741721854305	13.0264900662252	2.87973509933775				1.0085298013245	-0.0165298013245033	-0.453721854304636	10.0429139072848	5.7835761589404	-16.5756291390728				0.884026490066225	0.323496688741722	0.453933774834437	6.3917880794702	4.25192052980133	-3.69748344370861				0.847788079470199	-0.238834437086093	-0.628238410596026	-3.33960264900662	14.7176158940397	-10.554701986755			
136	2720	1.12784105960265	0.0187549668874172	0.056476821192053	0.593377483443709	7.6953642384106	2.45509933774835				0.960953642384106	-0.128211920529801	0.509139072847682	3.79390728476821	2.54781456953642	3.89403973509934				1.04582781456954	-0.241271523178808	0.0400529801324504	7.84741721854305	-0.413509933774833	0.35973509933775				0.912529801324503	-0.112529801324503	-0.485721854304636	1.92291390728477	6.0635761589404	-22.1756291390729				0.980026490066225	0.195496688741722	0.437933774834437	20.1117880794702	31.9719205298013	-7.33748344370861				0.783788079470199	-0.174834437086093	-0.772238410596026	0.860397350993377	-0.122384105960265	-4.39470198675497			
137	2740	0.999841059602649	0.130754966887417	0.056476821192053	3.11337748344371	-2.6646357615894	-0.624900662251656				0.912953642384106	-0.0802119205298013	0.541139072847682	11.3539072847682	7.02781456953642	1.65403973509934				1.02982781456954	-0.177271523178808	-0.00794701986754963	8.40741721854305	-3.49350993377483	-0.20026490066225				0.816529801324503	-0.0805298013245033	-0.533721854304636	-1.15708609271523	18.1035761589404	-26.3756291390728				0.964026490066225	0.131496688741722	0.469933774834437	23.4717880794702	24.1319205298013	-4.81748344370861				0.719788079470199	-0.382834437086093	-0.692238410596026	35.3003973509934	0.997615894039735	1.76529801324503			
138	2760	0.919841059602649	0.0507549668874172	0.040476821192053	15.4333774834437	-13.0246357615894	-1.74490066225166				0.896953642384106	0.0317880794701987	0.541139072847682	-2.92609271523179	15.9878145695364	5.01403973509934				1.04582781456954	-0.161271523178808	-0.00794701986754963	4.20741721854305	-2.65350993377483	0.35973509933775				0.816529801324503	-0.0645298013245033	-0.485721854304636	-0.0370860927152318	15.3035761589404	-23.0156291390729				0.836026490066225	0.243496688741722	0.517933774834437	-5.3682119205298	7.61192052980133	-0.897483443708608				0.831788079470199	-0.366834437086093	-0.580238410596026	28.3003973509934	7.15761589403974	-4.95470198675497			
139	2780	0.935841059602649	-0.109245033112583	0.072476821192053	14.5933774834437	-13.5846357615894	-1.46490066225166				0.944953642384106	-0.000211920529801304	0.509139072847682	-6.56609271523179	4.22781456953642	5.85403973509934				0.917827814569536	-0.177271523178808	0.0240529801324504	1.12741721854305	-4.89350993377483	-0.48026490066225				0.800529801324503	-0.112529801324503	-0.485721854304636	7.24291390728477	7.1835761589404	-17.1356291390729				0.852026490066225	0.211496688741722	0.469933774834437	3.5917880794702	22.7319205298013	-0.0574834437086077				0.815788079470199	-0.286834437086093	-0.612238410596026	16.8203973509934	1.55761589403974	1.48529801324503			
140	2800	0.983841059602649	-0.125245033112583	0.120476821192053	3.67337748344371	-3.7846357615894	-1.74490066225166				0.992953642384106	-0.0962119205298013	0.333139072847682	2.95390728476821	-8.09218543046358	6.13403973509934				0.869827814569536	-0.177271523178808	0.00805298013245037	9.52741721854305	-0.413509933774833	-1.32026490066225				0.816529801324503	-0.0965298013245033	-0.533721854304636	5.28291390728477	8.5835761589404	-10.9756291390728				0.916026490066225	0.147496688741722	0.501933774834437	15.9117880794702	18.8119205298013	2.46251655629139				0.735788079470199	-0.302834437086093	-0.612238410596026	28.3003973509934	-7.12238410596027	9.60529801324503			
141	2820	0.903841059602649	-0.109245033112583	0.184476821192053	-7.52662251655629	6.0153642384106	1.05509933774834				0.896953642384106	-0.0162119205298013	0.445139072847682	-7.40609271523179	-1.65218543046358	5.29403973509934				0.981827814569536	-0.193271523178808	0.0560529801324504	8.12741721854305	5.46649006622517	0.35973509933775				0.848529801324503	-0.112529801324503	-0.485721854304636	-2.83708609271523	10.8235761589404	-6.21562913907285				0.916026490066225	0.211496688741722	0.517933774834437	-7.0482119205298	9.01192052980133	1.62251655629139				0.783788079470199	-0.414834437086093	-0.596238410596026	31.9403973509934	0.157615894039735	3.72529801324503			
142	2840	0.871841059602649	-0.0612450331125828	0.152476821192053	-10.0466225165563	9.0953642384106	1.33509933774834				0.832953642384106	-0.000211920529801304	0.477139072847682	-14.1260927152318	-1.65218543046358	6.13403973509934				0.949827814569536	-0.193271523178808	0.0240529801324504	-8.11258278145695	7.70649006622517	0.91973509933775				0.880529801324503	-0.112529801324503	-0.453721854304636	-0.877086092715232	4.9435761589404	-0.335629139072848				0.916026490066225	0.211496688741722	0.389933774834437	-10.6882119205298	5.09192052980133	6.94251655629139				0.831788079470199	-0.430834437086093	-0.692238410596026	4.22039735099338	-2.92238410596027	2.60529801324503			
143	2860	0.983841059602649	0.0667549668874172	0.040476821192053	-11.1666225165563	8.2553642384106	1.33509933774834				0.880953642384106	-0.0322119205298013	0.429139072847682	-9.92609271523179	-6.69218543046358	7.25403973509934				0.965827814569536	-0.161271523178808	0.0240529801324504	-12.872582781457	7.14649006622517	1.47973509933775				0.800529801324503	-0.112529801324503	-0.437721854304636	-1.43708609271523	2.1435761589404	5.54437086092715				0.852026490066225	0.115496688741722	0.405933774834437	3.3117880794702	3.41192052980132	9.18251655629139				0.687788079470199	-0.270834437086093	-0.628238410596026	-0.819602649006623	-18.6023841059603	15.205298013245			
144	2880	0.999841059602649	0.0667549668874172	-0.00752317880794696	-3.60662251655629	0.415364238410596	-0.0649006622516557				0.928953642384106	-0.112211920529801	0.413139072847682	-7.40609271523179	-8.65218543046358	6.69403973509934				1.01382781456954	-0.177271523178808	0.0560529801324504	-4.75258278145695	0.986490066225167	2.31973509933775				0.736529801324503	-0.0965298013245033	-0.453721854304636	2.48291390728477	1.0235761589404	10.3043708609272				0.852026490066225	0.131496688741722	0.501933774834437	-3.1282119205298	4.81192052980133	8.06251655629139				0.575788079470199	-0.286834437086093	-0.532238410596027	19.3403973509934	-11.6023841059603	18.005298013245			
145	2900	1.01584105960265	0.00275496688741723	0.00847682119205304	1.99337748344371	-2.9446357615894	-0.0649006622516557				0.864953642384106	-0.0162119205298013	0.445139072847682	-13.5660927152318	-1.93218543046358	5.57403973509934				0.981827814569536	-0.161271523178808	0.0240529801324504	0.00741721854304636	-5.45350993377483	0.91973509933775				0.736529801324503	-0.112529801324503	-0.485721854304636	2.76291390728477	2.7035761589404	12.8243708609272				0.836026490066225	0.147496688741722	0.453933774834437	-16.2882119205298	-8.34807947019868	9.18251655629139				0.655788079470199	-0.366834437086093	-0.548238410596027	14.3003973509934	-2.36238410596027	4.00529801324503			
146	2920	1.03184105960265	-0.0292450331125828	0.120476821192053	-3.88662251655629	-2.6646357615894	0.215099337748344				0.880953642384106	-0.000211920529801304	0.509139072847682	-25.3260927152318	6.18781456953642	5.29403973509934				0.917827814569536	-0.113271523178808	0.00805298013245037	-6.15258278145695	-6.85350993377483	0.35973509933775				0.816529801324503	-0.160529801324503	-0.517721854304636	2.76291390728477	4.6635761589404	13.1043708609272				0.852026490066225	0.147496688741722	0.437933774834437	-16.8482119205298	-2.46807947019868	7.78251655629139				0.639788079470199	-0.382834437086093	-0.628238410596026	0.580397350993377	-6.28238410596027	9.04529801324503			
147	2940	0	0	0	0	0	0				0	0	0	0	0	0				0.997827814569536	-0.177271523178808	-0.00794701986754963	-8.95258278145695	-5.45350993377483	1.75973509933775				0.896529801324503	-0.224529801324503	-0.517721854304636	4.44291390728477	4.1035761589404	11.1443708609272				0.916026490066225	0.0994966887417219	0.437933774834437	-11.5282119205298	2.57192052980133	8.34251655629139				0.607788079470199	-0.270834437086093	-0.660238410596027	2.82039735099338	2.39761589403974	15.485298013245			
148	2960	0.951841059602649	0.0507549668874172	0.248476821192053	-8.64662251655629	2.9353642384106	-1.46490066225166				0.960953642384106	-0.0802119205298013	0.381139072847682	-7.12609271523179	-8.37218543046358	4.73403973509934				1.02982781456954	-0.177271523178808	0.0240529801324504	-12.032582781457	-1.53350993377483	2.31973509933775				0.928529801324503	-0.224529801324503	-0.501721854304636	-1.15708609271523	0.1835761589404	8.90437086092715				0.964026490066225	0.0834966887417219	0.421933774834437	-10.4082119205298	8.17192052980133	6.66251655629139				0.639788079470199	-0.318834437086093	-0.660238410596027	13.1803973509934	14.1576158940397	12.125298013245			
149	2980	0.935841059602649	0.0507549668874172	0.152476821192053	-7.52662251655629	6.8553642384106	-2.58490066225166				0.864953642384106	0.0317880794701987	0.365139072847682	-11.3260927152318	1.42781456953642	1.09403973509934				0.981827814569536	-0.129271523178808	0.00805298013245037	-13.992582781457	0.146490066225167	0.63973509933775				0.896529801324503	-0.192529801324503	-0.485721854304636	-10.6770860927152	-2.0564238410596	8.34437086092715				0.916026490066225	0.115496688741722	0.405933774834437	-16.0082119205298	-3.30807947019868	6.66251655629139				0.655788079470199	-0.414834437086093	-0.676238410596026	4.78039735099338	8.83761589403974	6.80529801324503			
150	3000	0.999841059602649	0.0187549668874172	0.088476821192053	-0.246622516556291	9.6553642384106	-2.86490066225166				0.912953642384106	0.0477880794701987	0.397139072847682	-6.28609271523179	1.70781456953642	2.21403973509934				0.901827814569536	-0.0972715231788079	-0.00794701986754963	-4.47258278145695	0.706490066225167	0.35973509933775				0.880529801324503	-0.160529801324503	-0.469721854304636	-12.3570860927152	0.4635761589404	8.34437086092715				0.868026490066225	0.163496688741722	0.437933774834437	-14.0482119205298	-4.98807947019868	4.70251655629139				0.575788079470199	-0.382834437086093	-0.692238410596026	3.66039735099338	-7.12238410596027	9.04529801324503			
151	3020	0.967841059602649	-0.0132450331125828	0.056476821192053	1.71337748344371	4.6153642384106	-2.02490066225166				0.896953642384106	-0.0642119205298013	0.397139072847682	-7.40609271523179	2.26781456953642	6.41403973509934				0.949827814569536	-0.129271523178808	-0.0239470198675496	-1.11258278145695	0.986490066225167	0.91973509933775				0.832529801324503	-0.144529801324503	-0.501721854304636	-5.07708609271523	-0.0964238410596001	6.66437086092715				0.852026490066225	0.147496688741722	0.373933774834437	-8.4482119205298	-4.70807947019868	3.02251655629139				0.559788079470199	-0.254834437086093	-0.628238410596026	5.06039735099338	0.157615894039735	11.845298013245			
152	3040	0.935841059602649	-0.0292450331125828	0.056476821192053	3.39337748344371	0.695364238410596	-2.30490066225166				0.880953642384106	-0.0962119205298013	0.397139072847682	-16.0860927152318	9.82781456953643	3.61403973509934				0.997827814569536	-0.161271523178808	-0.0399470198675496	-1.95258278145695	0.706490066225167	0.91973509933775				0.784529801324503	-0.192529801324503	-0.485721854304636	-5.35708609271523	-3.1764238410596	4.98437086092715				0.868026490066225	0.0674966887417219	0.389933774834437	-1.7282119205298	-6.94807947019868	2.74251655629139				0.575788079470199	-0.286834437086093	-0.644238410596026	7.30039735099338	0.997615894039735	10.725298013245			
153	3060	0.967841059602649	-0.0772450331125828	0.040476821192053	0.0333774834437086	1.8153642384106	-1.18490066225166				0.896953642384106	0.0157880794701987	0.429139072847682	-13.5660927152318	13.1878145695364	-0.0259602649006601				0.949827814569536	-0.145271523178808	-0.0559470198675496	-1.11258278145695	-1.53350993377483	0.91973509933775				0.768529801324503	-0.160529801324503	-0.453721854304636	-10.3970860927152	-4.0164238410596	2.74437086092715				0.884026490066225	0.0994966887417219	0.421933774834437	-7.0482119205298	-6.66807947019868	3.58251655629139				0.591788079470199	-0.334834437086093	-0.676238410596026	-0.539602649006623	-6.56238410596027	7.92529801324503			
154	3080	1.01584105960265	-0.0612450331125828	0.024476821192053	-9.76662251655629	0.135364238410596	0.775099337748344				0.976953642384106	-0.0162119205298013	0.397139072847682	0.713907284768212	1.70781456953642	1.09403973509934				0.933827814569536	-0.145271523178808	-0.0719470198675496	-1.11258278145695	-3.21350993377483	1.19973509933775				0.800529801324503	-0.128529801324503	-0.485721854304636	-8.71708609271523	-4.2964238410596	1.90437086092715				0.868026490066225	0.163496688741722	0.389933774834437	-11.5282119205298	-5.26807947019868	3.02251655629139				0.575788079470199	-0.270834437086093	-0.644238410596026	3.94039735099338	-8.52238410596027	6.24529801324503			
155	3100	0.999841059602649	0.00275496688741723	0.056476821192053	-9.76662251655629	-0.704635761589404	0.215099337748344				0.944953642384106	-0.112211920529801	0.365139072847682	-5.44609271523179	-0.252185430463576	1.37403973509934				0.981827814569536	-0.177271523178808	-0.0559470198675496	-3.63258278145695	-3.49350993377483	1.75973509933775				0.832529801324503	-0.144529801324503	-0.533721854304636	5.28291390728477	-1.7764238410596	3.02437086092715				0.900026490066225	0.115496688741722	0.341933774834437	0.511788079470198	-2.46807947019868	3.30251655629139				0.591788079470199	-0.254834437086093	-0.644238410596026	7.86039735099338	3.23761589403974	4.00529801324503			
156	3120	0.983841059602649	0.0187549668874172	0.040476821192053	-8.64662251655629	-3.7846357615894	0.495099337748344				0.928953642384106	-0.0322119205298013	0.397139072847682	-11.3260927152318	6.46781456953642	-1.14596026490066				0.981827814569536	-0.161271523178808	-0.0719470198675496	-8.67258278145695	-4.05350993377483	0.63973509933775				0.816529801324503	-0.192529801324503	-0.517721854304636	8.08291390728477	-0.0964238410596001	4.14437086092715				0.916026490066225	0.0674966887417219	0.405933774834437	5.2717880794702	-2.74807947019868	4.42251655629139				0.639788079470199	-0.318834437086093	-0.708238410596026	11.7803973509934	2.95761589403974	-0.194701986754968			
157	3140	0.935841059602649	0.0347549668874172	0.040476821192053	-3.04662251655629	-3.5046357615894	0.215099337748344				0.944953642384106	-0.0162119205298013	0.397139072847682	-5.16609271523179	2.26781456953642	-1.14596026490066				0.949827814569536	-0.113271523178808	-0.0879470198675496	-8.95258278145695	-3.49350993377483	-2.16026490066225				0.832529801324503	-0.208529801324503	-0.517721854304636	0.802913907284768	-5.9764238410596	4.42437086092715				0.916026490066225	0.0994966887417219	0.389933774834437	-2.8482119205298	-4.98807947019868	3.02251655629139				0.607788079470199	-0.350834437086093	-0.692238410596026	-0.259602649006623	-6.84238410596027	-1.31470198675497			
158	3160	0.967841059602649	0.00275496688741723	0.072476821192053	-1.92662251655629	-2.9446357615894	0.495099337748344				0.960953642384106	-0.0802119205298013	0.349139072847682	-2.92609271523179	-3.33218543046358	-0.0259602649006601				0.965827814569536	-0.129271523178808	-0.0719470198675496	-6.15258278145695	-0.693509933774834	-3.00026490066225				0.848529801324503	-0.208529801324503	-0.533721854304636	-6.19708609271523	-9.3364238410596	4.98437086092715				0.916026490066225	0.131496688741722	0.357933774834437	-4.8082119205298	-5.26807947019868	2.18251655629139				0.591788079470199	-0.334834437086093	-0.612238410596026	0.860397350993377	-5.44238410596027	0.0852980132450323			
159	3180	0.999841059602649	-0.0292450331125828	0.040476821192053	-2.48662251655629	-4.0646357615894	0.775099337748344				0.928953642384106	-0.0162119205298013	0.381139072847682	-8.52609271523179	-1.37218543046358	-1.42596026490066				0.997827814569536	-0.161271523178808	-0.0719470198675496	-3.91258278145695	-0.973509933774833	-1.88026490066225				0.816529801324503	-0.192529801324503	-0.565721854304636	-3.11708609271523	-8.2164238410596	4.98437086092715				0.932026490066225	0.0994966887417219	0.357933774834437	1.9117880794702	-4.14807947019868	2.18251655629139				0.623788079470199	-0.318834437086093	-0.644238410596026	3.94039735099338	2.67761589403974	-2.15470198675497			
160	3200	0.983841059602649	-0.0132450331125828	0.024476821192053	-8.92662251655629	-7.1446357615894	2.73509933774834				0.944953642384106	-0.000211920529801304	0.413139072847682	-6.00609271523179	1.70781456953642	-0.585960264900661				0.965827814569536	-0.145271523178808	-0.0879470198675496	-4.75258278145695	-2.93350993377483	-1.04026490066225				0.784529801324503	-0.176529801324503	-0.565721854304636	-1.71708609271523	-7.3764238410596	1.90437086092715				0.932026490066225	0.0994966887417219	0.341933774834437	-0.888211920529802	-6.10807947019868	2.18251655629139				0.607788079470199	-0.318834437086093	-0.692238410596026	-1.93960264900662	2.67761589403974	-6.07470198675497			
161	3220	0.967841059602649	0.00275496688741723	0.088476821192053	-6.40662251655629	-4.6246357615894	2.17509933774834				0.976953642384106	-0.0162119205298013	0.413139072847682	-2.08609271523179	-2.21218543046358	-1.42596026490066				0.981827814569536	-0.145271523178808	-0.0879470198675496	-3.63258278145695	-2.65350993377483	0.0797350993377501				0.784529801324503	-0.176529801324503	-0.565721854304636	-3.95708609271523	-7.6564238410596	-0.895629139072848				0.916026490066225	0.163496688741722	0.325933774834437	-4.2482119205298	-6.94807947019868	-0.0574834437086077				0.575788079470199	-0.302834437086093	-0.644238410596026	-0.539602649006623	1.55761589403974	-5.51470198675497			
162	3240	0.999841059602649	0.0347549668874172	0.072476821192053	-2.48662251655629	-1.2646357615894	0.215099337748344				0.960953642384106	-0.0322119205298013	0.349139072847682	-4.32609271523179	-1.37218543046358	-0.86596026490066				0.997827814569536	-0.161271523178808	-0.0879470198675496	-5.03258278145695	-0.693509933774834	1.19973509933775				0.768529801324503	-0.192529801324503	-0.581721854304636	-0.0370860927152318	-5.4164238410596	-0.615629139072848				0.868026490066225	0.131496688741722	0.341933774834437	0.791788079470198	-5.82807947019868	-1.73748344370861				0.575788079470199	-0.270834437086093	-0.660238410596027	-0.539602649006623	2.95761589403974	-1.59470198675497			
163	3260	0.983841059602649	0.0667549668874172	0.104476821192053	-2.76662251655629	-0.984635761589404	-0.0649006622516557				0.912953642384106	-0.000211920529801304	0.397139072847682	-6.00609271523179	2.26781456953642	-0.585960264900661				0.949827814569536	-0.145271523178808	-0.0879470198675496	-4.47258278145695	-1.25350993377483	0.35973509933775				0.752529801324503	-0.176529801324503	-0.549721854304636	-2.55708609271523	-4.2964238410596	-1.17562913907285				0.916026490066225	0.115496688741722	0.325933774834437	-1.1682119205298	-4.70807947019868	-2.29748344370861				0.639788079470199	-0.286834437086093	-0.708238410596026	-1.09960264900662	6.87761589403974	-2.71470198675497			
164	3280	0.967841059602649	0.0347549668874172	0.104476821192053	4.23337748344371	-0.424635761589404	-0.904900662251656				0.912953642384106	0.0157880794701987	0.397139072847682	1.27390728476821	-1.65218543046358	1.09403973509934				0.949827814569536	-0.0972715231788079	-0.0879470198675496	-3.63258278145695	-0.973509933774833	0.0797350993377501				0.752529801324503	-0.176529801324503	-0.565721854304636	-5.07708609271523	-3.1764238410596	-0.615629139072848				0.900026490066225	0.147496688741722	0.325933774834437	-5.0882119205298	-1.62807947019868	-3.41748344370861				0.639788079470199	-0.318834437086093	-0.724238410596026	-3.61960264900662	1.27761589403974	-1.59470198675497			
165	3300	0.967841059602649	0.0187549668874172	0.072476821192053	5.07337748344371	-4.3446357615894	-0.904900662251656				0.928953642384106	-0.0322119205298013	0.397139072847682	7.71390728476821	-3.61218543046358	1.93403973509934				0.981827814569536	-0.113271523178808	-0.0719470198675496	0.847417218543046	-1.25350993377483	0.0797350993377501				0.768529801324503	-0.160529801324503	-0.549721854304636	-2.55708609271523	-2.6164238410596	1.06437086092715				0.900026490066225	0.131496688741722	0.341933774834437	-1.1682119205298	2.29192052980133	-3.41748344370861				0.623788079470199	-0.286834437086093	-0.692238410596026	-8.65960264900662	-1.52238410596026	1.76529801324503			
166	3320	0.983841059602649	-0.0132450331125828	0.072476821192053	2.83337748344371	-6.3046357615894	1.33509933774834				0.912953642384106	-0.0482119205298013	0.397139072847682	0.993907284768212	-1.37218543046358	0.53403973509934				0.965827814569536	-0.113271523178808	-0.0719470198675496	6.44741721854305	-3.21350993377483	0.0797350993377501				0.768529801324503	-0.176529801324503	-0.533721854304636	-0.877086092715232	-4.8564238410596	1.90437086092715				0.932026490066225	0.0834966887417219	0.325933774834437	2.7517880794702	-2.74807947019868	-1.17748344370861				0.591788079470199	-0.254834437086093	-0.676238410596026	-9.21960264900662	-0.122384105960265	2.04529801324503			
167	3340	0.967841059602649	-0.0292450331125828	0.072476821192053	1.71337748344371	-3.5046357615894	1.33509933774834				0.912953642384106	-0.0162119205298013	0.397139072847682	-1.52609271523179	1.14781456953642	-1.70596026490066				0.933827814569536	-0.113271523178808	-0.0719470198675496	4.48741721854305	-3.21350993377483	-0.48026490066225				0.752529801324503	-0.144529801324503	-0.517721854304636	-5.91708609271523	-5.1364238410596	0.784370860927152				0.884026490066225	0.131496688741722	0.341933774834437	-4.8082119205298	-5.26807947019868	-0.617483443708608				0.607788079470199	-0.254834437086093	-0.692238410596026	-6.69960264900662	2.39761589403974	-1.59470198675497			
168	3360	0.951841059602649	0.0187549668874172	0.088476821192053	0.873377483443709	0.415364238410596	-0.344900662251656				0.912953642384106	-0.0482119205298013	0.381139072847682	3.23390728476821	-1.93218543046358	-0.30596026490066				0.949827814569536	-0.129271523178808	-0.0719470198675496	5.32741721854305	-2.65350993377483	0.63973509933775				0.752529801324503	-0.144529801324503	-0.517721854304636	-3.11708609271523	-3.1764238410596	0.504370860927152				0.852026490066225	0.163496688741722	0.325933774834437	-2.2882119205298	-2.46807947019868	-1.17748344370861				0.591788079470199	-0.238834437086093	-0.692238410596026	1.42039735099338	0.437615894039735	-6.07470198675497			
169	3380	0.951841059602649	0.0187549668874172	0.056476821192053	0.873377483443709	-2.3846357615894	0.495099337748344				0.928953642384106	-0.0642119205298013	0.365139072847682	6.03390728476821	-0.532185430463576	0.81403973509934				0.949827814569536	-0.161271523178808	-0.0559470198675496	5.60741721854305	-3.21350993377483	0.63973509933775				0.768529801324503	-0.160529801324503	-0.517721854304636	4.44291390728477	-2.0564238410596	0.224370860927152				0.884026490066225	0.0994966887417219	0.341933774834437	6.3917880794702	2.85192052980133	-1.73748344370861				0.575788079470199	-0.254834437086093	-0.660238410596027	2.54039735099338	-2.64238410596027	-4.39470198675497			
170	3400	0.967841059602649	0.00275496688741723	0.056476821192053	4.23337748344371	-5.7446357615894	1.33509933774834				0.896953642384106	-0.0322119205298013	0.397139072847682	4.91390728476821	0.307814569536424	-1.42596026490066				0.949827814569536	-0.177271523178808	-0.0399470198675496	3.92741721854305	-3.77350993377483	0.91973509933775				0.784529801324503	-0.176529801324503	-0.533721854304636	6.68291390728477	-3.1764238410596	-1.45562913907285				0.916026490066225	0.0834966887417219	0.357933774834437	5.5517880794702	0.611920529801325	-0.897483443708608				0.575788079470199	-0.286834437086093	-0.660238410596027	-1.09960264900662	-4.04238410596027	-4.39470198675497			
171	3420	0.951841059602649	0.00275496688741723	0.056476821192053	-0.526622516556291	-4.0646357615894	2.17509933774834				0.912953642384106	-0.0162119205298013	0.381139072847682	5.75390728476821	-0.532185430463576	-1.98596026490066				0.949827814569536	-0.161271523178808	-0.0399470198675496	1.68741721854305	-2.09350993377483	0.63973509933775				0.768529801324503	-0.176529801324503	-0.549721854304636	1.36291390728477	-1.4964238410596	-2.85562913907285				0.884026490066225	0.131496688741722	0.325933774834437	1.0717880794702	-4.70807947019868	-1.17748344370861				0.575788079470199	-0.270834437086093	-0.708238410596026	-2.77960264900662	-0.682384105960265	-7.19470198675497			
172	3440	0.951841059602649	0.00275496688741723	0.088476821192053	2.83337748344371	1.8153642384106	0.495099337748344				0.976953642384106	-0.0482119205298013	0.381139072847682	6.31390728476821	-3.61218543046358	-0.30596026490066				0.965827814569536	-0.161271523178808	-0.0399470198675496	-0.272582781456954	-1.53350993377483	0.0797350993377501				0.784529801324503	-0.144529801324503	-0.549721854304636	3.88291390728477	-2.0564238410596	-2.01562913907285				0.900026490066225	0.147496688741722	0.325933774834437	4.9917880794702	-1.90807947019868	-0.617483443708608				0.575788079470199	-0.254834437086093	-0.724238410596026	4.78039735099338	1.55761589403974	-8.03470198675497			
173	3460	1.01584105960265	-0.0132450331125828	0.088476821192053	3.39337748344371	2.9353642384106	-0.624900662251656				0.960953642384106	-0.0642119205298013	0.365139072847682	1.83390728476821	-1.93218543046358	0.53403973509934				0.997827814569536	-0.161271523178808	-0.0559470198675496	-0.272582781456954	0.146490066225167	0.0797350993377501				0.784529801324503	-0.176529801324503	-0.549721854304636	6.12291390728477	-2.8964238410596	-3.41562913907285				0.932026490066225	0.0994966887417219	0.341933774834437	10.0317880794702	0.611920529801325	-0.337483443708608				0.607788079470199	-0.302834437086093	-0.708238410596026	10.9403973509934	2.11761589403974	-6.35470198675497			
174	3480	1.01584105960265	-0.0132450331125828	0.024476821192053	0.593377483443709	-0.424635761589404	-0.0649006622516557				0.928953642384106	-0.0162119205298013	0.381139072847682	0.993907284768212	3.66781456953642	-1.14596026490066				0.981827814569536	-0.145271523178808	-0.0719470198675496	-0.832582781456954	1.54649006622517	-0.48026490066225				0.768529801324503	-0.192529801324503	-0.565721854304636	5.00291390728477	-2.8964238410596	-5.65562913907285				0.932026490066225	0.0994966887417219	0.357933774834437	5.2717880794702	0.891920529801325	-0.617483443708608				0.639788079470199	-0.334834437086093	-0.708238410596026	8.14039735099338	-3.20238410596026	-4.67470198675497			
175	3500	0.983841059602649	-0.0292450331125828	0.040476821192053	-1.36662251655629	-3.7846357615894	1.61509933774834				0.928953642384106	-0.0162119205298013	0.397139072847682	5.47390728476821	3.10781456953642	-0.585960264900661				0.965827814569536	-0.145271523178808	-0.0719470198675496	1.12741721854305	2.38649006622517	0.35973509933775				0.768529801324503	-0.176529801324503	-0.581721854304636	1.92291390728477	-1.7764238410596	-6.21562913907285				0.916026490066225	0.147496688741722	0.325933774834437	2.4717880794702	-2.74807947019868	-0.897483443708608				0.623788079470199	-0.302834437086093	-0.708238410596026	-0.539602649006623	-3.76238410596027	-3.55470198675497			
176	3520	0.951841059602649	-0.0292450331125828	0.056476821192053	1.71337748344371	-2.9446357615894	1.33509933774834				0.928953642384106	-0.0322119205298013	0.381139072847682	7.15390728476821	0.307814569536424	-0.0259602649006601				0.965827814569536	-0.177271523178808	-0.0719470198675496	5.32741721854305	1.26649006622517	0.63973509933775				0.768529801324503	-0.176529801324503	-0.581721854304636	2.20291390728477	-1.4964238410596	-5.65562913907285				0.900026490066225	0.163496688741722	0.325933774834437	6.1117880794702	1.45192052980132	-0.337483443708608				0.607788079470199	-0.254834437086093	-0.692238410596026	3.66039735099338	-0.402384105960265	-3.83470198675497			
177	3540	0.935841059602649	-0.0132450331125828	0.056476821192053	2.83337748344371	-3.5046357615894	1.33509933774834				0.912953642384106	-0.0322119205298013	0.365139072847682	4.91390728476821	1.98781456953642	1.09403973509934				0.965827814569536	-0.177271523178808	-0.0879470198675496	7.00741721854305	-0.133509933774833	0.63973509933775				0.752529801324503	-0.176529801324503	-0.549721854304636	2.20291390728477	-1.7764238410596	-5.65562913907285				0.900026490066225	0.131496688741722	0.341933774834437	7.7917880794702	2.29192052980133	-0.337483443708608				0.623788079470199	-0.254834437086093	-0.660238410596027	9.54039735099338	-1.52238410596026	-4.11470198675497			
