No	Time	12-AccX	12-AccY	12-AccZ	12-GyroX	12-GyroY	12-GyroZ	13-AccX	13-AccY	13-AccZ	13-GyroX	13-GyroY	13-GyroZ	14-AccX	14-AccY	14-AccZ	14-GyroX	14-GyroY	14-GyroZ	15-AccX	15-AccY	15-AccZ	15-GyroX	15-GyroY	15-GyroZ	16-AccX	16-AccY	16-AccZ	16-GyroX	16-GyroY	16-GyroZ	17-AccX	17-AccY	17-AccZ	17-GyroX	17-GyroY	17-GyroZ
0	0	0	0	0	0	0	0				0.960953642384106	0.0477880794701987	0.285139072847682	3.23390728476821	0.0278145695364242	0.81403973509934				-0.234172185430464	-0.129271523178808	-0.88794701986755	1.12741721854305	0.706490066225167	-0.76026490066225				0	0	0	0	0	0				0	0	0	0	0	0				0	0	0	0	0	0			
1	20	-0.264158940397351	0.0987549668874172	-0.935523178807947	0.0333774834437086	0.135364238410596	-0.624900662251656				0.944953642384106	0.0317880794701987	0.301139072847682	2.95390728476821	0.587814569536424	0.81403973509934				-0.218172185430464	-0.129271523178808	-0.88794701986755	0.847417218543046	-0.133509933774833	-0.48026490066225				0.448529801324503	-0.144529801324503	-0.853721854304636	-1.15708609271523	-1.4964238410596	-2.85562913907285				0.964026490066225	0.0674966887417219	0.117933774834437	1.9117880794702	0.331920529801325	-0.897483443708608				0.431788079470199	-0.238834437086093	-0.836238410596026	0.0203973509933773	0.997615894039735	-2.43470198675497			
2	40	-0.264158940397351	0.0987549668874172	-0.935523178807947	0.0333774834437086	0.695364238410596	-0.624900662251656				0.960953642384106	0.0317880794701987	0.301139072847682	2.39390728476821	1.42781456953642	0.81403973509934				-0.234172185430464	-0.129271523178808	-0.87194701986755	-0.272582781456954	-0.413509933774833	-0.48026490066225				0.448529801324503	-0.128529801324503	-0.837721854304636	-0.317086092715232	-0.9364238410596	-2.85562913907285				0.948026490066225	0.0834966887417219	0.117933774834437	1.9117880794702	-0.508079470198675	-1.17748344370861				0.415788079470199	-0.238834437086093	-0.820238410596026	0.860397350993377	0.157615894039735	-2.43470198675497			
3	60	-0.280158940397351	0.0987549668874172	-0.935523178807947	0.313377483443709	0.415364238410596	-0.904900662251656				0.944953642384106	0.0317880794701987	0.317139072847682	1.55390728476821	0.587814569536424	0.53403973509934				-0.234172185430464	-0.145271523178808	-0.88794701986755	1.40741721854305	0.146490066225167	-0.48026490066225				0.448529801324503	-0.144529801324503	-0.837721854304636	-0.0370860927152318	-0.0964238410596001	-3.13562913907285				0.948026490066225	0.0674966887417219	0.133933774834437	1.0717880794702	-1.06807947019868	-0.337483443708608				0.431788079470199	-0.222834437086093	-0.836238410596026	0.300397350993377	-0.962384105960265	-2.43470198675497			
4	80	-0.280158940397351	0.0987549668874172	-0.935523178807947	0.593377483443709	0.415364238410596	-0.624900662251656				0.960953642384106	0.0317880794701987	0.301139072847682	1.27390728476821	-0.252185430463576	0.81403973509934				-0.234172185430464	-0.145271523178808	-0.87194701986755	1.12741721854305	0.146490066225167	-0.76026490066225				0.448529801324503	-0.144529801324503	-0.837721854304636	-0.317086092715232	0.4635761589404	-2.57562913907285				0.948026490066225	0.0674966887417219	0.149933774834437	3.8717880794702	4.25192052980133	-0.617483443708608				0.415788079470199	-0.254834437086093	-0.820238410596026	0.580397350993377	-0.682384105960265	-1.31470198675497			
5	100	-0.264158940397351	0.0987549668874172	-0.935523178807947	0.593377483443709	-0.424635761589404	-1.46490066225166				0.944953642384106	0.0317880794701987	0.317139072847682	1.27390728476821	0.867814569536424	0.53403973509934				-0.218172185430464	-0.145271523178808	-0.88794701986755	-0.272582781456954	0.146490066225167	-0.20026490066225				0.448529801324503	-0.160529801324503	-0.837721854304636	-0.877086092715232	-0.9364238410596	-3.69562913907285				0.948026490066225	0.0674966887417219	0.133933774834437	1.3517880794702	-0.508079470198675	-1.45748344370861				0.431788079470199	-0.238834437086093	-0.820238410596026	0.0203973509933773	0.437615894039735	-1.31470198675497			
6	120	-0.280158940397351	0.0987549668874172	-0.935523178807947	0.0333774834437086	0.135364238410596	-1.46490066225166				0.960953642384106	0.0317880794701987	0.301139072847682	0.993907284768212	1.42781456953642	1.09403973509934				-0.234172185430464	-0.145271523178808	-0.88794701986755	1.40741721854305	1.54649006622517	-0.20026490066225				0.464529801324503	-0.144529801324503	-0.837721854304636	-2.27708609271523	-0.3764238410596	-2.57562913907285				0.948026490066225	0.0674966887417219	0.133933774834437	-0.328211920529802	0.891920529801325	-1.17748344370861				0.415788079470199	-0.238834437086093	-0.804238410596027	0.0203973509933773	1.27761589403974	-1.31470198675497			
7	140	-0.264158940397351	0.0827549668874172	-0.935523178807947	0.593377483443709	0.135364238410596	-1.18490066225166				0.944953642384106	0.0317880794701987	0.301139072847682	0.153907284768212	2.54781456953642	0.81403973509934				-0.218172185430464	-0.145271523178808	-0.88794701986755	-1.39258278145695	0.986490066225167	-0.20026490066225				0.448529801324503	-0.128529801324503	-0.837721854304636	-0.877086092715232	1.0235761589404	-3.69562913907285				0.932026490066225	0.0834966887417219	0.149933774834437	0.511788079470198	2.29192052980133	-1.17748344370861				0.415788079470199	-0.238834437086093	-0.804238410596027	0.300397350993377	0.997615894039735	-0.194701986754968			
8	160	-0.264158940397351	0.0827549668874172	-0.919523178807947	0.313377483443709	-0.424635761589404	-1.18490066225166				0.960953642384106	0.0157880794701987	0.333139072847682	-0.126092715231788	0.307814569536424	1.37403973509934				-0.218172185430464	-0.145271523178808	-0.88794701986755	-0.272582781456954	0.426490066225167	0.0797350993377501				0.448529801324503	-0.144529801324503	-0.837721854304636	0.242913907284768	1.3035761589404	-2.29562913907285				0.948026490066225	0.0674966887417219	0.133933774834437	0.511788079470198	0.611920529801325	-1.17748344370861				0.431788079470199	-0.238834437086093	-0.804238410596027	-1.37960264900662	0.437615894039735	-0.754701986754968			
9	180	-0.280158940397351	0.0827549668874172	-0.935523178807947	-0.526622516556291	-0.424635761589404	-1.18490066225166				0.960953642384106	0.0317880794701987	0.301139072847682	-0.126092715231788	-2.49218543046358	0.81403973509934				-0.234172185430464	-0.145271523178808	-0.87194701986755	0.287417218543046	0.986490066225167	-0.20026490066225				0.464529801324503	-0.128529801324503	-0.821721854304636	-0.877086092715232	0.7435761589404	-1.17562913907285				0.964026490066225	0.0674966887417219	0.149933774834437	2.7517880794702	1.45192052980132	-1.17748344370861				0.447788079470199	-0.238834437086093	-0.820238410596026	0.0203973509933773	1.55761589403974	-0.474701986754968			
10	200	-0.280158940397351	0.0987549668874172	-0.935523178807947	-0.526622516556291	-0.424635761589404	-0.904900662251656				0.960953642384106	0.0317880794701987	0.301139072847682	-0.406092715231788	-1.65218543046358	-0.30596026490066				-0.234172185430464	-0.129271523178808	-0.85594701986755	-0.272582781456954	2.10649006622517	-0.20026490066225				0.464529801324503	-0.144529801324503	-0.853721854304636	0.522913907284768	-0.3764238410596	-1.45562913907285				0.964026490066225	0.0834966887417219	0.133933774834437	0.511788079470198	0.611920529801325	-0.0574834437086077				0.447788079470199	-0.238834437086093	-0.820238410596026	0.300397350993377	2.11761589403974	-1.03470198675497			
11	220	-0.264158940397351	0.0827549668874172	-0.935523178807947	0.593377483443709	-0.144635761589404	-0.624900662251656				0.960953642384106	0.0317880794701987	0.301139072847682	1.83390728476821	-1.93218543046358	1.37403973509934				-0.234172185430464	-0.145271523178808	-0.88794701986755	1.12741721854305	-0.973509933774833	-0.20026490066225				0.464529801324503	-0.144529801324503	-0.853721854304636	1.08291390728477	1.8635761589404	-0.335629139072848				0.964026490066225	0.0834966887417219	0.133933774834437	0.511788079470198	0.331920529801325	-0.337483443708608				0.431788079470199	-0.238834437086093	-0.820238410596026	-0.259602649006623	2.67761589403974	-1.31470198675497			
12	240	-0.264158940397351	0.0827549668874172	-0.935523178807947	0.313377483443709	0.135364238410596	-0.904900662251656				0.960953642384106	0.0317880794701987	0.317139072847682	2.11390728476821	-1.93218543046358	1.65403973509934				-0.234172185430464	-0.145271523178808	-0.88794701986755	0.00741721854304636	-0.973509933774833	-0.20026490066225				0.448529801324503	-0.160529801324503	-0.853721854304636	1.36291390728477	2.7035761589404	-0.335629139072848				0.948026490066225	0.0674966887417219	0.149933774834437	-0.0482119205298018	0.331920529801325	-0.337483443708608				0.431788079470199	-0.254834437086093	-0.820238410596026	-0.259602649006623	1.83761589403974	-1.31470198675497			
13	260	-0.264158940397351	0.0987549668874172	-0.935523178807947	-0.806622516556291	0.695364238410596	-1.18490066225166				0.960953642384106	0.0317880794701987	0.301139072847682	1.83390728476821	-3.05218543046358	0.53403973509934				-0.234172185430464	-0.145271523178808	-0.87194701986755	0.567417218543046	-0.693509933774834	0.0797350993377501				0.480529801324503	-0.144529801324503	-0.837721854304636	1.08291390728477	2.7035761589404	-0.0556291390728476				0.948026490066225	0.0674966887417219	0.149933774834437	-0.608211920529802	0.611920529801325	0.222516556291392				0.431788079470199	-0.254834437086093	-0.820238410596026	-0.819602649006623	0.997615894039735	0.0852980132450323			
14	280	-0.280158940397351	0.0987549668874172	-0.935523178807947	0.313377483443709	0.415364238410596	-0.0649006622516557				0.960953642384106	0.0477880794701987	0.285139072847682	1.55390728476821	-2.49218543046358	0.53403973509934				-0.234172185430464	-0.145271523178808	-0.87194701986755	0.567417218543046	0.146490066225167	-0.76026490066225				0.480529801324503	-0.144529801324503	-0.853721854304636	1.36291390728477	1.3035761589404	0.504370860927152				0.964026490066225	0.0674966887417219	0.133933774834437	-0.608211920529802	0.0519205298013249	0.222516556291392				0.431788079470199	-0.238834437086093	-0.820238410596026	-0.259602649006623	0.997615894039735	-0.194701986754968			
15	300	-0.280158940397351	0.0827549668874172	-0.935523178807947	-0.526622516556291	0.415364238410596	-1.18490066225166				0.960953642384106	0.0317880794701987	0.301139072847682	2.11390728476821	-0.812185430463576	0.53403973509934				-0.234172185430464	-0.145271523178808	-0.88794701986755	-0.272582781456954	0.706490066225167	-0.76026490066225				0.480529801324503	-0.160529801324503	-0.853721854304636	1.08291390728477	0.1835761589404	0.224370860927152				0.948026490066225	0.0674966887417219	0.149933774834437	-0.328211920529802	-0.788079470198675	0.222516556291392				0.431788079470199	-0.238834437086093	-0.820238410596026	0.300397350993377	0.997615894039735	-1.03470198675497			
16	320	-0.280158940397351	0.0987549668874172	-0.935523178807947	-1.36662251655629	0.135364238410596	-0.904900662251656				0.944953642384106	0.0317880794701987	0.301139072847682	0.713907284768212	-0.532185430463576	0.25403973509934				-0.218172185430464	-0.145271523178808	-0.88794701986755	-0.552582781456954	-1.25350993377483	-1.32026490066225				0.464529801324503	-0.144529801324503	-0.837721854304636	-1.71708609271523	-0.3764238410596	1.06437086092715				0.948026490066225	0.0674966887417219	0.149933774834437	-0.328211920529802	1.45192052980132	-0.0574834437086077				0.415788079470199	-0.238834437086093	-0.804238410596027	0.860397350993377	0.157615894039735	0.645298013245032			
17	340	-0.264158940397351	0.0987549668874172	-0.919523178807947	0.0333774834437086	0.135364238410596	-0.344900662251656				0.960953642384106	0.0317880794701987	0.301139072847682	0.433907284768212	0.0278145695364242	0.53403973509934				-0.234172185430464	-0.145271523178808	-0.88794701986755	0.287417218543046	-0.133509933774833	-0.48026490066225				0.464529801324503	-0.144529801324503	-0.837721854304636	-0.877086092715232	-0.3764238410596	1.34437086092715				0.948026490066225	0.0674966887417219	0.149933774834437	-0.888211920529802	-0.788079470198675	-0.337483443708608				0.431788079470199	-0.238834437086093	-0.804238410596027	0.0203973509933773	0.437615894039735	0.645298013245032			
18	360	-0.280158940397351	0.0987549668874172	-0.935523178807947	0.0333774834437086	0.415364238410596	-0.904900662251656				0.960953642384106	0.0317880794701987	0.285139072847682	0.433907284768212	-0.252185430463576	0.25403973509934				-0.234172185430464	-0.145271523178808	-0.87194701986755	-0.552582781456954	-0.973509933774833	-0.48026490066225				0.464529801324503	-0.144529801324503	-0.853721854304636	-0.597086092715232	-0.9364238410596	1.62437086092715				0.948026490066225	0.0674966887417219	0.133933774834437	-1.4482119205298	-0.508079470198675	-0.617483443708608				0.415788079470199	-0.238834437086093	-0.804238410596027	0.300397350993377	-0.122384105960265	0.925298013245032			
19	380	-0.264158940397351	0.0987549668874172	-0.935523178807947	-0.526622516556291	-0.424635761589404	-0.904900662251656				0.944953642384106	0.0477880794701987	0.301139072847682	-0.126092715231788	1.98781456953642	-0.585960264900661				-0.234172185430464	-0.145271523178808	-0.87194701986755	-0.272582781456954	-0.693509933774834	0.35973509933775				0.464529801324503	-0.144529801324503	-0.837721854304636	-0.0370860927152318	-1.2164238410596	0.224370860927152				0.964026490066225	0.0674966887417219	0.149933774834437	-0.608211920529802	-0.788079470198675	0.502516556291392				0.431788079470199	-0.238834437086093	-0.804238410596027	-0.259602649006623	0.437615894039735	0.645298013245032			
20	400	-0.280158940397351	0.0987549668874172	-0.935523178807947	0.313377483443709	-0.704635761589404	-0.344900662251656				0.960953642384106	0.0317880794701987	0.285139072847682	0.153907284768212	2.26781456953642	-1.14596026490066				-0.234172185430464	-0.145271523178808	-0.88794701986755	-0.552582781456954	0.426490066225167	0.35973509933775				0.464529801324503	-0.144529801324503	-0.853721854304636	-1.15708609271523	-2.3364238410596	-0.335629139072848				0.948026490066225	0.0674966887417219	0.149933774834437	-0.888211920529802	0.331920529801325	0.502516556291392				0.431788079470199	-0.238834437086093	-0.804238410596027	0.580397350993377	0.157615894039735	0.365298013245032			
21	420	-0.280158940397351	0.0827549668874172	-0.919523178807947	-0.806622516556291	-0.144635761589404	-0.624900662251656				0.960953642384106	0.0317880794701987	0.301139072847682	-0.406092715231788	1.98781456953642	-0.86596026490066				-0.218172185430464	-0.145271523178808	-0.88794701986755	-0.272582781456954	0.146490066225167	-0.20026490066225				0.448529801324503	-0.160529801324503	-0.837721854304636	-1.99708609271523	-1.7764238410596	-0.895629139072848				0.948026490066225	0.0834966887417219	0.149933774834437	-1.7282119205298	0.891920529801325	-1.17748344370861				0.431788079470199	-0.238834437086093	-0.820238410596026	1.42039735099338	3.79761589403974	0.925298013245032			
22	440	-0.280158940397351	0.0987549668874172	-0.935523178807947	0.593377483443709	0.135364238410596	-1.18490066225166				0.976953642384106	0.0317880794701987	0.301139072847682	-0.406092715231788	0.307814569536424	-0.0259602649006601				-0.234172185430464	-0.145271523178808	-0.88794701986755	-0.272582781456954	-0.693509933774834	0.35973509933775				0.448529801324503	-0.128529801324503	-0.821721854304636	-2.83708609271523	-0.3764238410596	-0.335629139072848				0.948026490066225	0.0834966887417219	0.149933774834437	-2.2882119205298	-0.508079470198675	-1.17748344370861				0.431788079470199	-0.238834437086093	-0.820238410596026	-0.819602649006623	-0.402384105960265	1.20529801324503			
23	460	-0.264158940397351	0.0987549668874172	-0.935523178807947	-0.806622516556291	-0.424635761589404	-0.344900662251656				0.960953642384106	0.0317880794701987	0.301139072847682	0.993907284768212	0.0278145695364242	0.53403973509934				-0.234172185430464	-0.145271523178808	-0.88794701986755	0.287417218543046	-0.133509933774833	0.0797350993377501				0.464529801324503	-0.128529801324503	-0.837721854304636	-0.0370860927152318	1.0235761589404	1.34437086092715				0.948026490066225	0.0674966887417219	0.149933774834437	-1.4482119205298	0.0519205298013249	-0.617483443708608				0.431788079470199	-0.238834437086093	-0.820238410596026	-1.65960264900662	0.997615894039735	0.365298013245032			
24	480	-0.264158940397351	0.0987549668874172	-0.935523178807947	-0.526622516556291	-0.144635761589404	-0.904900662251656				0.944953642384106	0.0317880794701987	0.317139072847682	0.993907284768212	1.98781456953642	0.53403973509934				-0.234172185430464	-0.129271523178808	-0.87194701986755	-0.832582781456954	0.706490066225167	0.0797350993377501				0.448529801324503	-0.128529801324503	-0.837721854304636	0.242913907284768	1.3035761589404	0.504370860927152				0.964026490066225	0.0834966887417219	0.149933774834437	-1.4482119205298	-1.06807947019868	-0.617483443708608				0.431788079470199	-0.238834437086093	-0.820238410596026	-1.09960264900662	2.95761589403974	0.925298013245032			
25	500	-0.264158940397351	0.0987549668874172	-0.935523178807947	0.0333774834437086	-0.144635761589404	-0.904900662251656				0.960953642384106	0.0317880794701987	0.301139072847682	0.713907284768212	1.70781456953642	-0.30596026490066				-0.218172185430464	-0.145271523178808	-0.87194701986755	0.287417218543046	0.146490066225167	-0.76026490066225				0.448529801324503	-0.144529801324503	-0.837721854304636	-0.597086092715232	2.9835761589404	0.504370860927152				0.948026490066225	0.0834966887417219	0.133933774834437	-1.7282119205298	-0.228079470198675	0.222516556291392				0.415788079470199	-0.238834437086093	-0.820238410596026	-1.09960264900662	3.23761589403974	0.0852980132450323			
26	520	-0.264158940397351	0.0827549668874172	-0.935523178807947	0.0333774834437086	-0.144635761589404	-0.624900662251656				0.960953642384106	0.0317880794701987	0.301139072847682	-0.126092715231788	-0.252185430463576	-0.30596026490066				-0.234172185430464	-0.129271523178808	-0.88794701986755	0.00741721854304636	-0.133509933774833	0.0797350993377501				0.448529801324503	-0.144529801324503	-0.837721854304636	-0.317086092715232	3.5435761589404	0.224370860927152				0.948026490066225	0.0674966887417219	0.133933774834437	-1.7282119205298	1.17192052980133	-0.0574834437086077				0.431788079470199	-0.238834437086093	-0.804238410596027	-1.09960264900662	2.11761589403974	1.20529801324503			
27	540	-0.264158940397351	0.0827549668874172	-0.935523178807947	0.873377483443709	-0.144635761589404	-1.18490066225166				0.944953642384106	0.0317880794701987	0.301139072847682	-1.24609271523179	0.0278145695364242	-0.86596026490066				-0.218172185430464	-0.145271523178808	-0.85594701986755	0.287417218543046	-0.693509933774834	-0.48026490066225				0.464529801324503	-0.144529801324503	-0.805721854304636	-0.0370860927152318	3.2635761589404	0.224370860927152				0.948026490066225	0.0674966887417219	0.149933774834437	-1.7282119205298	0.611920529801325	-0.617483443708608				0.431788079470199	-0.238834437086093	-0.804238410596027	-1.65960264900662	2.95761589403974	1.48529801324503			
28	560	-0.264158940397351	0.0827549668874172	-0.935523178807947	-0.246622516556291	-0.144635761589404	-0.624900662251656				0.960953642384106	0.0317880794701987	0.301139072847682	-1.52609271523179	1.42781456953642	-1.14596026490066				-0.234172185430464	-0.145271523178808	-0.87194701986755	-0.832582781456954	0.426490066225167	0.0797350993377501				0.464529801324503	-0.144529801324503	-0.837721854304636	-0.597086092715232	4.3835761589404	-0.0556291390728476				0.948026490066225	0.0674966887417219	0.149933774834437	-2.0082119205298	1.45192052980132	-0.897483443708608				0.431788079470199	-0.222834437086093	-0.788238410596027	-2.77960264900662	3.79761589403974	0.365298013245032			
29	580	-0.264158940397351	0.0987549668874172	-0.935523178807947	-0.806622516556291	-0.424635761589404	-0.624900662251656				0.960953642384106	0.0157880794701987	0.317139072847682	-0.406092715231788	2.54781456953642	-0.30596026490066				-0.234172185430464	-0.145271523178808	-0.88794701986755	-0.832582781456954	-0.413509933774833	-0.20026490066225				0.448529801324503	-0.144529801324503	-0.837721854304636	-0.597086092715232	5.7835761589404	0.784370860927152				0.948026490066225	0.0834966887417219	0.133933774834437	-2.2882119205298	1.45192052980132	-0.617483443708608				0.431788079470199	-0.238834437086093	-0.820238410596026	-0.539602649006623	5.19761589403974	-4.95470198675497			
30	600	-0.264158940397351	0.0827549668874172	-0.919523178807947	-0.246622516556291	0.415364238410596	-0.624900662251656				0.960953642384106	0.0317880794701987	0.285139072847682	-1.24609271523179	0.0278145695364242	-0.30596026490066				-0.234172185430464	-0.129271523178808	-0.87194701986755	-1.39258278145695	-0.693509933774834	-0.20026490066225				0.448529801324503	-0.144529801324503	-0.837721854304636	-1.43708609271523	6.0635761589404	1.34437086092715				0.948026490066225	0.0674966887417219	0.133933774834437	-2.2882119205298	2.01192052980133	-1.17748344370861				0.431788079470199	-0.238834437086093	-0.804238410596027	-0.539602649006623	5.47761589403974	-0.474701986754968			
31	620	-0.280158940397351	0.0827549668874172	-0.919523178807947	-0.246622516556291	-0.144635761589404	-0.904900662251656				0.960953642384106	0.0477880794701987	0.269139072847682	-2.64609271523179	0.0278145695364242	-1.42596026490066				-0.234172185430464	-0.129271523178808	-0.88794701986755	0.567417218543046	-0.693509933774834	0.35973509933775				0.448529801324503	-0.144529801324503	-0.837721854304636	0.802913907284768	6.0635761589404	1.90437086092715				0.964026490066225	0.0674966887417219	0.133933774834437	-2.8482119205298	1.73192052980133	-0.897483443708608				0.431788079470199	-0.254834437086093	-0.804238410596027	-1.65960264900662	4.63761589403974	-0.194701986754968			
32	640	-0.264158940397351	0.0827549668874172	-0.935523178807947	-1.36662251655629	-0.984635761589404	-0.624900662251656				0.960953642384106	0.0477880794701987	0.269139072847682	-4.32609271523179	-1.65218543046358	-2.26596026490066				-0.250172185430464	-0.129271523178808	-0.87194701986755	-0.272582781456954	-0.413509933774833	0.35973509933775				0.448529801324503	-0.160529801324503	-0.853721854304636	0.522913907284768	6.0635761589404	2.74437086092715				0.948026490066225	0.0674966887417219	0.149933774834437	-1.4482119205298	4.81192052980133	-0.337483443708608				0.431788079470199	-0.238834437086093	-0.804238410596027	-3.61960264900662	5.75761589403974	0.0852980132450323			
33	660	-0.280158940397351	0.0987549668874172	-0.935523178807947	-1.64662251655629	-0.144635761589404	0.215099337748344				0.976953642384106	0.0317880794701987	0.269139072847682	-2.92609271523179	-3.33218543046358	-1.98596026490066				-0.234172185430464	-0.129271523178808	-0.88794701986755	-0.832582781456954	0.426490066225167	0.91973509933775				0.448529801324503	-0.160529801324503	-0.853721854304636	0.802913907284768	5.7835761589404	3.02437086092715				0.964026490066225	0.0674966887417219	0.117933774834437	-3.9682119205298	2.57192052980133	-0.0574834437086077				0.431788079470199	-0.222834437086093	-0.820238410596026	-3.89960264900662	8.27761589403974	1.20529801324503			
34	680	-0.280158940397351	0.0987549668874172	-0.919523178807947	-1.92662251655629	0.135364238410596	-0.344900662251656				0.960953642384106	0.0157880794701987	0.269139072847682	-5.44609271523179	-2.49218543046358	-2.82596026490066				-0.250172185430464	-0.129271523178808	-0.87194701986755	-0.272582781456954	0.706490066225167	1.19973509933775				0.448529801324503	-0.160529801324503	-0.853721854304636	-1.15708609271523	5.7835761589404	1.90437086092715				0.964026490066225	0.0834966887417219	0.101933774834437	-7.0482119205298	4.25192052980133	-2.29748344370861				0.415788079470199	-0.238834437086093	-0.820238410596026	-2.77960264900662	8.83761589403974	1.20529801324503			
35	700	-0.280158940397351	0.0667549668874172	-0.919523178807947	-2.20662251655629	0.135364238410596	0.775099337748344				0.960953642384106	0.0157880794701987	0.285139072847682	-10.4860927152318	0.867814569536424	-3.38596026490066				-0.234172185430464	-0.145271523178808	-0.87194701986755	0.847417218543046	1.54649006622517	-0.20026490066225				0.448529801324503	-0.144529801324503	-0.853721854304636	-2.83708609271523	6.6235761589404	2.46437086092715				0.948026490066225	0.0674966887417219	0.133933774834437	-6.7682119205298	5.93192052980133	-2.01748344370861				0.415788079470199	-0.254834437086093	-0.820238410596026	-3.33960264900662	9.67761589403974	1.48529801324503			
36	720	-0.280158940397351	0.0827549668874172	-0.935523178807947	-3.60662251655629	0.415364238410596	0.215099337748344				0.976953642384106	0.0477880794701987	0.269139072847682	-9.64609271523179	-3.33218543046358	-3.94596026490066				-0.250172185430464	-0.129271523178808	-0.88794701986755	1.68741721854305	0.426490066225167	-1.04026490066225				0.432529801324503	-0.144529801324503	-0.853721854304636	-3.11708609271523	7.7435761589404	1.34437086092715				0.964026490066225	0.0514966887417219	0.101933774834437	-7.0482119205298	4.25192052980133	-2.29748344370861				0.399788079470199	-0.254834437086093	-0.820238410596026	-6.97960264900662	10.7976158940397	4.00529801324503			
37	740	-0.280158940397351	0.0827549668874172	-0.919523178807947	-4.44662251655629	0.415364238410596	0.775099337748344				0.960953642384106	0.0477880794701987	0.253139072847682	-7.12609271523179	-4.73218543046358	-2.82596026490066				-0.250172185430464	-0.129271523178808	-0.87194701986755	1.40741721854305	0.986490066225167	-1.04026490066225				0.416529801324503	-0.144529801324503	-0.837721854304636	-5.63708609271523	6.9035761589404	0.224370860927152				0.948026490066225	0.0674966887417219	0.101933774834437	-4.2482119205298	5.37192052980133	-0.897483443708608				0.399788079470199	-0.238834437086093	-0.836238410596026	-11.7396026490066	13.5976158940397	7.36529801324503			
38	760	-0.280158940397351	0.0987549668874172	-0.935523178807947	-5.28662251655629	0.695364238410596	1.33509933774834				0.944953642384106	-0.000211920529801304	0.237139072847682	-7.12609271523179	-1.93218543046358	-2.54596026490066				-0.234172185430464	-0.129271523178808	-0.88794701986755	1.68741721854305	1.26649006622517	-0.48026490066225				0.416529801324503	-0.144529801324503	-0.853721854304636	-5.63708609271523	7.7435761589404	-0.615629139072848				0.932026490066225	0.0834966887417219	0.0859337748344371	-6.7682119205298	8.17192052980133	-0.897483443708608				0.399788079470199	-0.206834437086093	-0.836238410596026	-10.6196026490066	14.4376158940397	8.48529801324503			
39	780	-0.264158940397351	0.0987549668874172	-0.935523178807947	-5.00662251655629	0.695364238410596	2.45509933774835				0.912953642384106	0.0477880794701987	0.253139072847682	-9.64609271523179	7.86781456953642	-4.22596026490066				-0.202172185430464	-0.145271523178808	-0.87194701986755	2.80741721854305	-0.413509933774833	-1.60026490066225				0.432529801324503	-0.128529801324503	-0.853721854304636	-7.31708609271523	9.1435761589404	-2.01562913907285				0.948026490066225	0.0834966887417219	0.0859337748344371	-5.3682119205298	8.45192052980133	-1.17748344370861				0.383788079470199	-0.222834437086093	-0.836238410596026	-8.09960264900662	15.8376158940397	9.04529801324503			
40	800	-0.248158940397351	0.0987549668874172	-0.935523178807947	-3.88662251655629	0.415364238410596	3.29509933774834				0.912953642384106	0.0797880794701987	0.253139072847682	-6.84609271523179	13.7478145695364	-1.42596026490066				-0.202172185430464	-0.145271523178808	-0.85594701986755	4.76741721854305	-1.53350993377483	-2.16026490066225				0.432529801324503	-0.144529801324503	-0.837721854304636	-7.87708609271523	10.8235761589404	-3.69562913907285				0.932026490066225	0.0834966887417219	0.101933774834437	-4.5282119205298	9.57192052980133	-0.337483443708608				0.367788079470199	-0.222834437086093	-0.836238410596026	-7.81960264900662	17.5176158940397	11.565298013245			
41	820	-0.248158940397351	0.0827549668874172	-0.935523178807947	-4.44662251655629	-0.144635761589404	3.29509933774834				0.912953642384106	0.0317880794701987	0.253139072847682	-5.44609271523179	17.6678145695364	1.93403973509934				-0.234172185430464	-0.145271523178808	-0.85594701986755	2.80741721854305	-1.81350993377483	-2.44026490066225				0.416529801324503	-0.128529801324503	-0.853721854304636	-9.27708609271523	11.9435761589404	-4.81562913907285				0.916026490066225	0.0834966887417219	0.0699337748344371	-5.3682119205298	10.6919205298013	1.34251655629139				0.351788079470199	-0.206834437086093	-0.852238410596026	-10.8996026490066	19.4776158940397	15.765298013245			
42	840	-0.264158940397351	0.0827549668874172	-0.935523178807947	-5.84662251655629	-1.2646357615894	3.57509933774835				0.944953642384106	0.0317880794701987	0.269139072847682	-2.08609271523179	23.8278145695364	4.17403973509934				-0.234172185430464	-0.145271523178808	-0.88794701986755	0.00741721854304636	-0.973509933774833	-2.16026490066225				0.384529801324503	-0.144529801324503	-0.853721854304636	-10.6770860927152	11.6635761589404	-6.77562913907285				0.900026490066225	0.0834966887417219	0.0379337748344371	-2.2882119205298	12.6519205298013	1.62251655629139				0.335788079470199	-0.190834437086093	-0.836238410596026	-7.53960264900662	20.3176158940397	18.005298013245			
43	860	-0.264158940397351	0.0987549668874172	-0.951523178807947	-6.40662251655629	-0.984635761589404	3.57509933774835				0.944953642384106	-0.000211920529801304	0.221139072847682	0.993907284768212	25.5078145695364	5.57403973509934				-0.186172185430464	-0.145271523178808	-0.90394701986755	3.92741721854305	0.986490066225167	-3.56026490066225				0.384529801324503	-0.144529801324503	-0.853721854304636	-6.47708609271523	10.8235761589404	-9.01562913907285				0.900026490066225	0.0674966887417219	0.0539337748344371	-1.1682119205298	18.5319205298013	0.782516556291392				0.335788079470199	-0.190834437086093	-0.836238410596026	-6.69960264900662	24.7976158940397	19.685298013245			
44	880	-0.248158940397351	0.114754966887417	-0.935523178807947	-6.96662251655629	-0.144635761589404	4.13509933774834				0.912953642384106	0.0317880794701987	0.237139072847682	-1.52609271523179	32.7878145695364	3.89403973509934				-0.218172185430464	-0.129271523178808	-0.83994701986755	6.16741721854305	-1.81350993377483	-2.72026490066225				0.368529801324503	-0.144529801324503	-0.869721854304636	-9.27708609271523	9.7035761589404	-12.3756291390728				0.916026490066225	0.0674966887417219	0.0699337748344371	0.511788079470198	24.9719205298013	1.90251655629139				0.351788079470199	-0.206834437086093	-0.836238410596026	0.580397350993377	25.3576158940397	20.805298013245			
45	900	-0.264158940397351	0.0987549668874172	-0.903523178807947	-6.12662251655629	-0.984635761589404	4.13509933774834				0.928953642384106	0.0637880794701987	0.285139072847682	-11.6060927152318	30.5478145695364	2.49403973509934				-0.266172185430464	-0.129271523178808	-0.85594701986755	6.44741721854305	-0.693509933774834	-1.04026490066225				0.384529801324503	-0.128529801324503	-0.885721854304636	-11.7970860927152	11.6635761589404	-16.2956291390729				0.964026490066225	0.0514966887417219	0.0539337748344371	0.231788079470198	22.4519205298013	3.02251655629139				0.335788079470199	-0.238834437086093	-0.820238410596026	0.300397350993377	25.3576158940397	23.605298013245			
46	920	-0.296158940397351	0.114754966887417	-0.903523178807947	-6.40662251655629	-2.1046357615894	3.01509933774834				0.976953642384106	0.0797880794701987	0.349139072847682	-7.68609271523179	37.5478145695364	9.77403973509934				-0.282172185430464	-0.161271523178808	-0.85594701986755	5.88741721854305	0.986490066225167	-1.60026490066225				0.384529801324503	-0.144529801324503	-0.901721854304636	-7.59708609271523	16.4235761589404	-21.3356291390729				0.948026490066225	0.0514966887417219	0.0379337748344371	0.791788079470198	23.2919205298013	1.62251655629139				0.335788079470199	-0.222834437086093	-0.788238410596027	-10.3396026490066	32.6376158940397	30.885298013245			
47	940	-0.312158940397351	0.130754966887417	-0.919523178807947	-8.64662251655629	-1.8246357615894	1.89509933774834				0.928953642384106	0.0477880794701987	0.285139072847682	-7.12609271523179	27.4678145695364	11.4540397350993				-0.266172185430464	-0.177271523178808	-0.87194701986755	4.20741721854305	1.82649006622517	-1.32026490066225				0.368529801324503	-0.176529801324503	-0.901721854304636	-12.3570860927152	16.1435761589404	-24.4156291390728				0.932026490066225	0.0354966887417219	0.0219337748344371	0.791788079470198	25.8119205298013	-1.17748344370861				0.319788079470199	-0.206834437086093	-0.804238410596027	-12.0196026490066	41.0376158940397	33.965298013245			
48	960	0	0	0	0	0	0				0	0	0	0	0	0				0	0	0	0	0	0				0	0	0	0	0	0				0.900026490066225	0.0514966887417219	0.0539337748344371	2.7517880794702	31.9719205298013	-3.41748344370861				0.319788079470199	-0.190834437086093	-0.820238410596026	-6.69960264900662	44.9576158940397	37.325298013245			
49	980	-0.344158940397351	0.146754966887417	-0.903523178807947	-10.6066225165563	3.4953642384106	2.17509933774834				1.00895364238411	0.0157880794701987	0.269139072847682	-8.24609271523179	18.5078145695364	12.5740397350993				-0.282172185430464	-0.145271523178808	-0.88794701986755	5.32741721854305	5.74649006622517	0.63973509933775				0.384529801324503	-0.128529801324503	-0.853721854304636	-28.0370860927152	19.7835761589404	-28.3356291390729				0.916026490066225	0.0514966887417219	0.0859337748344371	0.231788079470198	39.8119205298013	-6.49748344370861				0.335788079470199	-0.174834437086093	-0.804238410596027	3.10039735099338	48.0376158940397	41.245298013245			
50	1000	-0.312158940397351	0.146754966887417	-0.887523178807947	-12.0066225165563	4.0553642384106	2.17509933774834				0.960953642384106	0.0477880794701987	0.301139072847682	-20.5660927152318	37.5478145695364	8.37403973509934				-0.266172185430464	-0.145271523178808	-0.85594701986755	7.00741721854305	7.14649006622517	0.63973509933775				0.384529801324503	-0.0965298013245033	-0.869721854304636	-22.4370860927152	24.5435761589404	-29.4556291390729				0.964026490066225	0.0674966887417219	0.101933774834437	-1.4482119205298	46.2519205298013	-7.61748344370861				0.383788079470199	-0.190834437086093	-0.820238410596026	1.70039735099338	54.4776158940397	42.085298013245			
51	1020	-0.280158940397351	0.146754966887417	-0.903523178807947	-11.7266225165563	2.9353642384106	1.33509933774834				0.880953642384106	0.0317880794701987	0.333139072847682	-19.1660927152318	48.1878145695364	12.5740397350993				-0.234172185430464	-0.145271523178808	-0.85594701986755	8.96741721854305	7.14649006622517	1.75973509933775				0.416529801324503	-0.112529801324503	-0.885721854304636	-14.0370860927152	30.7035761589404	-28.8956291390729				0.980026490066225	0.0674966887417219	0.117933774834437	1.6317880794702	45.9719205298013	-7.05748344370861				0.415788079470199	-0.190834437086093	-0.820238410596026	4.78039735099338	61.1976158940397	39.285298013245			
52	1040	-0.264158940397351	0.162754966887417	-0.935523178807947	-14.8066225165563	2.0953642384106	2.17509933774834				0.912953642384106	0.0317880794701987	0.269139072847682	-16.9260927152318	53.7878145695364	13.1340397350993				-0.234172185430464	-0.145271523178808	-0.87194701986755	9.24741721854305	7.42649006622517	2.03973509933775				0.432529801324503	-0.112529801324503	-0.853721854304636	-11.7970860927152	37.9835761589404	-25.2556291390729				0.964026490066225	0.0834966887417219	0.117933774834437	5.8317880794702	43.4519205298013	-7.33748344370861				0.495788079470199	-0.222834437086093	-0.772238410596026	15.7003973509934	59.2376158940397	38.725298013245			
53	1060	-0.296158940397351	0.146754966887417	-0.951523178807947	-16.7666225165563	2.6553642384106	2.73509933774834				0.960953642384106	0.0157880794701987	0.285139072847682	-21.6860927152318	56.0278145695364	13.1340397350993				-0.250172185430464	-0.145271523178808	-0.88794701986755	8.68741721854305	6.58649006622517	2.03973509933775				0.464529801324503	-0.0645298013245033	-0.821721854304636	-16.5570860927152	39.6635761589404	-23.0156291390729				0.948026490066225	0.0674966887417219	0.165933774834437	6.1117880794702	43.1719205298013	-7.33748344370861				0.495788079470199	-0.222834437086093	-0.756238410596026	13.4603973509934	58.9576158940397	38.725298013245			
54	1080	-0.360158940397351	0.162754966887417	-0.919523178807947	-17.6066225165563	4.6153642384106	4.69509933774834				0.944953642384106	0.111788079470199	0.429139072847682	-29.2460927152318	37.5478145695364	8.37403973509934				-0.282172185430464	-0.113271523178808	-0.85594701986755	6.16741721854305	16.1064900662252	2.59973509933775				0.480529801324503	-0.0645298013245033	-0.837721854304636	-11.2370860927152	38.2635761589404	-21.3356291390729				0.948026490066225	0.0994966887417219	0.245933774834437	4.9917880794702	44.2919205298013	-9.01748344370861				0.495788079470199	-0.270834437086093	-0.756238410596026	1.70039735099338	61.1976158940397	38.165298013245			
55	1100	-0.328158940397351	0.00275496688741723	-0.967523178807947	-13.9666225165563	24.2153642384106	0.495099337748344				0.944953642384106	0.0157880794701987	0.429139072847682	-14.4060927152318	42.3078145695364	14.8140397350993				-0.186172185430464	-0.0972715231788079	-0.79194701986755	-64.112582781457	106.826490066225	5.39973509933775				0.480529801324503	-0.0965298013245033	-0.869721854304636	-8.71708609271523	43.0235761589404	-23.5756291390728				0.932026490066225	0.0674966887417219	0.229933774834437	5.5517880794702	42.8919205298013	-10.9774834437086				0.511788079470199	-0.286834437086093	-0.740238410596026	-0.539602649006623	64.8376158940397	38.445298013245			
56	1120	-0.280158940397351	0.226754966887417	-0.839523178807947	27.4733774834437	6.5753642384106	-0.904900662251656				0.960953642384106	-0.0322119205298013	0.381139072847682	-14.9660927152318	50.7078145695364	15.0940397350993				-0.218172185430464	-0.0812715231788079	-1.03194701986755	-10.352582781457	56.1464900662252	4.83973509933775				0.480529801324503	-0.0805298013245033	-0.837721854304636	-19.3570860927152	42.7435761589404	-23.8556291390729				0.884026490066225	0.0674966887417219	0.261933774834437	8.3517880794702	47.6519205298013	-12.9374834437086				0.527788079470199	-0.286834437086093	-0.724238410596026	8.42039735099338	61.7576158940397	39.285298013245			
57	1140	-0.312158940397351	0.242754966887417	-0.935523178807947	11.2333774834437	1.8153642384106	5.81509933774834				0.848953642384106	-0.000211920529801304	0.493139072847682	-26.4460927152318	55.1878145695364	9.21403973509934				-0.170172185430464	-0.161271523178808	-0.96794701986755	-5.87258278145695	42.7064900662252	6.79973509933775				0.512529801324503	-0.0165298013245033	-0.789721854304636	-23.5570860927152	43.8635761589404	-24.1356291390729				0.932026490066225	0.0674966887417219	0.309933774834437	7.5117880794702	52.1319205298013	-16.0174834437086				0.527788079470199	-0.286834437086093	-0.708238410596026	5.62039735099338	55.8776158940397	41.245298013245			
58	1160	-0.280158940397351	0.162754966887417	-0.919523178807947	0.313377483443709	8.2553642384106	13.9350993377483				0.800953642384106	-0.0482119205298013	0.509139072847682	-14.1260927152318	64.9878145695364	16.4940397350993				-0.138172185430464	-0.113271523178808	-0.95194701986755	-1.11258278145695	37.6664900662252	3.43973509933775				0.592529801324503	-0.0165298013245033	-0.853721854304636	-5.63708609271523	47.7835761589404	-23.2956291390729				0.964026490066225	0.0674966887417219	0.341933774834437	10.3117880794702	51.2919205298013	-18.5374834437086				0.559788079470199	-0.302834437086093	-0.724238410596026	0.300397350993377	54.4776158940397	39.565298013245			
59	1180	-0.264158940397351	0.114754966887417	-0.951523178807947	0.313377483443709	5.7353642384106	19.5350993377483				0.912953642384106	-0.0322119205298013	0.413139072847682	-5.72609271523179	64.4278145695364	15.6540397350993				-0.170172185430464	-0.0652715231788079	-0.91994701986755	16.807417218543	44.9464900662252	-0.76026490066225				0.624529801324503	-0.0325298013245033	-0.805721854304636	-3.95708609271523	51.1435761589404	-18.5356291390728				0.948026490066225	0.0994966887417219	0.357933774834437	13.3917880794702	44.5719205298013	-17.6974834437086				0.623788079470199	-0.318834437086093	-0.708238410596026	3.38039735099338	56.9976158940397	38.165298013245			
60	1200	-0.328158940397351	0.0187549668874172	-1.04752317880795	-13.4066225165563	6.0153642384106	26.8150993377483				0.912953642384106	-0.000211920529801304	0.445139072847682	-16.0860927152318	48.4678145695364	12.0140397350993				-0.186172185430464	-0.145271523178808	-0.95194701986755	6.72741721854305	40.1864900662252	-27.0802649006623				0.672529801324503	-0.0805298013245033	-0.789721854304636	1.92291390728477	46.1035761589404	-14.0556291390728				0.964026490066225	0.0834966887417219	0.293933774834437	16.4717880794702	43.7319205298013	-20.7774834437086				0.655788079470199	-0.334834437086093	-0.708238410596026	16.5403973509934	54.1976158940397	33.125298013245			
61	1220	-0.360158940397351	0.194754966887417	-1.11152317880795	-29.9266225165563	6.8553642384106	30.4550993377483				0.864953642384106	0.0157880794701987	0.557139072847682	-18.3260927152318	45.3878145695364	13.4140397350993				-0.122172185430464	-0.145271523178808	-1.01594701986755	59.3674172185431	25.9064900662252	-11.4002649006623				0.768529801324503	-0.0645298013245033	-0.837721854304636	4.72291390728477	44.1435761589404	-12.6556291390728				0.980026490066225	0.131496688741722	0.389933774834437	17.0317880794702	50.7319205298013	-26.0974834437086				0.671788079470199	-0.366834437086093	-0.692238410596026	19.9003973509934	51.1176158940397	28.365298013245			
62	1240	-0.296158940397351	0.258754966887417	-0.967523178807947	-32.1666225165563	16.6553642384106	36.8950993377483				0.944953642384106	-0.0482119205298013	0.685139072847682	-4.04609271523179	63.8678145695364	19.0140397350993				0.309827814569536	-0.113271523178808	-0.93594701986755	73.647417218543	23.1064900662252	-17.5602649006623				0.880529801324503	-0.128529801324503	-0.805721854304636	-8.99708609271523	29.5835761589404	-9.85562913907285				0.900026490066225	0.163496688741722	0.469933774834437	16.1917880794702	40.3719205298013	-21.3374834437086				0.623788079470199	-0.478834437086093	-0.740238410596026	27.4603973509934	47.1976158940397	25.285298013245			
63	1260	-0.280158940397351	0.146754966887417	-0.871523178807947	-48.1266225165563	28.1353642384106	36.3350993377484				0.864953642384106	-0.144211920529801	0.589139072847682	10.5139072847682	54.0678145695364	19.8540397350993				0.773827814569536	-0.225271523178808	-1.07994701986755	10.087417218543	11.3464900662252	-6.64026490066225				0.896529801324503	-0.112529801324503	-0.821721854304636	-34.7570860927152	10.8235761589404	-8.17562913907285				0.964026490066225	0.179496688741722	0.469933774834437	17.3117880794702	40.6519205298013	-16.5774834437086				0.687788079470199	-0.510834437086093	-0.660238410596027	29.7003973509934	51.1176158940397	27.525298013245			
64	1280	-0.392158940397351	0.258754966887417	-1.15952317880795	-56.8066225165563	30.6553642384106	35.7750993377484				0.912953642384106	-0.176211920529801	0.669139072847682	10.2339072847682	53.5078145695364	19.2940397350993				-0.170172185430464	-0.241271523178808	-1.11194701986755	25.4874172185431	55.8664900662252	-31.0002649006623				0.832529801324503	0.0154701986754967	-0.773721854304636	-47.0770860927152	8.5835761589404	-5.37562913907285				1.01202649006623	0.131496688741722	0.533933774834437	29.0717880794702	44.8519205298013	-16.0174834437086				0.719788079470199	-0.510834437086093	-0.660238410596027	5.06039735099338	51.9576158940397	38.165298013245			
65	1300	-0.344158940397351	0.210754966887417	-0.887523178807947	-35.8066225165563	37.0953642384106	32.4150993377484				0.976953642384106	-0.192211920529801	0.893139072847682	-1.52609271523179	65.2678145695364	13.1340397350993				0.277827814569536	-0.369271523178808	-1.04794701986755	42.287417218543	28.4264900662252	-20.6402649006623				0.848529801324503	0.0794701986754967	-0.725721854304636	-44.2770860927152	13.0635761589404	-2.85562913907285				1.02802649006623	0.115496688741722	0.661933774834437	30.1917880794702	40.6519205298013	-18.8174834437086				0.687788079470199	-0.558834437086093	-0.644238410596026	9.54039735099338	41.5976158940397	40.405298013245			
66	1320	-0.328158940397351	0.162754966887417	-1.01552317880795	-55.6866225165563	39.8953642384106	31.5750993377483				0.992953642384106	-0.208211920529801	1.08513907284768	0.713907284768212	91.8678145695364	12.2940397350993				-0.266172185430464	-0.337271523178808	-1.07994701986755	9.80741721854305	9.94649006622517	-6.92026490066225				0.848529801324503	0.0794701986754967	-0.789721854304636	-19.9170860927152	21.1835761589404	1.62437086092715				1.04402649006623	0.131496688741722	0.741933774834437	33.5517880794702	38.6919205298013	-22.1774834437086				0.751788079470199	-0.638834437086093	-0.628238410596026	14.3003973509934	44.3976158940397	23.045298013245			
67	1340	-0.216158940397351	0.402754966887417	-0.999523178807947	-34.4066225165563	46.8953642384106	29.8950993377483				1.00895364238411	-0.176211920529801	1.24513907284768	9.39390728476821	53.7878145695364	13.6940397350993				-0.138172185430464	-0.209271523178808	-1.06394701986755	-1.39258278145695	33.7464900662252	-10.8402649006623				0.880529801324503	0.0794701986754967	-0.853721854304636	2.20291390728477	41.0635761589404	4.70437086092715				1.07602649006623	0.243496688741722	0.837933774834437	29.3517880794702	47.6519205298013	-27.2174834437086				0.975788079470199	-0.654834437086093	-0.628238410596026	3.38039735099338	39.9176158940397	17.725298013245			
68	1360	-0.360158940397351	0.338754966887417	-1.06352317880795	-15.6466225165563	59.4953642384106	30.1750993377483				1.00895364238411	-0.192211920529801	0.973139072847682	21.1539072847682	29.4278145695364	10.6140397350993				-0.0741721854304636	-0.369271523178808	-1.01594701986755	57.6874172185431	14.1464900662252	5.95973509933775				0.992529801324503	0.143470198675497	-0.821721854304636	7.52291390728477	52.8235761589404	2.18437086092715				1.09202649006623	0.291496688741722	0.885933774834437	22.0717880794702	49.6119205298013	-27.2174834437086				1.0877880794702	-0.718834437086093	-0.580238410596026	12.3403973509934	35.1576158940397	8.48529801324503			
69	1380	-0.312158940397351	0.354754966887417	-0.967523178807947	-3.32662251655629	65.9353642384106	29.0550993377483				1.05695364238411	-0.144211920529801	0.925139072847682	19.7539072847682	21.8678145695364	5.57403973509934				-0.122172185430464	-0.433271523178808	-0.98394701986755	65.247417218543	11.6264900662252	7.63973509933775				1.1205298013245	0.143470198675497	-0.805721854304636	1.64291390728477	40.5035761589404	-3.69562913907285				1.12402649006623	0.259496688741722	0.869933774834437	19.8317880794702	41.4919205298013	-25.2574834437086				1.1037880794702	-0.702834437086093	-0.516238410596026	-0.539602649006623	39.9176158940397	-2.99470198675497			
70	1400	-0.280158940397351	0.450754966887417	-0.967523178807947	5.35337748344371	75.1753642384106	25.4150993377483				1.02495364238411	-0.128211920529801	0.877139072847682	25.0739072847682	-0.532185430463576	1.65403973509934				-0.0901721854304636	-0.481271523178808	-0.95194701986755	34.7274172185431	19.4664900662252	11.8397350993378				1.2165298013245	0.143470198675497	-0.837721854304636	-23.2770860927152	20.3435761589404	-7.05562913907285				1.12402649006623	0.355496688741722	0.821933774834437	9.1917880794702	27.4919205298013	-21.0574834437086				1.1197880794702	-0.702834437086093	-0.468238410596026	5.34039735099338	51.6776158940397	-9.99470198675497			
71	1420	-0.360158940397351	0.274754966887417	-0.951523178807947	14.8733774834437	83.5753642384106	25.1350993377483				0.992953642384106	-0.0482119205298013	0.893139072847682	33.4739072847682	-6.97218543046358	-5.62596026490066				-0.154172185430464	-0.321271523178808	-0.96794701986755	-37.512582781457	11.9064900662252	35.6397350993377				1.0885298013245	0.191470198675497	-0.757721854304636	-37.2770860927152	15.0235761589404	-9.85562913907285				1.07602649006623	0.371496688741722	0.773933774834437	-0.0482119205298018	13.2119205298013	-16.0174834437086				1.1197880794702	-0.718834437086093	-0.484238410596026	21.0203973509934	40.7576158940397	-16.434701986755			
72	1440	-0.200158940397351	0.306754966887417	-0.887523178807947	25.2333774834437	93.9353642384106	25.1350993377483				0.976953642384106	-0.0322119205298013	0.893139072847682	23.9539072847682	-11.1721854304636	-7.02596026490066				-0.618172185430464	0.0947284768211921	-0.82394701986755	-71.392582781457	40.7464900662252	15.1997350993378				0.944529801324503	0.255470198675497	-0.645721854304636	-28.3170860927152	18.1035761589404	-6.77562913907285				1.02802649006623	0.339496688741722	0.757933774834437	-1.7282119205298	0.0519205298013249	-14.8974834437086				1.0557880794702	-0.654834437086093	-0.500238410596026	11.2203973509934	32.3576158940397	-20.354701986755			
73	1460	-0.056158940397351	0.322754966887417	-0.999523178807947	30.2733774834437	90.0153642384106	26.2550993377483				1.04095364238411	0.0317880794701987	0.877139072847682	20.3139072847682	-31.0521854304636	-6.18596026490066				-0.0581721854304636	0.0307284768211921	-1.01594701986755	-5.59258278145695	76.8664900662252	-3.28026490066225				0.928529801324503	0.239470198675497	-0.661721854304636	-4.79708609271523	18.3835761589404	-3.13562913907285				1.02802649006623	0.307496688741722	0.741933774834437	1.9117880794702	1.45192052980132	-16.8574834437086				0.975788079470199	-0.638834437086093	-0.484238410596026	4.50039735099338	35.9976158940397	-19.794701986755			
74	1480	0.055841059602649	0.354754966887417	-0.967523178807947	33.9133774834437	93.0953642384106	27.3750993377483				0.992953642384106	0.0477880794701987	0.781139072847682	25.0739072847682	-59.8921854304636	-9.82596026490066				0.0538278145695364	-0.129271523178808	-0.99994701986755	8.40741721854305	80.5064900662252	-6.92026490066225				0.976529801324503	0.175470198675497	-0.757721854304636	16.4829139072848	24.5435761589404	1.62437086092715				1.06002649006623	0.339496688741722	0.757933774834437	-9.8482119205298	-10.0280794701987	-15.4574834437086				0.975788079470199	-0.638834437086093	-0.484238410596026	-5.29960264900662	34.0376158940397	-19.234701986755			
75	1500	0.103841059602649	0.338754966887417	-0.983523178807947	36.4333774834437	99.5353642384106	27.0950993377483				0.928953642384106	0.0477880794701987	0.749139072847682	27.0339072847682	-54.2921854304636	-12.6259602649007				0.133827814569536	-0.129271523178808	-1.04794701986755	12.047417218543	90.8664900662252	-13.6402649006623				1.0245298013245	0.0954701986754967	-0.805721854304636	20.6829139072848	29.0235761589404	2.46437086092715				1.04402649006623	0.371496688741722	0.629933774834437	-18.2482119205298	-25.7080794701987	-14.3374834437086				1.0237880794702	-0.574834437086093	-0.516238410596026	-18.4596026490066	33.1976158940397	-18.114701986755			
76	1520	0.087841059602649	0.306754966887417	-1.03152317880795	42.3133774834437	110.175364238411	27.9350993377483				0.912953642384106	-0.000211920529801304	0.813139072847682	14.1539072847682	-32.7321854304636	-8.70596026490066				0.197827814569536	-0.113271523178808	-1.04794701986755	-6.99258278145695	97.0264900662252	-16.1602649006623				1.0085298013245	0.111470198675497	-0.773721854304636	11.4429139072848	21.1835761589404	1.34437086092715				0.980026490066225	0.371496688741722	0.549933774834437	-9.2882119205298	-27.9480794701987	-15.1774834437086				0.975788079470199	-0.510834437086093	-0.532238410596027	-24.6196026490066	32.9176158940397	-17.274701986755			
77	1540	0.215841059602649	0.194754966887417	-0.951523178807947	48.4733774834437	112.695364238411	30.4550993377483				1.00895364238411	0.0797880794701987	0.893139072847682	13.5939072847682	-22.0921854304636	-14.8659602649007				0.261827814569536	-0.113271523178808	-0.98394701986755	-13.152582781457	101.226490066225	-14.2002649006623				0.928529801324503	0.159470198675497	-0.757721854304636	-0.0370860927152318	10.5435761589404	-1.45562913907285				0.948026490066225	0.371496688741722	0.613933774834437	1.6317880794702	-17.3080794701987	-17.6974834437086				0.943788079470199	-0.462834437086093	-0.500238410596026	-33.0196026490066	37.9576158940397	-15.034701986755			
78	1560	0.327841059602649	0.290754966887417	-1.06352317880795	44.2733774834437	100.935364238411	32.9750993377484				1.04095364238411	0.0317880794701987	0.813139072847682	15.8339072847682	-34.6921854304636	-18.7859602649007				0.357827814569536	-0.145271523178808	-1.01594701986755	-5.87258278145695	101.226490066225	-11.1202649006623				0.896529801324503	0.159470198675497	-0.677721854304636	2.20291390728477	10.2635761589404	-5.93562913907285				0.948026490066225	0.387496688741722	0.613933774834437	-0.608211920529802	-18.1480794701987	-18.8174834437086				0.927788079470199	-0.430834437086093	-0.484238410596026	-46.4596026490066	40.7576158940397	-16.714701986755			
79	1580	0.311841059602649	0.274754966887417	-0.999523178807947	40.3533774834437	106.815364238411	34.9350993377483				0.928953642384106	0.0157880794701987	0.733139072847682	11.9139072847682	-29.9321854304636	-18.2259602649007				0.357827814569536	-0.177271523178808	-0.90394701986755	-8.11258278145695	101.506490066225	-10.0002649006623				0.864529801324503	0.159470198675497	-0.629721854304636	9.76291390728477	19.2235761589404	-8.17562913907285				0.948026490066225	0.355496688741722	0.565933774834437	4.1517880794702	-23.4680794701987	-18.2574834437086				0.927788079470199	-0.398834437086093	-0.484238410596026	-40.5796026490066	36.5576158940397	-20.914701986755			
80	1600	0.359841059602649	0.178754966887417	-0.935523178807947	45.6733774834437	112.975364238411	32.9750993377484				0.944953642384106	0.0477880794701987	0.685139072847682	4.91390728476821	-9.49218543046358	-19.0659602649007				0.341827814569536	-0.225271523178808	-0.88794701986755	-2.23258278145695	102.066490066225	-10.8402649006623				0.800529801324503	0.175470198675497	-0.581721854304636	16.4829139072848	29.0235761589404	-6.21562913907285				0.884026490066225	0.339496688741722	0.549933774834437	9.1917880794702	-23.1880794701987	-19.3774834437086				0.895788079470199	-0.302834437086093	-0.452238410596026	-50.0996026490066	29.8376158940397	-23.434701986755			
81	1620	0.455841059602649	0.130754966887417	-0.871523178807947	38.3933774834437	124.175364238411	31.2950993377483				0.960953642384106	0.111788079470199	0.733139072847682	10.7939072847682	-10.0521854304636	-26.9059602649007				0.341827814569536	-0.257271523178808	-0.80794701986755	-2.79258278145695	105.986490066225	-10.0002649006623				0.752529801324503	0.207470198675497	-0.581721854304636	30.2029139072848	40.5035761589404	-5.65562913907285				0.836026490066225	0.355496688741722	0.581933774834437	6.9517880794702	-20.3880794701987	-21.6174834437086				0.879788079470199	-0.318834437086093	-0.436238410596026	-54.0196026490066	30.6776158940397	-27.914701986755			
82	1640	0.455841059602649	0.130754966887417	-0.775523178807947	32.7933774834437	132.855364238411	30.7350993377483				0.896953642384106	0.0157880794701987	0.765139072847682	7.99390728476821	-6.97218543046358	-22.4259602649007				0.357827814569536	-0.257271523178808	-0.75994701986755	-3.91258278145695	109.626490066225	-3.56026490066225				0.768529801324503	0.223470198675497	-0.613721854304636	44.4829139072848	46.1035761589404	-10.4156291390728				0.868026490066225	0.403496688741722	0.581933774834437	1.6317880794702	-20.6680794701987	-21.0574834437086				0.895788079470199	-0.350834437086093	-0.452238410596026	-29.6596026490066	24.7976158940397	-33.514701986755			
83	1660	0.391841059602649	0.0667549668874172	-0.759523178807947	28.0333774834437	127.535364238411	30.1750993377483				0.928953642384106	-0.0322119205298013	0.685139072847682	-2.92609271523179	-1.37218543046358	-20.1859602649007				0.405827814569536	-0.257271523178808	-0.72794701986755	-5.03258278145695	116.626490066225	-0.76026490066225				0.880529801324503	0.127470198675497	-0.581721854304636	55.4029139072848	49.7435761589404	-12.9356291390728				0.884026490066225	0.355496688741722	0.549933774834437	11.9917880794702	-22.3480794701987	-18.5374834437086				0.927788079470199	-0.302834437086093	-0.452238410596026	-37.2196026490066	19.1976158940397	-35.754701986755			
84	1680	0.375841059602649	0.114754966887417	-0.759523178807947	29.1533774834437	129.775364238411	25.4150993377483				0.960953642384106	0.0317880794701987	0.701139072847682	-4.32609271523179	-7.53218543046358	-27.4659602649007				0.469827814569536	-0.257271523178808	-0.72794701986755	-10.072582781457	122.506490066225	1.75973509933775				0.976529801324503	0.0794701986754967	-0.517721854304636	55.1229139072848	46.1035761589404	-16.2956291390729				0.868026490066225	0.307496688741722	0.533933774834437	6.6717880794702	-12.8280794701987	-16.5774834437086				0.991788079470199	-0.286834437086093	-0.452238410596026	-52.3396026490066	27.0376158940397	-32.954701986755			
85	1700	0.567841059602649	0.0667549668874172	-0.695523178807947	22.4333774834437	132.295364238411	21.4950993377483				0.816953642384106	0.111788079470199	0.653139072847682	10.7939072847682	-18.7321854304636	-31.3859602649007				0.453827814569536	-0.193271523178808	-0.71194701986755	-15.672582781457	125.866490066225	2.87973509933775				0.944529801324503	0.111470198675497	-0.501721854304636	39.7229139072848	33.5035761589404	-16.2956291390729				0.852026490066225	0.355496688741722	0.549933774834437	1.3517880794702	-19.2680794701987	-10.4174834437086				1.0557880794702	-0.334834437086093	-0.468238410596026	-25.1796026490066	30.1176158940397	-39.954701986755			
86	1720	0.727841059602649	0.0507549668874172	-0.695523178807947	20.1933774834437	131.175364238411	17.5750993377483				0.800953642384106	-0.0482119205298013	0.637139072847682	15.2739072847682	-13.6921854304636	-21.0259602649007				0.453827814569536	-0.161271523178808	-0.66394701986755	-20.152582781457	128.946490066225	5.11973509933775				0.944529801324503	0.0954701986754967	-0.517721854304636	27.6829139072848	18.9435761589404	-12.9356291390728				0.836026490066225	0.371496688741722	0.533933774834437	-1.7282119205298	-28.7880794701987	-7.89748344370861				1.0237880794702	-0.334834437086093	-0.436238410596026	10.1003973509934	3.79761589403974	-53.674701986755			
87	1740	0.727841059602649	-0.0612450331125828	-0.663523178807947	21.3133774834437	128.095364238411	16.4550993377483				0.912953642384106	-0.000211920529801304	0.701139072847682	6.87390728476821	-5.57218543046358	-20.4659602649007				0.501827814569536	-0.145271523178808	-0.67994701986755	-15.112582781457	129.226490066225	4.27973509933775				0.992529801324503	0.111470198675497	-0.517721854304636	30.2029139072848	13.3435761589404	-13.7756291390728				0.804026490066225	0.403496688741722	0.501933774834437	-3.9682119205298	-33.2680794701987	-7.33748344370861				0.911788079470199	-0.334834437086093	-0.292238410596026	-11.7396026490066	-1.24238410596026	-46.114701986755			
88	1760	0.647841059602649	-0.0452450331125828	-0.647523178807947	8.15337748344371	124.455364238411	12.8150993377483				0.800953642384106	0.0477880794701987	0.589139072847682	13.8739072847682	-26.2921854304636	-20.4659602649007				0.501827814569536	-0.145271523178808	-0.56794701986755	-3.07258278145695	134.826490066225	3.99973509933775				0.928529801324503	0.175470198675497	-0.389721854304636	24.3229139072848	7.7435761589404	-14.6156291390728				0.772026490066225	0.355496688741722	0.517933774834437	3.5917880794702	-29.3480794701987	-2.57748344370861				0.847788079470199	-0.366834437086093	-0.340238410596026	-48.4196026490066	-2.36238410596027	-32.954701986755			
89	1780	0.583841059602649	0.00275496688741723	-0.567523178807947	1.15337748344371	122.215364238411	6.93509933774835				0.704953642384106	0.0797880794701987	0.509139072847682	16.3939072847682	-33.2921854304636	-18.7859602649007				0.549827814569536	-0.177271523178808	-0.50394701986755	-0.832582781456954	135.386490066225	3.15973509933775				0.768529801324503	0.207470198675497	-0.341721854304636	12.0029139072848	-4.0164238410596	-15.1756291390728				0.692026490066225	0.339496688741722	0.517933774834437	0.231788079470198	-33.5480794701987	-0.0574834437086077				0.863788079470199	-0.414834437086093	-0.388238410596026	-26.8596026490066	-14.1223841059603	-22.874701986755			
90	1800	0.583841059602649	0.0507549668874172	-0.455523178807947	8.99337748344371	127.255364238411	-4.82490066225166				0.720953642384106	-0.0322119205298013	0.509139072847682	15.2739072847682	-34.1321854304636	-16.2659602649007				0.629827814569536	-0.209271523178808	-0.48794701986755	-1.95258278145695	133.706490066225	2.31973509933775				0.736529801324503	0.271470198675497	-0.309721854304636	20.1229139072848	-9.8964238410596	-9.29562913907285				0.676026490066225	0.323496688741722	0.517933774834437	-7.8882119205298	-36.9080794701987	3.02251655629139				0.831788079470199	-0.366834437086093	-0.308238410596026	-34.1396026490066	-13.0023841059603	-13.354701986755			
91	1820	0.711841059602649	0.00275496688741723	-0.407523178807947	15.4333774834437	133.135364238411	-10.1449006622517				0.640953642384106	-0.0162119205298013	0.605139072847682	9.39390728476821	-31.3321854304636	-15.4259602649007				0.725827814569536	-0.225271523178808	-0.48794701986755	6.44741721854305	129.506490066225	-0.48026490066225				0.752529801324503	0.239470198675497	-0.309721854304636	38.0429139072848	-14.3764238410596	-5.93562913907285				0.708026490066225	0.339496688741722	0.453933774834437	-9.8482119205298	-49.5080794701987	10.5825165562914				0.799788079470199	-0.222834437086093	-0.292238410596026	-48.4196026490066	-11.6023841059603	-11.954701986755			
92	1840	0.871841059602649	-0.109245033112583	-0.407523178807947	22.1533774834437	135.375364238411	-13.2249006622517				0.640953642384106	0.0637880794701987	0.525139072847682	21.4339072847682	-36.9321854304636	-12.0659602649007				0.741827814569536	-0.257271523178808	-0.48794701986755	19.8874172185431	125.586490066225	-4.12026490066225				0.704529801324503	0.159470198675497	-0.325721854304636	40.2829139072848	-16.8964238410596	-5.09562913907285				0.628026490066225	0.339496688741722	0.389933774834437	-6.2082119205298	-56.5080794701987	16.7425165562914				0.831788079470199	-0.190834437086093	-0.324238410596026	-39.1796026490066	-19.4423841059603	-9.71470198675497			
93	1860	0.871841059602649	-0.141245033112583	-0.455523178807947	17.3933774834437	137.615364238411	-14.9049006622517				0.560953642384106	-0.0162119205298013	0.493139072847682	28.9939072847682	-52.3321854304636	-3.38596026490066				0.645827814569536	-0.289271523178808	-0.42394701986755	15.967417218543	123.906490066225	-5.24026490066225				0.624529801324503	0.127470198675497	-0.325721854304636	32.7229139072848	-23.6164238410596	-5.65562913907285				0.580026490066225	0.275496688741722	0.373933774834437	1.0717880794702	-50.9080794701987	19.8225165562914				0.799788079470199	-0.222834437086093	-0.324238410596026	-8.93960264900662	-25.0423841059603	-4.39470198675497			
94	1880	0.759841059602649	-0.0932450331125828	-0.343523178807947	11.2333774834437	134.255364238411	-14.3449006622517				0.576953642384106	0.0317880794701987	0.461139072847682	21.9939072847682	-62.4121854304636	-0.0259602649006601				0.725827814569536	-0.225271523178808	-0.31194701986755	22.127417218543	132.306490066225	-7.76026490066225				0.544529801324503	0.207470198675497	-0.277721854304636	27.1229139072848	-29.4964238410596	-9.29562913907285				0.596026490066225	0.275496688741722	0.405933774834437	-1.7282119205298	-48.9480794701987	23.7425165562914				0.687788079470199	-0.222834437086093	-0.292238410596026	-12.2996026490066	-30.9223841059603	0.365298013245032			
95	1900	0.679841059602649	-0.0932450331125828	-0.375523178807947	12.6333774834437	135.935364238411	-9.58490066225166				0.608953642384106	0.0797880794701987	0.461139072847682	14.4339072847682	-62.4121854304636	4.17403973509934				0.821827814569536	-0.193271523178808	-0.26394701986755	12.327417218543	135.106490066225	-11.1202649006623				0.544529801324503	0.239470198675497	-0.261721854304636	29.3629139072848	-32.5764238410596	-6.77562913907285				0.596026490066225	0.275496688741722	0.373933774834437	-5.3682119205298	-58.4680794701987	26.8225165562914				0.639788079470199	-0.142834437086093	-0.308238410596026	-8.65960264900662	-47.4423841059603	5.12529801324503			
96	1920	0.759841059602649	-0.189245033112583	-0.295523178807947	21.3133774834437	148.535364238411	-14.0649006622517				0.640953642384106	0.0797880794701987	0.493139072847682	22.2739072847682	-59.3321854304636	8.93403973509934				0.837827814569536	-0.177271523178808	-0.26394701986755	19.327417218543	123.346490066225	-17.0002649006623				0.544529801324503	0.159470198675497	-0.309721854304636	44.7629139072848	-27.5364238410596	-0.335629139072848				0.580026490066225	0.291496688741722	0.293933774834437	-2.8482119205298	-62.6680794701987	27.9425165562914				0.639788079470199	-0.126834437086093	-0.260238410596026	13.4603973509934	-55.2823841059603	5.68529801324503			
97	1940	0.903841059602649	-0.125245033112583	-0.215523178807947	35.3133774834437	147.415364238411	-19.6649006622517				0.624953642384106	-0.0162119205298013	0.413139072847682	16.1139072847682	-58.2121854304636	23.2140397350993				0.805827814569536	-0.177271523178808	-0.27994701986755	28.287417218543	116.906490066225	-21.2002649006623				0.544529801324503	0.0634701986754967	-0.389721854304636	48.6829139072848	-25.0164238410596	3.02437086092715				0.596026490066225	0.307496688741722	0.245933774834437	3.5917880794702	-58.1880794701987	29.6225165562914				0.639788079470199	-0.158834437086093	-0.276238410596026	3.94039735099338	-47.7223841059603	6.24529801324503			
98	1960	0.855841059602649	-0.0452450331125828	-0.263523178807947	24.6733774834437	140.135364238411	-11.8249006622517				0.592953642384106	0.0157880794701987	0.461139072847682	4.07390728476821	-55.4121854304636	33.0140397350993				0.757827814569536	-0.209271523178808	-0.29594701986755	28.287417218543	110.466490066225	-22.0402649006623				0.512529801324503	-0.000529801324503289	-0.389721854304636	40.2829139072848	-24.1764238410596	6.66437086092715				0	0	0	0	0	0				0	0	0	0	0	0			
99	1980	0.759841059602649	-0.0132450331125828	-0.231523178807947	36.1533774834437	140.975364238411	-7.06490066225166				0.592953642384106	-0.000211920529801304	0.509139072847682	-9.36609271523179	-47.8521854304636	31.3340397350993				0.789827814569536	-0.241271523178808	-0.27994701986755	22.967417218543	105.706490066225	-25.6802649006623				0	0	0	0	0	0				0	0	0	0	0	0				0.655788079470199	-0.190834437086093	-0.372238410596026	1.98039735099338	-55.5623841059603	13.805298013245			
100	2000	0.839841059602649	0.00275496688741723	-0.135523178807947	48.4733774834437	140.415364238411	-12.3849006622517				0.560953642384106	-0.000211920529801304	0.477139072847682	-18.8860927152318	-42.5321854304636	22.0940397350993				0.837827814569536	-0.241271523178808	-0.24794701986755	12.327417218543	110.466490066225	-27.0802649006623				0.528529801324503	0.0314701986754967	-0.357721854304636	27.1229139072848	-26.4164238410596	4.14437086092715				0.596026490066225	0.147496688741722	0.261933774834437	3.0317880794702	-51.7480794701987	35.5025165562914				0.591788079470199	-0.142834437086093	-0.372238410596026	9.26039735099338	-57.5223841059603	16.325298013245			
101	2020	0.871841059602649	0.0507549668874172	-0.103523178807947	47.9133774834437	140.135364238411	-16.3049006622517				0.576953642384106	0.0317880794701987	0.397139072847682	-20.0060927152318	-39.4521854304636	18.1740397350993				0.821827814569536	-0.225271523178808	-0.19994701986755	-1.11258278145695	113.826490066225	-25.4002649006623				0.480529801324503	0.0154701986754967	-0.357721854304636	27.6829139072848	-20.2564238410596	8.62437086092715				0.644026490066225	0.163496688741722	0.229933774834437	4.9917880794702	-44.7480794701987	35.7825165562914				0.559788079470199	-0.126834437086093	-0.340238410596026	14.0203973509934	-53.0423841059603	14.925298013245			
102	2040	0.871841059602649	0.0347549668874172	-0.135523178807947	33.3533774834437	137.335364238411	-13.7849006622517				0.624953642384106	0.0157880794701987	0.397139072847682	-10.2060927152318	-27.4121854304636	24.0540397350993				0.805827814569536	-0.273271523178808	-0.13594701986755	-7.27258278145696	97.8664900662252	-26.2402649006623				0.480529801324503	-0.0165298013245033	-0.325721854304636	27.6829139072848	-18.5764238410596	15.0643708609272				0.644026490066225	0.163496688741722	0.213933774834437	4.7117880794702	-44.4680794701987	37.4625165562914				0.575788079470199	-0.174834437086093	-0.308238410596026	17.3803973509934	-49.1223841059603	11.845298013245			
103	2060	0.903841059602649	0.114754966887417	-0.00752317880794696	31.6733774834437	122.775364238411	-17.1449006622517				0.608953642384106	0.0637880794701987	0.349139072847682	1.55390728476821	-27.9721854304636	22.6540397350993				0.853827814569536	-0.241271523178808	-0.0719470198675496	-3.91258278145695	83.5864900662252	-18.4002649006623				0.512529801324503	-0.0165298013245033	-0.357721854304636	32.7229139072848	-14.9364238410596	19.2643708609272				0.596026490066225	0.179496688741722	0.165933774834437	1.6317880794702	-46.4280794701987	39.7025165562914				0.575788079470199	-0.190834437086093	-0.340238410596026	3.66039735099338	-42.6823841059603	14.645298013245			
104	2080	0.775841059602649	0.210754966887417	-0.00752317880794696	26.3533774834437	95.6153642384106	-11.8249006622517				0.528953642384106	0.159788079470199	0.365139072847682	-5.16609271523179	-27.9721854304636	17.8940397350993				0.853827814569536	-0.289271523178808	-0.0399470198675496	-7.27258278145696	58.6664900662252	-5.52026490066225				0.480529801324503	-0.0485298013245033	-0.373721854304636	33.5629139072848	-13.5364238410596	20.3843708609272				0.612026490066225	0.147496688741722	0.149933774834437	4.1517880794702	-45.8680794701987	41.1025165562914				0.511788079470199	-0.190834437086093	-0.340238410596026	8.98039735099338	-40.7223841059603	18.005298013245			
105	2100	0.807841059602649	0.210754966887417	0.00847682119205304	24.9533774834437	78.8153642384106	-5.10490066225166				0.480953642384106	0.159788079470199	0.461139072847682	8.27390728476821	-24.8921854304636	14.5340397350993				0.725827814569536	-0.273271523178808	-0.0719470198675496	-3.91258278145695	42.9864900662252	3.43973509933775				0.512529801324503	-0.0485298013245033	-0.373721854304636	32.7229139072848	-10.7364238410596	22.0643708609272				0.644026490066225	0.131496688741722	0.181933774834437	4.7117880794702	-42.7880794701987	38.0225165562914				0.431788079470199	-0.190834437086093	-0.324238410596026	13.1803973509934	-38.4823841059603	14.365298013245			
106	2120	0.887841059602649	0.0507549668874172	-0.119523178807947	31.3933774834437	64.8153642384106	-2.02490066225166				0.544953642384106	0.0317880794701987	0.461139072847682	21.1539072847682	-13.1321854304636	21.5340397350993				0.853827814569536	-0.209271523178808	-0.10394701986755	-8.67258278145695	31.2264900662252	10.4397350993378				0.576529801324503	-0.0325298013245033	-0.421721854304636	40.5629139072848	-9.3364238410596	25.4243708609272				0.596026490066225	0.195496688741722	0.197933774834437	-3.6882119205298	-43.3480794701987	34.9425165562914				0.447788079470199	-0.158834437086093	-0.356238410596026	2.54039735099338	-29.2423841059603	9.04529801324503			
107	2140	0.983841059602649	-0.0452450331125828	-0.247523178807947	28.5933774834437	40.1753642384106	-0.0649006622516557				0.672953642384106	0.0317880794701987	0.429139072847682	7.15390728476821	-5.01218543046358	19.5740397350993				0.997827814569536	-0.161271523178808	-0.0879470198675496	-15.672582781457	14.4264900662252	13.5197350993378				0.608529801324503	-0.0965298013245033	-0.469721854304636	45.3229139072848	-4.2964238410596	26.2643708609272				0.612026490066225	0.147496688741722	0.149933774834437	5.2717880794702	-37.7480794701987	33.5425165562914				0.447788079470199	-0.110834437086093	-0.420238410596026	-3.89960264900662	-24.7623841059603	9.88529801324503			
108	2160	1.06384105960265	-0.141245033112583	-0.247523178807947	19.0733774834437	16.9353642384106	3.57509933774835				0.704953642384106	0.0477880794701987	0.509139072847682	-8.80609271523179	-5.85218543046358	18.4540397350993				0.949827814569536	-0.0652715231788079	-0.0559470198675496	-10.072582781457	1.54649006622517	7.35973509933775				0.608529801324503	-0.176529801324503	-0.517721854304636	36.9229139072848	0.7435761589404	23.1843708609272				0.708026490066225	0.147496688741722	0.133933774834437	8.3517880794702	-25.1480794701987	27.3825165562914				0.463788079470199	-0.158834437086093	-0.468238410596026	11.2203973509934	-17.7623841059603	11.845298013245			
109	2180	1.07984105960265	-0.0932450331125828	-0.183523178807947	8.71337748344371	0.695364238410596	4.41509933774834				0.896953642384106	0.0637880794701987	0.445139072847682	-7.40609271523179	-5.01218543046358	16.7740397350993				0.965827814569536	0.0307284768211921	-0.0559470198675496	10.647417218543	-6.57350993377483	-3.56026490066225				0.672529801324503	-0.128529801324503	-0.565721854304636	22.9229139072848	3.2635761589404	21.7843708609272				0.820026490066225	0.131496688741722	0.229933774834437	7.5117880794702	-11.4280794701987	21.2225165562914				0.511788079470199	-0.254834437086093	-0.452238410596026	30.8203973509934	-16.0823841059603	6.52529801324503			
110	2200	1.01584105960265	-0.0772450331125828	-0.135523178807947	0.313377483443709	-4.6246357615894	5.25509933774834				1.02495364238411	-0.144211920529801	0.477139072847682	-6.00609271523179	-3.05218543046358	23.4940397350993				1.02982781456954	0.0307284768211921	-0.0559470198675496	31.927417218543	-11.6135099337748	-5.80026490066225				0.800529801324503	-0.128529801324503	-0.629721854304636	29.3629139072848	5.5035761589404	22.6243708609272				0.948026490066225	0.0834966887417219	0.197933774834437	1.0717880794702	-8.06807947019868	18.1425165562914				0.639788079470199	-0.318834437086093	-0.532238410596027	7.58039735099338	-9.64238410596027	4.28529801324503			
111	2220	1.01584105960265	-0.0932450331125828	0.024476821192053	-8.64662251655629	-2.3846357615894	2.45509933774835				1.07295364238411	-0.192211920529801	0.413139072847682	-13.5660927152318	-8.65218543046358	19.5740397350993				1.07782781456954	-0.161271523178808	-0.0719470198675496	38.647417218543	-11.8935099337748	-6.08026490066225				0.880529801324503	-0.256529801324503	-0.709721854304636	45.6029139072848	9.4235761589404	18.4243708609272				1.01202649006623	0.0514966887417219	0.0699337748344371	3.3117880794702	-6.66807947019868	16.4625165562914				0.735788079470199	-0.286834437086093	-0.660238410596027	-4.17960264900662	12.4776158940397	12.965298013245			
112	2240	0.999841059602649	-0.0292450331125828	0.136476821192053	-10.8866225165563	3.2153642384106	1.89509933774834				0.960953642384106	-0.0962119205298013	0.381139072847682	-16.6460927152318	-22.9321854304636	12.5740397350993				0.965827814569536	-0.225271523178808	-0.13594701986755	24.927417218543	-9.37350993377483	-3.84026490066225				0.800529801324503	-0.352529801324503	-0.725721854304636	31.0429139072848	13.3435761589404	11.7043708609272				1.04402649006623	-0.0125033112582781	0.0699337748344371	11.1517880794702	2.29192052980133	15.6225165562914				0.767788079470199	-0.302834437086093	-0.644238410596026	14.8603973509934	14.7176158940397	12.685298013245			
113	2260	1.01584105960265	0.0347549668874172	0.056476821192053	-12.2866225165563	9.9353642384106	0.775099337748344				0.992953642384106	0.0797880794701987	0.269139072847682	-4.32609271523179	-17.0521854304636	6.41403973509934				0.885827814569536	-0.241271523178808	-0.13594701986755	7.28741721854305	-3.49350993377483	-3.84026490066225				0.736529801324503	-0.288529801324503	-0.677721854304636	-4.79708609271523	6.3435761589404	5.54437086092715				1.06002649006623	0.00349668874172187	0.101933774834437	1.9117880794702	2.29192052980133	15.6225165562914				0.735788079470199	-0.318834437086093	-0.612238410596026	23.5403973509934	7.43761589403974	0.645298013245032			
114	2280	0.983841059602649	0.0987549668874172	0.104476821192053	-13.4066225165563	11.8953642384106	1.61509933774834				0.976953642384106	0.0157880794701987	0.349139072847682	2.11390728476821	-10.8921854304636	11.1740397350993				0.901827814569536	-0.257271523178808	-0.0719470198675496	-2.79258278145695	1.82649006622517	-2.44026490066225				0.704529801324503	-0.224529801324503	-0.645721854304636	-17.1170860927152	2.1435761589404	3.02437086092715				0.996026490066225	0.0514966887417219	0.0699337748344371	-9.0082119205298	-7.22807947019868	13.9425165562914				0.719788079470199	-0.302834437086093	-0.628238410596026	12.9003973509934	5.47761589403974	-6.91470198675497			
115	2300	0.935841059602649	0.0987549668874172	0.120476821192053	-3.04662251655629	9.9353642384106	1.33509933774834				0.864953642384106	-0.0962119205298013	0.301139072847682	-9.64609271523179	-15.3721854304636	10.8940397350993				0.965827814569536	-0.273271523178808	-0.0719470198675496	-3.91258278145695	4.06649006622517	-0.20026490066225				0.672529801324503	-0.208529801324503	-0.613721854304636	-3.39708609271523	8.0235761589404	5.82437086092715				0.948026490066225	0.0674966887417219	0.0379337748344371	-11.5282119205298	-8.06807947019868	13.6625165562914				0.671788079470199	-0.286834437086093	-0.676238410596026	12.6203973509934	6.59761589403974	-3.55470198675497			
116	2320	0.951841059602649	0.0507549668874172	0.072476821192053	3.67337748344371	6.8553642384106	-2.58490066225166				0.896953642384106	-0.0322119205298013	0.333139072847682	-17.7660927152318	-6.41218543046358	6.13403973509934				0.965827814569536	-0.209271523178808	-0.0719470198675496	-15.112582781457	4.34649006622517	0.0797350993377501				0.640529801324503	-0.224529801324503	-0.549721854304636	3.32291390728477	9.7035761589404	8.34437086092715				0.900026490066225	0.0354966887417219	0.0379337748344371	-7.0482119205298	-1.90807947019868	15.0625165562914				0.591788079470199	-0.302834437086093	-0.676238410596026	11.7803973509934	5.19761589403974	4.56529801324503			
117	2340	0.999841059602649	0.00275496688741723	0.00847682119205304	-3.04662251655629	-0.704635761589404	-2.58490066225166				0.928953642384106	0.0317880794701987	0.269139072847682	-14.6860927152318	-5.85218543046358	2.77403973509934				0.917827814569536	-0.113271523178808	-0.0719470198675496	-15.672582781457	0.426490066225167	-1.88026490066225				0.624529801324503	-0.240529801324503	-0.565721854304636	0.242913907284768	8.5835761589404	11.7043708609272				0.900026490066225	0.0674966887417219	0.0699337748344371	-6.2082119205298	3.41192052980132	15.0625165562914				0.591788079470199	-0.302834437086093	-0.644238410596026	6.18039735099338	4.63761589403974	12.125298013245			
118	2360	1.06384105960265	-0.0292450331125828	0.00847682119205304	-6.40662251655629	-4.0646357615894	2.45509933774835				0.896953642384106	0.0157880794701987	0.253139072847682	-1.80609271523179	-0.812185430463576	6.69403973509934				0.917827814569536	-0.0652715231788079	-0.0719470198675496	-4.19258278145695	1.54649006622517	-2.16026490066225				0.688529801324503	-0.224529801324503	-0.597721854304636	4.72291390728477	12.5035761589404	14.5043708609272				0.900026490066225	0.0674966887417219	0.0539337748344371	-7.8882119205298	5.93192052980133	14.5025165562914				0.623788079470199	-0.302834437086093	-0.660238410596027	-1.93960264900662	-1.24238410596026	16.325298013245			
119	2380	0.999841059602649	-0.0132450331125828	-0.087523178807947	-1.92662251655629	-2.1046357615894	1.61509933774834				0.944953642384106	-0.0962119205298013	0.349139072847682	-5.16609271523179	7.02781456953642	10.0540397350993				0.981827814569536	-0.0972715231788079	-0.0879470198675496	7.28741721854305	2.38649006622517	-1.60026490066225				0.736529801324503	-0.240529801324503	-0.597721854304636	13.4029139072848	19.2235761589404	15.6243708609272				0.932026490066225	0.0194966887417219	0.0699337748344371	-3.1282119205298	8.45192052980133	13.6625165562914				0.623788079470199	-0.286834437086093	-0.660238410596027	-8.65960264900662	-0.682384105960265	18.005298013245			
120	2400	0.935841059602649	-0.0132450331125828	0.024476821192053	-3.32662251655629	1.8153642384106	0.775099337748344				0.960953642384106	-0.0322119205298013	0.365139072847682	-11.6060927152318	6.18781456953642	5.29403973509934				0.981827814569536	-0.145271523178808	-0.10394701986755	8.12741721854305	4.34649006622517	-1.60026490066225				0.752529801324503	-0.272529801324503	-0.597721854304636	13.9629139072848	22.3035761589404	13.9443708609272				0.964026490066225	0.00349668874172187	0.0859337748344371	-2.2882119205298	10.4119205298013	10.8625165562914				0.623788079470199	-0.270834437086093	-0.628238410596026	-0.819602649006623	0.437615894039735	18.005298013245			
121	2420	0.967841059602649	0.0187549668874172	0.088476821192053	-6.96662251655629	3.4953642384106	0.495099337748344				0.960953642384106	-0.0162119205298013	0.317139072847682	-7.12609271523179	3.38781456953642	4.73403973509934				0.933827814569536	-0.161271523178808	-0.11994701986755	6.16741721854305	4.90649006622517	-1.04026490066225				0.768529801324503	-0.288529801324503	-0.597721854304636	2.76291390728477	21.1835761589404	4.70437086092715				0.964026490066225	0.00349668874172187	0.0859337748344371	-2.8482119205298	13.4919205298013	9.18251655629139				0.607788079470199	-0.286834437086093	-0.612238410596026	5.34039735099338	0.717615894039735	14.925298013245			
122	2440	0.983841059602649	0.0667549668874172	0.152476821192053	-12.2866225165563	5.1753642384106	-0.344900662251656				0.960953642384106	-0.0482119205298013	0.285139072847682	-1.24609271523179	4.50781456953642	5.29403973509934				0.949827814569536	-0.193271523178808	-0.11994701986755	4.76741721854305	6.58649006622517	-1.32026490066225				0.816529801324503	-0.240529801324503	-0.581721854304636	-4.51708609271523	16.4235761589404	4.98437086092715				0.964026490066225	0.00349668874172187	0.133933774834437	-3.9682119205298	14.8919205298013	6.94251655629139				0.623788079470199	-0.334834437086093	-0.580238410596026	8.70039735099338	2.95761589403974	10.445298013245			
123	2460	0.983841059602649	0.0187549668874172	0.104476821192053	-9.48662251655629	4.8953642384106	-1.46490066225166				0.944953642384106	-0.0642119205298013	0.333139072847682	-3.20609271523179	6.74781456953642	4.17403973509934				0.981827814569536	-0.209271523178808	-0.11994701986755	3.64741721854305	7.70649006622517	0.0797350993377501				0.832529801324503	-0.240529801324503	-0.565721854304636	-0.0370860927152318	13.9035761589404	3.86437086092715				0.980026490066225	-0.0125033112582781	0.117933774834437	-4.8082119205298	10.9719205298013	4.70251655629139				0.639788079470199	-0.382834437086093	-0.580238410596026	6.18039735099338	6.03761589403974	7.36529801324503			
124	2480	0.983841059602649	0.0187549668874172	0.00847682119205304	-0.246622516556291	0.135364238410596	-2.86490066225166				0.896953642384106	-0.0162119205298013	0.349139072847682	-5.72609271523179	8.70781456953642	2.49403973509934				0.965827814569536	-0.193271523178808	-0.11994701986755	1.12741721854305	5.18649006622517	0.63973509933775				0.784529801324503	-0.256529801324503	-0.565721854304636	0.522913907284768	11.9435761589404	1.06437086092715				0.964026490066225	0.00349668874172187	0.117933774834437	-5.3682119205298	9.01192052980133	3.02251655629139				0.623788079470199	-0.398834437086093	-0.580238410596026	2.82039735099338	8.83761589403974	8.48529801324503			
125	2500	0.999841059602649	0.0507549668874172	-0.071523178807947	1.15337748344371	-2.9446357615894	-2.30490066225166				0.912953642384106	-0.0322119205298013	0.365139072847682	-1.24609271523179	12.6278145695364	3.05403973509934				0.917827814569536	-0.129271523178808	-0.11994701986755	3.08741721854305	4.34649006622517	0.0797350993377501				0.784529801324503	-0.240529801324503	-0.549721854304636	-8.71708609271523	7.1835761589404	0.504370860927152				0.932026490066225	0.0194966887417219	0.165933774834437	-5.6482119205298	9.85192052980133	2.46251655629139				0.623788079470199	-0.398834437086093	-0.564238410596026	0.300397350993377	8.55761589403974	12.125298013245			
126	2520	0.967841059602649	0.0187549668874172	-0.023523178807947	-3.04662251655629	-7.1446357615894	0.495099337748344				0.960953642384106	-0.0642119205298013	0.317139072847682	1.83390728476821	14.5878145695364	1.93403973509934				0.949827814569536	-0.129271523178808	-0.10394701986755	2.52741721854305	3.78649006622517	0.0797350993377501				0.816529801324503	-0.208529801324503	-0.533721854304636	-10.6770860927152	3.5435761589404	1.34437086092715				0.916026490066225	0.0354966887417219	0.181933774834437	-4.5282119205298	12.9319205298013	-0.337483443708608				0.639788079470199	-0.366834437086093	-0.564238410596026	-2.21960264900662	7.71761589403974	16.325298013245			
127	2540	0.951841059602649	-0.0292450331125828	0.072476821192053	-2.48662251655629	1.2553642384106	0.215099337748344				0.960953642384106	-0.0642119205298013	0.333139072847682	-0.966092715231788	14.3078145695364	0.53403973509934				0.981827814569536	-0.145271523178808	-0.10394701986755	6.72741721854305	3.22649006622517	-0.76026490066225				0.832529801324503	-0.208529801324503	-0.549721854304636	-6.19708609271523	2.4235761589404	2.74437086092715				0.948026490066225	0.0194966887417219	0.197933774834437	-2.8482119205298	10.9719205298013	-2.29748344370861				0.671788079470199	-0.366834437086093	-0.564238410596026	-3.61960264900662	7.71761589403974	19.685298013245			
128	2560	0.951841059602649	-0.0292450331125828	0.088476821192053	-0.526622516556291	6.2953642384106	-1.46490066225166				0.928953642384106	-0.0322119205298013	0.381139072847682	-0.686092715231788	12.9078145695364	-0.0259602649006601				0.949827814569536	-0.161271523178808	-0.11994701986755	5.88741721854305	2.38649006622517	-1.32026490066225				0.848529801324503	-0.208529801324503	-0.501721854304636	-7.87708609271523	0.7435761589404	2.18437086092715				0.964026490066225	0.0354966887417219	0.213933774834437	-4.5282119205298	11.8119205298013	-3.13748344370861				0.703788079470199	-0.382834437086093	-0.564238410596026	2.26039735099338	4.63761589403974	17.165298013245			
129	2580	0.999841059602649	0.0187549668874172	0.040476821192053	-1.08662251655629	3.2153642384106	-1.46490066225166				0.944953642384106	-0.0322119205298013	0.397139072847682	8.55390728476821	10.6678145695364	0.53403973509934				0.965827814569536	-0.145271523178808	-0.11994701986755	4.48741721854305	4.90649006622517	-1.32026490066225				0.832529801324503	-0.192529801324503	-0.533721854304636	-13.7570860927152	-1.4964238410596	0.784370860927152				0.980026490066225	0.0514966887417219	0.197933774834437	-5.3682119205298	11.5319205298013	-3.69748344370861				0.719788079470199	-0.382834437086093	-0.532238410596027	-0.819602649006623	2.95761589403974	13.245298013245			
130	2600	1.01584105960265	0.0507549668874172	-0.039523178807947	-5.28662251655629	-3.5046357615894	-1.46490066225166				0.944953642384106	-0.0322119205298013	0.381139072847682	6.03390728476821	6.46781456953642	-0.585960264900661				0.949827814569536	-0.161271523178808	-0.10394701986755	6.16741721854305	5.18649006622517	-1.88026490066225				0.800529801324503	-0.128529801324503	-0.517721854304636	-19.9170860927152	-1.7764238410596	-1.45562913907285				0.980026490066225	0.0514966887417219	0.197933774834437	-4.5282119205298	8.17192052980133	-3.69748344370861				0.703788079470199	-0.350834437086093	-0.548238410596027	-5.01960264900662	3.79761589403974	7.08529801324503			
131	2620	0.983841059602649	0.0347549668874172	-0.071523178807947	-4.72662251655629	-9.38463576158941	-0.904900662251656				0.928953642384106	-0.0482119205298013	0.381139072847682	3.51390728476821	4.50781456953642	-1.98596026490066				0.933827814569536	-0.161271523178808	-0.0879470198675496	5.32741721854305	3.22649006622517	-1.04026490066225				0.800529801324503	-0.112529801324503	-0.485721854304636	-15.9970860927152	0.7435761589404	-3.13562913907285				0.948026490066225	0.0834966887417219	0.197933774834437	-5.0882119205298	5.93192052980133	-3.69748344370861				0.655788079470199	-0.350834437086093	-0.532238410596027	1.98039735099338	4.91761589403974	2.32529801324503			
132	2640	0.935841059602649	0.00275496688741723	-0.039523178807947	-0.526622516556291	-7.4246357615894	-0.344900662251656				0.960953642384106	-0.0802119205298013	0.349139072847682	0.153907284768212	3.10781456953642	-1.70596026490066				0.965827814569536	-0.177271523178808	-0.0879470198675496	3.08741721854305	1.82649006622517	-1.32026490066225				0.784529801324503	-0.0965298013245033	-0.485721854304636	-6.75708609271523	3.8235761589404	-3.97562913907285				0.948026490066225	0.0834966887417219	0.197933774834437	-3.1282119205298	5.09192052980133	-4.25748344370861				0.639788079470199	-0.366834437086093	-0.548238410596027	1.98039735099338	9.95761589403974	-1.03470198675497			
133	2660	0.935841059602649	-0.0132450331125828	0.056476821192053	0.0333774834437086	1.5353642384106	-0.344900662251656				0.976953642384106	-0.0962119205298013	0.349139072847682	-1.80609271523179	0.0278145695364242	-0.0259602649006601				0.981827814569536	-0.193271523178808	-0.10394701986755	0.287417218543046	2.10649006622517	-0.76026490066225				0.784529801324503	-0.128529801324503	-0.501721854304636	2.20291390728477	7.4635761589404	-2.85562913907285				0.964026490066225	0.0514966887417219	0.213933774834437	-0.888211920529802	3.41192052980132	-4.25748344370861				0.671788079470199	-0.382834437086093	-0.548238410596027	3.66039735099338	6.31761589403974	-1.03470198675497			
134	2680	0.967841059602649	0.00275496688741723	0.088476821192053	-1.64662251655629	6.5753642384106	-1.46490066225166				0.944953642384106	-0.0482119205298013	0.349139072847682	-2.92609271523179	-4.45218543046358	-1.14596026490066				0.949827814569536	-0.193271523178808	-0.10394701986755	-4.19258278145695	2.66649006622517	-1.60026490066225				0.816529801324503	-0.160529801324503	-0.533721854304636	7.24291390728477	8.8635761589404	-3.69562913907285				0.980026490066225	0.0354966887417219	0.197933774834437	-1.7282119205298	2.01192052980133	-4.25748344370861				0.719788079470199	-0.382834437086093	-0.580238410596026	0.860397350993377	6.03761589403974	-1.03470198675497			
135	2700	0.999841059602649	0.0187549668874172	0.040476821192053	-2.76662251655629	3.4953642384106	-2.30490066225166				0.944953642384106	-0.0482119205298013	0.365139072847682	-2.64609271523179	-6.97218543046358	-1.42596026490066				0.933827814569536	-0.161271523178808	-0.10394701986755	-8.67258278145695	2.94649006622517	-1.88026490066225				0.848529801324503	-0.176529801324503	-0.581721854304636	8.36291390728477	8.3035761589404	-3.13562913907285				0.996026490066225	0.0674966887417219	0.181933774834437	-2.5682119205298	-0.508079470198675	-3.97748344370861				0.719788079470199	-0.382834437086093	-0.596238410596026	-1.93960264900662	6.03761589403974	-1.87470198675497			
136	2720	0.983841059602649	0.0187549668874172	0.00847682119205304	-3.88662251655629	0.415364238410596	-1.74490066225166				0.944953642384106	-0.0482119205298013	0.349139072847682	-3.20609271523179	-7.81218543046358	-1.98596026490066				0.965827814569536	-0.161271523178808	-0.11994701986755	-9.23258278145695	1.82649006622517	-1.32026490066225				0.816529801324503	-0.192529801324503	-0.581721854304636	2.48291390728477	3.5435761589404	-2.57562913907285				0.980026490066225	0.0354966887417219	0.181933774834437	-1.1682119205298	-3.86807947019868	-3.97748344370861				0.719788079470199	-0.366834437086093	-0.596238410596026	-3.05960264900662	7.43761589403974	-3.83470198675497			
137	2740	0.951841059602649	0.0347549668874172	-0.00752317880794696	-5.00662251655629	0.695364238410596	-2.58490066225166				0.944953642384106	-0.0642119205298013	0.333139072847682	-3.76609271523179	-8.65218543046358	-1.42596026490066				0.981827814569536	-0.161271523178808	-0.10394701986755	-6.15258278145695	2.10649006622517	-1.60026490066225				0.784529801324503	-0.208529801324503	-0.565721854304636	-2.55708609271523	-5.1364238410596	-2.01562913907285				0.964026490066225	0.0354966887417219	0.181933774834437	-1.1682119205298	-3.58807947019868	-2.85748344370861				0.703788079470199	-0.382834437086093	-0.596238410596026	-2.21960264900662	6.59761589403974	-4.67470198675497			
138	2760	0.951841059602649	0.0187549668874172	-0.00752317880794696	-4.72662251655629	1.5353642384106	-3.14490066225166				0.944953642384106	-0.0482119205298013	0.317139072847682	-4.88609271523179	-5.85218543046358	-4.22596026490066				0.965827814569536	-0.145271523178808	-0.11994701986755	-4.47258278145695	1.54649006622517	-2.16026490066225				0.768529801324503	-0.192529801324503	-0.565721854304636	-7.87708609271523	-10.7364238410596	-0.0556291390728476				0.948026490066225	0.0194966887417219	0.181933774834437	-1.4482119205298	-2.46807947019868	-2.29748344370861				0.687788079470199	-0.366834437086093	-0.580238410596026	-6.13960264900662	3.79761589403974	-4.11470198675497			
139	2780	0.967841059602649	0.00275496688741723	0.024476821192053	-1.92662251655629	4.8953642384106	-2.30490066225166				0.944953642384106	-0.0162119205298013	0.333139072847682	-4.88609271523179	-1.09218543046358	-5.90596026490066				0.965827814569536	-0.145271523178808	-0.11994701986755	-3.91258278145695	1.82649006622517	-1.88026490066225				0.800529801324503	-0.192529801324503	-0.565721854304636	-13.1970860927152	-12.1364238410596	-0.615629139072848				0.948026490066225	0.0834966887417219	0.165933774834437	-3.9682119205298	-2.46807947019868	-3.41748344370861				0.703788079470199	-0.334834437086093	-0.580238410596026	-8.09960264900662	1.55761589403974	-4.95470198675497			
140	2800	0.983841059602649	0.00275496688741723	0.040476821192053	1.15337748344371	6.2953642384106	-2.02490066225166				0.960953642384106	-0.0162119205298013	0.365139072847682	-5.16609271523179	1.42781456953642	-4.78596026490066				0.965827814569536	-0.161271523178808	-0.11994701986755	-3.07258278145695	0.426490066225167	-1.32026490066225				0.784529801324503	-0.160529801324503	-0.565721854304636	-12.3570860927152	-10.1764238410596	0.784370860927152				0.964026490066225	0.0834966887417219	0.149933774834437	-4.5282119205298	-2.74807947019868	-4.25748344370861				0.703788079470199	-0.318834437086093	-0.580238410596026	-4.45960264900662	0.717615894039735	-6.91470198675497			
141	2820	0.983841059602649	0.0187549668874172	0.00847682119205304	-1.64662251655629	2.9353642384106	-1.46490066225166				0.960953642384106	-0.0482119205298013	0.349139072847682	-6.28609271523179	-0.812185430463576	-3.10596026490066				0.965827814569536	-0.161271523178808	-0.11994701986755	-2.79258278145695	1.82649006622517	-1.32026490066225				0.768529801324503	-0.144529801324503	-0.549721854304636	-6.19708609271523	-9.6164238410596	2.18437086092715				0.964026490066225	0.0834966887417219	0.149933774834437	-2.2882119205298	-4.14807947019868	-3.69748344370861				0.703788079470199	-0.334834437086093	-0.564238410596026	0.0203973509933773	1.27761589403974	-8.59470198675497			
142	2840	0.967841059602649	0.0347549668874172	0.00847682119205304	-5.84662251655629	-0.984635761589404	-1.46490066225166				0.928953642384106	-0.0162119205298013	0.349139072847682	-7.96609271523179	0.587814569536424	-3.38596026490066				0.949827814569536	-0.161271523178808	-0.0879470198675496	-5.31258278145695	2.38649006622517	-1.04026490066225				0.752529801324503	-0.144529801324503	-0.549721854304636	-4.23708609271523	-9.3364238410596	0.504370860927152				0.948026490066225	0.0674966887417219	0.165933774834437	-1.4482119205298	-2.18807947019868	-4.25748344370861				0.703788079470199	-0.366834437086093	-0.548238410596027	-4.17960264900662	2.11761589403974	-6.91470198675497			
143	2860	0.967841059602649	0.0347549668874172	0.040476821192053	-5.00662251655629	0.695364238410596	-2.30490066225166				0.928953642384106	-0.0162119205298013	0.349139072847682	-7.96609271523179	3.66781456953642	-3.94596026490066				0.949827814569536	-0.129271523178808	-0.0879470198675496	-5.31258278145695	3.22649006622517	-0.48026490066225				0.768529801324503	-0.128529801324503	-0.565721854304636	-5.63708609271523	-8.7764238410596	-0.0556291390728476				0.948026490066225	0.0834966887417219	0.149933774834437	-3.1282119205298	-4.42807947019868	-3.97748344370861				0.703788079470199	-0.350834437086093	-0.564238410596026	-12.0196026490066	3.23761589403974	-4.11470198675497			
144	2880	0.951841059602649	0.0347549668874172	0.072476821192053	-1.92662251655629	4.6153642384106	-1.74490066225166				0.928953642384106	-0.0162119205298013	0.365139072847682	-7.96609271523179	4.78781456953642	-2.82596026490066				0.965827814569536	-0.129271523178808	-0.0719470198675496	-4.19258278145695	0.986490066225167	-0.20026490066225				0.768529801324503	-0.128529801324503	-0.565721854304636	-4.23708609271523	-8.7764238410596	-0.335629139072848				0.948026490066225	0.0994966887417219	0.197933774834437	-4.5282119205298	-3.02807947019868	-4.25748344370861				0.703788079470199	-0.302834437086093	-0.564238410596026	-8.09960264900662	1.83761589403974	-4.39470198675497			
145	2900	0.983841059602649	0.0347549668874172	0.104476821192053	-1.36662251655629	4.8953642384106	-2.02490066225166				0.944953642384106	-0.0162119205298013	0.365139072847682	-6.56609271523179	4.22781456953642	-3.38596026490066				0.965827814569536	-0.129271523178808	-0.10394701986755	-1.39258278145695	0.146490066225167	-1.04026490066225				0.768529801324503	-0.128529801324503	-0.581721854304636	-0.0370860927152318	-8.7764238410596	-1.45562913907285				0.948026490066225	0.0994966887417219	0.149933774834437	-3.9682119205298	-3.02807947019868	-4.81748344370861				0.703788079470199	-0.302834437086093	-0.564238410596026	-2.77960264900662	2.39761589403974	-6.91470198675497			
146	2920	0.983841059602649	0.0347549668874172	0.056476821192053	-1.64662251655629	1.8153642384106	-1.46490066225166				0.928953642384106	-0.0162119205298013	0.397139072847682	-4.60609271523179	2.26781456953642	-3.10596026490066				0.949827814569536	-0.129271523178808	-0.0879470198675496	0.00741721854304636	0.426490066225167	-1.60026490066225				0.768529801324503	-0.128529801324503	-0.581721854304636	-3.39708609271523	-8.4964238410596	-2.57562913907285				0.948026490066225	0.0834966887417219	0.149933774834437	-0.608211920529802	-3.02807947019868	-3.41748344370861				0.719788079470199	-0.302834437086093	-0.564238410596026	-0.819602649006623	2.11761589403974	-8.31470198675497			
147	2940	0.983841059602649	0.0347549668874172	0.024476821192053	-0.246622516556291	-1.2646357615894	-0.904900662251656				0.928953642384106	-0.000211920529801304	0.397139072847682	-3.48609271523179	1.70781456953642	-3.94596026490066				0.965827814569536	-0.129271523178808	-0.0719470198675496	1.12741721854305	-0.133509933774833	-0.76026490066225				0.768529801324503	-0.128529801324503	-0.565721854304636	-5.35708609271523	-8.2164238410596	-3.97562913907285				0.932026490066225	0.115496688741722	0.181933774834437	0.791788079470198	-1.62807947019868	-3.97748344370861				0.719788079470199	-0.302834437086093	-0.564238410596026	-2.49960264900662	1.27761589403974	-7.47470198675497			
148	2960	0.967841059602649	0.0347549668874172	0.040476821192053	1.71337748344371	-1.2646357615894	-1.18490066225166				0.928953642384106	-0.000211920529801304	0.397139072847682	-0.686092715231788	4.50781456953642	-1.42596026490066				0.981827814569536	-0.145271523178808	-0.0719470198675496	0.00741721854304636	-0.413509933774833	-0.76026490066225				0.752529801324503	-0.128529801324503	-0.565721854304636	-4.51708609271523	-6.5364238410596	-3.41562913907285				0.948026490066225	0.131496688741722	0.165933774834437	0.511788079470198	-1.62807947019868	-4.25748344370861				0	0	0	0	0	0			
149	2980	0.967841059602649	0.0347549668874172	0.072476821192053	2.55337748344371	-0.704635761589404	-1.18490066225166				0.944953642384106	-0.0162119205298013	0.381139072847682	2.67390728476821	3.38781456953642	-0.585960264900661				0	0	0	0	0	0				0.752529801324503	-0.112529801324503	-0.549721854304636	-3.95708609271523	-4.2964238410596	-3.13562913907285				0.948026490066225	0.115496688741722	0.181933774834437	3.0317880794702	-1.06807947019868	-4.53748344370861				0.703788079470199	-0.302834437086093	-0.548238410596027	0.300397350993377	-0.402384105960265	-7.75470198675497			
150	3000	0	0	0	0	0	0				0	0	0	0	0	0				0.965827814569536	-0.145271523178808	-0.0879470198675496	1.68741721854305	-2.09350993377483	-0.48026490066225				0.752529801324503	-0.112529801324503	-0.565721854304636	-2.27708609271523	-2.8964238410596	-4.25562913907285				0.948026490066225	0.0994966887417219	0.149933774834437	1.9117880794702	-0.788079470198675	-3.41748344370861				0.719788079470199	-0.302834437086093	-0.564238410596026	0.0203973509933773	-1.24238410596026	-8.31470198675497			
151	3020	0.967841059602649	0.0187549668874172	0.056476821192053	1.99337748344371	-0.704635761589404	-1.18490066225166				0.928953642384106	-0.0322119205298013	0.381139072847682	0.153907284768212	2.54781456953642	0.25403973509934				0.949827814569536	-0.145271523178808	-0.10394701986755	4.48741721854305	-0.973509933774833	-0.76026490066225				0.768529801324503	-0.112529801324503	-0.581721854304636	2.20291390728477	-0.6564238410596	-3.69562913907285				0.948026490066225	0.0994966887417219	0.165933774834437	1.0717880794702	0.0519205298013249	-3.41748344370861				0.719788079470199	-0.318834437086093	-0.564238410596026	1.14039735099338	-2.08238410596027	-7.19470198675497			
152	3040	0.967841059602649	0.0347549668874172	0.024476821192053	1.99337748344371	-1.5446357615894	-0.624900662251656				0.928953642384106	-0.0162119205298013	0.365139072847682	-0.126092715231788	1.14781456953642	-0.0259602649006601				0.949827814569536	-0.145271523178808	-0.0879470198675496	3.92741721854305	-0.133509933774833	-1.04026490066225				0.752529801324503	-0.112529801324503	-0.581721854304636	4.72291390728477	0.4635761589404	-2.57562913907285				0.948026490066225	0.0994966887417219	0.165933774834437	2.1917880794702	-1.62807947019868	-3.13748344370861				0.735788079470199	-0.318834437086093	-0.548238410596027	0.300397350993377	-2.08238410596027	-6.63470198675497			
153	3060	0.967841059602649	0.0347549668874172	0.00847682119205304	2.55337748344371	-1.8246357615894	-1.46490066225166				0.928953642384106	-0.000211920529801304	0.349139072847682	-0.126092715231788	1.42781456953642	-0.30596026490066				0.949827814569536	-0.161271523178808	-0.0879470198675496	2.52741721854305	-1.53350993377483	-0.20026490066225				0.752529801324503	-0.128529801324503	-0.581721854304636	3.60291390728477	-2.0564238410596	-2.29562913907285				0.948026490066225	0.0994966887417219	0.181933774834437	1.3517880794702	-3.30807947019868	-2.85748344370861				0.735788079470199	-0.302834437086093	-0.564238410596026	2.54039735099338	-2.92238410596027	-5.79470198675497			
154	3080	0.967841059602649	0.0187549668874172	0.040476821192053	3.11337748344371	-1.5446357615894	-1.18490066225166				0.944953642384106	-0.0482119205298013	0.365139072847682	0.993907284768212	1.70781456953642	0.81403973509934				0.981827814569536	-0.161271523178808	-0.0879470198675496	3.92741721854305	-1.81350993377483	-0.76026490066225				0.736529801324503	-0.128529801324503	-0.597721854304636	-0.597086092715232	-3.4564238410596	-3.13562913907285				0.948026490066225	0.0834966887417219	0.181933774834437	1.6317880794702	-1.06807947019868	-1.73748344370861				0.719788079470199	-0.318834437086093	-0.580238410596026	3.38039735099338	-3.76238410596027	-6.91470198675497			
155	3100	0.983841059602649	0.00275496688741723	0.056476821192053	0.593377483443709	-0.984635761589404	-0.624900662251656				0.944953642384106	-0.0322119205298013	0.365139072847682	0.153907284768212	1.70781456953642	-0.30596026490066				0.965827814569536	-0.161271523178808	-0.10394701986755	3.92741721854305	-1.81350993377483	-0.48026490066225				0.752529801324503	-0.128529801324503	-0.597721854304636	-1.43708609271523	-4.5764238410596	-2.57562913907285				0.948026490066225	0.0834966887417219	0.149933774834437	1.0717880794702	-2.18807947019868	-2.29748344370861				0.719788079470199	-0.318834437086093	-0.564238410596026	2.54039735099338	-3.76238410596027	-5.51470198675497			
156	3120	0.983841059602649	0.0187549668874172	0.040476821192053	0.593377483443709	-0.704635761589404	-0.624900662251656				0.928953642384106	-0.0322119205298013	0.381139072847682	-1.52609271523179	1.42781456953642	-0.30596026490066				0.949827814569536	-0.161271523178808	-0.0879470198675496	1.68741721854305	-1.25350993377483	-1.04026490066225				0.768529801324503	-0.128529801324503	-0.581721854304636	-0.597086092715232	-4.0164238410596	-1.73562913907285				0.964026490066225	0.0994966887417219	0.165933774834437	-0.608211920529802	-1.34807947019868	-1.73748344370861				0.719788079470199	-0.318834437086093	-0.564238410596026	0.580397350993377	-1.24238410596026	-2.99470198675497			
157	3140	0.983841059602649	0.0187549668874172	0.024476821192053	0.873377483443709	-2.1046357615894	-1.18490066225166				0.928953642384106	-0.0322119205298013	0.381139072847682	-1.24609271523179	2.82781456953642	-0.0259602649006601				0.949827814569536	-0.161271523178808	-0.0879470198675496	-1.11258278145695	-0.973509933774833	-0.48026490066225				0.752529801324503	-0.144529801324503	-0.597721854304636	0.802913907284768	-3.4564238410596	-0.0556291390728476				0.964026490066225	0.115496688741722	0.149933774834437	0.791788079470198	-1.90807947019868	-2.01748344370861				0.719788079470199	-0.318834437086093	-0.564238410596026	0.580397350993377	-0.962384105960265	-2.99470198675497			
158	3160	0.967841059602649	0.0187549668874172	0.024476821192053	0.593377483443709	-2.3846357615894	-0.624900662251656				0.944953642384106	-0.0482119205298013	0.365139072847682	-1.24609271523179	2.54781456953642	0.81403973509934				0.965827814569536	-0.161271523178808	-0.0879470198675496	0.287417218543046	-0.693509933774834	-0.48026490066225				0.736529801324503	-0.144529801324503	-0.597721854304636	-0.877086092715232	-4.0164238410596	1.06437086092715				0.948026490066225	0.0834966887417219	0.165933774834437	1.3517880794702	-2.46807947019868	-0.897483443708608				0.735788079470199	-0.318834437086093	-0.564238410596026	0.0203973509933773	-0.402384105960265	-2.99470198675497			
159	3180	0.967841059602649	0.0187549668874172	0.040476821192053	0.313377483443709	-0.424635761589404	-0.624900662251656				0.944953642384106	-0.0322119205298013	0.365139072847682	-3.48609271523179	3.94781456953642	-0.0259602649006601				0.965827814569536	-0.145271523178808	-0.0879470198675496	-0.272582781456954	-1.81350993377483	-1.04026490066225				0.736529801324503	-0.128529801324503	-0.597721854304636	-0.597086092715232	-5.4164238410596	1.06437086092715				0.948026490066225	0.0834966887417219	0.149933774834437	-1.1682119205298	-1.90807947019868	-0.897483443708608				0.719788079470199	-0.334834437086093	-0.564238410596026	-0.259602649006623	-2.08238410596027	-2.71470198675497			
160	3200	0.951841059602649	0.00275496688741723	0.040476821192053	-0.246622516556291	0.975364238410596	-0.904900662251656				0.928953642384106	-0.0322119205298013	0.381139072847682	-4.32609271523179	3.38781456953642	-0.0259602649006601				0.949827814569536	-0.161271523178808	-0.0879470198675496	-1.39258278145695	-1.25350993377483	-1.04026490066225				0.768529801324503	-0.144529801324503	-0.597721854304636	0.242913907284768	-5.1364238410596	0.224370860927152				0.964026490066225	0.0834966887417219	0.165933774834437	-2.0082119205298	-2.18807947019868	-0.0574834437086077				0.719788079470199	-0.334834437086093	-0.548238410596027	-1.37960264900662	-1.52238410596026	-2.99470198675497			
161	3220	0.983841059602649	0.00275496688741723	0.040476821192053	-0.246622516556291	-0.424635761589404	-1.18490066225166				0.944953642384106	-0.0322119205298013	0.381139072847682	-3.20609271523179	0.587814569536424	-0.86596026490066				0.949827814569536	-0.145271523178808	-0.0879470198675496	-2.79258278145695	0.146490066225167	0.0797350993377501				0.768529801324503	-0.160529801324503	-0.597721854304636	-2.55708609271523	-5.6964238410596	1.62437086092715				0.964026490066225	0.0994966887417219	0.149933774834437	-2.0082119205298	-3.02807947019868	-0.617483443708608				0.735788079470199	-0.302834437086093	-0.564238410596026	-1.37960264900662	-1.24238410596026	-3.55470198675497			
162	3240	0.967841059602649	0.0187549668874172	-0.00752317880794696	0.313377483443709	-2.1046357615894	-0.0649006622516557				0.928953642384106	-0.0322119205298013	0.365139072847682	-0.966092715231788	-0.532185430463576	-0.86596026490066				0.965827814569536	-0.161271523178808	-0.0879470198675496	-2.79258278145695	-0.973509933774833	-0.20026490066225				0.752529801324503	-0.128529801324503	-0.597721854304636	-6.75708609271523	-5.4164238410596	1.06437086092715				0.964026490066225	0.0994966887417219	0.149933774834437	-2.0082119205298	-3.86807947019868	0.222516556291392				0.719788079470199	-0.302834437086093	-0.564238410596026	1.14039735099338	-0.122384105960265	-4.39470198675497			
163	3260	0.983841059602649	0.0347549668874172	0.00847682119205304	-1.64662251655629	-3.2246357615894	-0.624900662251656				0.944953642384106	-0.0482119205298013	0.365139072847682	-0.406092715231788	-1.93218543046358	0.25403973509934				0.949827814569536	-0.161271523178808	-0.10394701986755	-1.11258278145695	-1.53350993377483	-0.20026490066225				0.736529801324503	-0.112529801324503	-0.581721854304636	-4.79708609271523	-5.1364238410596	1.34437086092715				0.948026490066225	0.115496688741722	0.165933774834437	-2.2882119205298	-4.42807947019868	1.34251655629139				0.703788079470199	-0.318834437086093	-0.580238410596026	0.300397350993377	-0.682384105960265	-2.99470198675497			
164	3280	0.967841059602649	0.0187549668874172	0.024476821192053	-1.08662251655629	-2.6646357615894	-0.0649006622516557				0.944953642384106	-0.0322119205298013	0.365139072847682	-2.64609271523179	-0.252185430463576	0.25403973509934				0.949827814569536	-0.145271523178808	-0.0879470198675496	-0.552582781456954	-0.693509933774834	-0.48026490066225				0.736529801324503	-0.112529801324503	-0.597721854304636	-0.0370860927152318	-3.4564238410596	2.46437086092715				0.948026490066225	0.0994966887417219	0.149933774834437	-1.1682119205298	-4.42807947019868	1.06251655629139				0.703788079470199	-0.302834437086093	-0.564238410596026	-1.93960264900662	-1.52238410596026	-0.474701986754968			
165	3300	0.967841059602649	0.0187549668874172	0.024476821192053	1.15337748344371	0.135364238410596	0.215099337748344				0.944953642384106	-0.0322119205298013	0.365139072847682	-4.04609271523179	0.0278145695364242	-0.0259602649006601				0.965827814569536	-0.145271523178808	-0.10394701986755	-2.51258278145695	-0.133509933774833	0.0797350993377501				0.752529801324503	-0.144529801324503	-0.613721854304636	1.64291390728477	-1.7764238410596	2.74437086092715				0.948026490066225	0.0994966887417219	0.149933774834437	-0.328211920529802	-3.86807947019868	0.502516556291392				0.703788079470199	-0.302834437086093	-0.564238410596026	-1.65960264900662	-1.24238410596026	-0.474701986754968			
166	3320	0.967841059602649	0.0187549668874172	0.040476821192053	0.593377483443709	0.135364238410596	-0.624900662251656				0.928953642384106	-0.0322119205298013	0.365139072847682	-3.20609271523179	-1.37218543046358	0.53403973509934				0.965827814569536	-0.145271523178808	-0.10394701986755	-4.19258278145695	-0.693509933774834	0.0797350993377501				0.736529801324503	-0.144529801324503	-0.613721854304636	-0.597086092715232	-2.3364238410596	1.62437086092715				0.948026490066225	0.0834966887417219	0.149933774834437	-1.4482119205298	-3.02807947019868	1.06251655629139				0.703788079470199	-0.302834437086093	-0.580238410596026	-1.09960264900662	-0.682384105960265	-0.754701986754968			
167	3340	0.983841059602649	0.0187549668874172	0.024476821192053	0.593377483443709	-1.5446357615894	-0.344900662251656				0.928953642384106	-0.0322119205298013	0.381139072847682	-2.64609271523179	-1.65218543046358	-0.0259602649006601				0.965827814569536	-0.145271523178808	-0.11994701986755	-3.07258278145695	-1.53350993377483	-0.20026490066225				0.736529801324503	-0.128529801324503	-0.613721854304636	-3.95708609271523	-3.1764238410596	0.504370860927152				0.948026490066225	0.0834966887417219	0.149933774834437	-1.1682119205298	-2.46807947019868	0.222516556291392				0.703788079470199	-0.302834437086093	-0.580238410596026	0.0203973509933773	-0.402384105960265	-1.31470198675497			
168	3360	0.967841059602649	0.0347549668874172	0.00847682119205304	-0.526622516556291	-2.9446357615894	-0.344900662251656				0.928953642384106	-0.0162119205298013	0.365139072847682	-2.08609271523179	-1.37218543046358	0.25403973509934				0.949827814569536	-0.129271523178808	-0.10394701986755	-3.63258278145695	-2.37350993377483	0.0797350993377501				0.736529801324503	-0.128529801324503	-0.613721854304636	-2.55708609271523	-3.1764238410596	0.224370860927152				0.948026490066225	0.0994966887417219	0.133933774834437	-1.1682119205298	-4.42807947019868	0.782516556291392				0.703788079470199	-0.302834437086093	-0.580238410596026	-0.819602649006623	-1.24238410596026	-1.59470198675497			
169	3380	0.967841059602649	0.0347549668874172	0.024476821192053	-0.806622516556291	-3.2246357615894	-0.0649006622516557				0.944953642384106	-0.0162119205298013	0.365139072847682	-1.80609271523179	-1.93218543046358	0.25403973509934				0.965827814569536	-0.129271523178808	-0.10394701986755	-1.95258278145695	-1.81350993377483	-0.48026490066225				0.752529801324503	-0.144529801324503	-0.597721854304636	-1.99708609271523	-3.7364238410596	0.224370860927152				0.948026490066225	0.131496688741722	0.149933774834437	-0.328211920529802	1.73192052980133	-0.0574834437086077				0.719788079470199	-0.270834437086093	-0.580238410596026	-2.49960264900662	-0.962384105960265	-1.31470198675497			
170	3400	0.967841059602649	0.0347549668874172	0.040476821192053	0.0333774834437086	-0.704635761589404	0.215099337748344				0.928953642384106	-0.0162119205298013	0.349139072847682	-0.966092715231788	-1.09218543046358	-0.585960264900661				0.965827814569536	-0.129271523178808	-0.11994701986755	-1.39258278145695	-3.21350993377483	-0.48026490066225				0.752529801324503	-0.144529801324503	-0.597721854304636	-3.39708609271523	-3.1764238410596	1.62437086092715				0.948026490066225	0.0994966887417219	0.117933774834437	0.791788079470198	-2.74807947019868	0.502516556291392				0.719788079470199	-0.286834437086093	-0.596238410596026	-1.37960264900662	-0.402384105960265	-3.55470198675497			
171	3420	0.967841059602649	0.0187549668874172	0.056476821192053	1.71337748344371	1.5353642384106	-0.0649006622516557				0.944953642384106	-0.0162119205298013	0.349139072847682	-0.686092715231788	-1.65218543046358	0.53403973509934				0.949827814569536	-0.145271523178808	-0.10394701986755	0.00741721854304636	-2.37350993377483	-1.04026490066225				0.720529801324503	-0.144529801324503	-0.597721854304636	-2.83708609271523	-2.8964238410596	1.62437086092715				0.948026490066225	0.0834966887417219	0.133933774834437	-0.888211920529802	-1.34807947019868	-0.0574834437086077				0.687788079470199	-0.270834437086093	-0.580238410596026	2.82039735099338	-1.80238410596026	-5.51470198675497			
172	3440	0.983841059602649	0.0187549668874172	0.040476821192053	1.43337748344371	0.695364238410596	-0.0649006622516557				0.928953642384106	-0.0162119205298013	0.365139072847682	-0.126092715231788	-1.37218543046358	0.25403973509934				0.965827814569536	-0.129271523178808	-0.11994701986755	-0.272582781456954	-0.133509933774833	-0.48026490066225				0.720529801324503	-0.128529801324503	-0.597721854304636	3.04291390728477	0.4635761589404	1.34437086092715				0.964026490066225	0.0834966887417219	0.117933774834437	-2.2882119205298	-0.508079470198675	-0.0574834437086077				0.687788079470199	-0.302834437086093	-0.580238410596026	2.26039735099338	-2.08238410596027	-6.35470198675497			
173	3460	0.983841059602649	0.0347549668874172	-0.00752317880794696	-0.246622516556291	-2.3846357615894	-0.624900662251656				0.928953642384106	-0.0162119205298013	0.365139072847682	0.713907284768212	-3.61218543046358	0.53403973509934				0.965827814569536	-0.145271523178808	-0.11994701986755	-0.552582781456954	-0.413509933774833	-0.76026490066225				0.736529801324503	-0.128529801324503	-0.597721854304636	3.32291390728477	1.3035761589404	1.06437086092715				0.964026490066225	0.0834966887417219	0.117933774834437	0.791788079470198	-1.62807947019868	-0.337483443708608				0.687788079470199	-0.302834437086093	-0.580238410596026	-0.819602649006623	-0.402384105960265	-6.35470198675497			
174	3480	0.967841059602649	0.0347549668874172	-0.00752317880794696	0.873377483443709	-3.7846357615894	-0.0649006622516557				0.960953642384106	-0.0162119205298013	0.333139072847682	1.27390728476821	-3.05218543046358	-0.0259602649006601				0.981827814569536	-0.145271523178808	-0.10394701986755	1.12741721854305	-0.133509933774833	-0.76026490066225				0.752529801324503	-0.144529801324503	-0.613721854304636	1.64291390728477	0.1835761589404	1.06437086092715				0.964026490066225	0.0994966887417219	0.133933774834437	1.6317880794702	-1.90807947019868	0.502516556291392				0.703788079470199	-0.286834437086093	-0.596238410596026	-0.819602649006623	-0.122384105960265	-5.79470198675497			
175	3500	0.967841059602649	0.0187549668874172	0.00847682119205304	4.79337748344371	-2.6646357615894	0.215099337748344				0.944953642384106	-0.0322119205298013	0.333139072847682	2.95390728476821	-1.09218543046358	-0.30596026490066				0.965827814569536	-0.145271523178808	-0.11994701986755	2.24741721854305	-1.81350993377483	0.0797350993377501				0.752529801324503	-0.144529801324503	-0.613721854304636	3.60291390728477	-0.6564238410596	1.34437086092715				0.964026490066225	0.0834966887417219	0.117933774834437	1.9117880794702	-1.62807947019868	0.502516556291392				0.703788079470199	-0.286834437086093	-0.612238410596026	0.0203973509933773	-1.24238410596026	-5.23470198675497			
176	3520	0.967841059602649	0.00275496688741723	0.040476821192053	4.79337748344371	-0.424635761589404	-0.344900662251656				0.960953642384106	-0.0322119205298013	0.349139072847682	3.51390728476821	-3.05218543046358	0.81403973509934				0.949827814569536	-0.161271523178808	-0.13594701986755	3.64741721854305	-1.53350993377483	0.35973509933775				0.752529801324503	-0.160529801324503	-0.613721854304636	4.72291390728477	-0.6564238410596	1.34437086092715				0.964026490066225	0.0834966887417219	0.133933774834437	4.1517880794702	-1.06807947019868	-0.897483443708608				0.703788079470199	-0.286834437086093	-0.596238410596026	1.98039735099338	-0.122384105960265	-4.95470198675497			
177	3540	0.967841059602649	-0.0132450331125828	0.040476821192053	2.27337748344371	0.975364238410596	-0.0649006622516557				0.944953642384106	-0.0322119205298013	0.365139072847682	1.83390728476821	-2.21218543046358	0.81403973509934				0.949827814569536	-0.145271523178808	-0.11994701986755	1.68741721854305	-0.693509933774834	0.35973509933775				0.736529801324503	-0.160529801324503	-0.629721854304636	0.802913907284768	-0.6564238410596	-0.615629139072848				0.964026490066225	0.0834966887417219	0.117933774834437	2.7517880794702	-1.90807947019868	-1.17748344370861				0.719788079470199	-0.302834437086093	-0.596238410596026	0.860397350993377	0.437615894039735	-3.83470198675497			
