No	Time	12-AccX	12-AccY	12-AccZ	12-GyroX	12-GyroY	12-GyroZ	13-AccX	13-AccY	13-AccZ	13-GyroX	13-GyroY	13-GyroZ	14-AccX	14-AccY	14-AccZ	14-GyroX	14-GyroY	14-GyroZ	15-AccX	15-AccY	15-AccZ	15-GyroX	15-GyroY	15-GyroZ	16-AccX	16-AccY	16-AccZ	16-GyroX	16-GyroY	16-GyroZ	17-AccX	17-AccY	17-AccZ	17-GyroX	17-GyroY	17-GyroZ
0	20	-0.248158940397351	0.162754966887417	-0.935523178807947	0.0333774834437086	0.415364238410596	-0.344900662251656				0.976953642384106	0.0477880794701987	0.141139072847682	-3.48609271523179	1.70781456953642	-2.82596026490066				-0.234172185430464	-0.241271523178808	-0.85594701986755	1.96741721854305	0.146490066225167	0.0797350993377501				0.608529801324503	-0.192529801324503	-0.709721854304636	6.96291390728477	3.5435761589404	4.98437086092715				0.964026490066225	0.0834966887417219	0.181933774834437	-5.0882119205298	-4.70807947019868	-2.85748344370861				0.511788079470199	-0.126834437086093	-0.820238410596026	-7.81960264900662	0.437615894039735	3.72529801324503			
1	40	-0.248158940397351	0.162754966887417	-0.919523178807947	0.0333774834437086	1.2553642384106	-0.344900662251656				0.992953642384106	0.0637880794701987	0.109139072847682	-1.24609271523179	-3.05218543046358	-1.14596026490066				-0.234172185430464	-0.225271523178808	-0.85594701986755	0.567417218543046	0.146490066225167	0.91973509933775				0.624529801324503	-0.240529801324503	-0.741721854304636	5.84291390728477	2.1435761589404	3.02437086092715				0.964026490066225	0.0674966887417219	0.165933774834437	-3.6882119205298	-3.58807947019868	-1.17748344370861				0.495788079470199	-0.126834437086093	-0.836238410596026	-4.45960264900662	0.157615894039735	6.24529801324503			
2	60	-0.248158940397351	0.162754966887417	-0.919523178807947	-0.806622516556291	1.2553642384106	-0.344900662251656				0.992953642384106	0.0317880794701987	0.125139072847682	-0.686092715231788	-3.89218543046358	-2.26596026490066				-0.250172185430464	-0.225271523178808	-0.83994701986755	-1.11258278145695	0.146490066225167	0.35973509933775				0.640529801324503	-0.224529801324503	-0.709721854304636	-2.27708609271523	-0.6564238410596	2.18437086092715				0.948026490066225	0.0514966887417219	0.165933774834437	-6.2082119205298	-1.06807947019868	-0.337483443708608				0.495788079470199	-0.126834437086093	-0.820238410596026	-6.13960264900662	-0.682384105960265	7.64529801324503			
3	80	-0.264158940397351	0.162754966887417	-0.919523178807947	-0.806622516556291	0.975364238410596	-0.344900662251656				0.992953642384106	0.0477880794701987	0.125139072847682	-2.08609271523179	-4.73218543046358	-3.66596026490066				-0.250172185430464	-0.225271523178808	-0.85594701986755	-0.552582781456954	0.146490066225167	1.19973509933775				0.640529801324503	-0.208529801324503	-0.677721854304636	-5.63708609271523	-5.1364238410596	0.504370860927152				0.948026490066225	0.0514966887417219	0.165933774834437	-7.0482119205298	1.17192052980133	0.222516556291392				0.495788079470199	-0.126834437086093	-0.820238410596026	-6.97960264900662	-1.52238410596026	8.20529801324503			
4	100	-0.248158940397351	0.162754966887417	-0.935523178807947	-1.64662251655629	0.695364238410596	-0.624900662251656				0.992953642384106	0.0477880794701987	0.125139072847682	-3.48609271523179	-8.09218543046358	-3.38596026490066				-0.234172185430464	-0.225271523178808	-0.87194701986755	-1.95258278145695	0.706490066225167	-0.48026490066225				0.640529801324503	-0.192529801324503	-0.661721854304636	-3.11708609271523	-5.4164238410596	1.06437086092715				0.964026490066225	0.0514966887417219	0.181933774834437	-7.8882119205298	0.331920529801325	-0.337483443708608				0.495788079470199	-0.126834437086093	-0.820238410596026	-7.81960264900662	-2.36238410596027	10.445298013245			
5	120	-0.248158940397351	0.162754966887417	-0.919523178807947	-2.48662251655629	0.135364238410596	-0.624900662251656				0.960953642384106	0.0797880794701987	0.0931390728476822	-2.36609271523179	-12.2921854304636	-2.54596026490066				-0.234172185430464	-0.225271523178808	-0.83994701986755	-0.552582781456954	0.706490066225167	-0.48026490066225				0.640529801324503	-0.192529801324503	-0.693721854304636	5.84291390728477	-3.7364238410596	2.74437086092715				0.964026490066225	0.0674966887417219	0.181933774834437	-5.6482119205298	-3.02807947019868	-0.337483443708608				0.495788079470199	-0.126834437086093	-0.788238410596027	-6.13960264900662	-2.64238410596027	11.005298013245			
6	140	-0.248158940397351	0.162754966887417	-0.919523178807947	-2.48662251655629	0.695364238410596	0.215099337748344				0.976953642384106	0.0637880794701987	0.0771390728476822	-1.80609271523179	-10.3321854304636	-1.98596026490066				-0.250172185430464	-0.225271523178808	-0.85594701986755	-2.51258278145695	-0.693509933774834	-0.48026490066225				0.640529801324503	-0.224529801324503	-0.709721854304636	5.56291390728477	-2.8964238410596	3.02437086092715				0.948026490066225	0.0674966887417219	0.165933774834437	-4.8082119205298	-4.14807947019868	1.34251655629139				0.479788079470199	-0.110834437086093	-0.820238410596026	-9.49960264900662	-1.24238410596026	11.285298013245			
7	160	-0.248158940397351	0.162754966887417	-0.935523178807947	-1.08662251655629	1.5353642384106	0.215099337748344				1.00895364238411	0.0637880794701987	0.141139072847682	-1.80609271523179	-13.9721854304636	-4.22596026490066				-0.234172185430464	-0.225271523178808	-0.87194701986755	0.00741721854304636	-0.133509933774833	-0.48026490066225				0.608529801324503	-0.240529801324503	-0.677721854304636	-0.597086092715232	-2.3364238410596	3.30437086092715				0.948026490066225	0.0514966887417219	0.165933774834437	-4.5282119205298	-3.30807947019868	1.90251655629139				0.463788079470199	-0.110834437086093	-0.804238410596027	-7.25960264900662	-0.402384105960265	10.165298013245			
8	180	-0.232158940397351	0.162754966887417	-0.919523178807947	-2.48662251655629	2.0953642384106	0.215099337748344				0.976953642384106	0.0797880794701987	0.125139072847682	0.433907284768212	-22.9321854304636	-4.78596026490066				-0.218172185430464	-0.225271523178808	-0.87194701986755	0.287417218543046	0.706490066225167	-1.04026490066225				0.608529801324503	-0.224529801324503	-0.661721854304636	0.242913907284768	-0.3764238410596	4.42437086092715				0.932026490066225	0.0514966887417219	0.181933774834437	-4.5282119205298	-1.62807947019868	1.06251655629139				0.463788079470199	-0.110834437086093	-0.804238410596027	-5.85960264900662	1.27761589403974	8.48529801324503			
9	200	-0.232158940397351	0.162754966887417	-0.919523178807947	-2.76662251655629	1.2553642384106	0.775099337748344				0.960953642384106	0.0637880794701987	0.0771390728476822	3.23390728476821	-22.6521854304636	-3.10596026490066				-0.218172185430464	-0.209271523178808	-0.83994701986755	0.00741721854304636	0.426490066225167	-1.04026490066225				0.624529801324503	-0.224529801324503	-0.677721854304636	2.76291390728477	0.4635761589404	4.14437086092715				0.916026490066225	0.0514966887417219	0.197933774834437	0.231788079470198	3.13192052980133	3.02251655629139				0.463788079470199	-0.126834437086093	-0.804238410596027	-4.17960264900662	2.67761589403974	9.04529801324503			
10	220	-0.232158940397351	0.178754966887417	-0.935523178807947	-3.04662251655629	-0.424635761589404	1.33509933774834				0.960953642384106	0.0637880794701987	0.0451390728476822	2.11390728476821	-16.2121854304636	-3.66596026490066				-0.218172185430464	-0.225271523178808	-0.83994701986755	0.287417218543046	-1.25350993377483	-1.04026490066225				0.624529801324503	-0.240529801324503	-0.693721854304636	2.48291390728477	1.0235761589404	5.54437086092715				0.964026490066225	0.0514966887417219	0.133933774834437	-0.888211920529802	-2.18807947019868	2.18251655629139				0.479788079470199	-0.126834437086093	-0.788238410596027	-7.25960264900662	2.95761589403974	9.32529801324503			
11	240	-0.232158940397351	0.178754966887417	-0.919523178807947	-2.48662251655629	-0.424635761589404	0.495099337748344				0.928953642384106	0.0797880794701987	0.0771390728476822	0.153907284768212	-8.65218543046358	-1.98596026490066				-0.234172185430464	-0.225271523178808	-0.85594701986755	0.847417218543046	-0.693509933774834	-1.60026490066225				0.624529801324503	-0.240529801324503	-0.677721854304636	0.242913907284768	1.3035761589404	4.14437086092715				0.932026490066225	0.0514966887417219	0.165933774834437	-5.6482119205298	0.611920529801325	0.502516556291392				0.479788079470199	-0.126834437086093	-0.804238410596027	-6.41960264900662	2.11761589403974	9.32529801324503			
12	260	-0.248158940397351	0.162754966887417	-0.935523178807947	-2.20662251655629	-0.424635761589404	1.05509933774834				0.960953642384106	0.0797880794701987	0.0771390728476822	2.95390728476821	-5.01218543046358	-1.42596026490066				-0.250172185430464	-0.225271523178808	-0.83994701986755	-1.67258278145695	-0.973509933774833	-0.76026490066225				0.592529801324503	-0.224529801324503	-0.677721854304636	2.76291390728477	2.9835761589404	5.54437086092715				0.916026490066225	0.0514966887417219	0.165933774834437	-6.4882119205298	-1.06807947019868	0.782516556291392				0.447788079470199	-0.126834437086093	-0.788238410596027	-5.85960264900662	3.23761589403974	8.20529801324503			
13	280	-0.280158940397351	0.178754966887417	-0.919523178807947	-1.64662251655629	-1.2646357615894	0.495099337748344				0.992953642384106	0.0797880794701987	0.0451390728476822	7.43390728476821	-8.93218543046358	-2.26596026490066				-0.266172185430464	-0.225271523178808	-0.85594701986755	-0.552582781456954	-3.21350993377483	0.63973509933775				0.576529801324503	-0.208529801324503	-0.693721854304636	4.44291390728477	4.9435761589404	5.82437086092715				0.932026490066225	0.0514966887417219	0.165933774834437	-2.2882119205298	0.611920529801325	0.502516556291392				0.431788079470199	-0.126834437086093	-0.788238410596027	-5.85960264900662	3.23761589403974	8.48529801324503			
14	300	-0.280158940397351	0.194754966887417	-0.903523178807947	-1.36662251655629	-1.2646357615894	0.215099337748344				1.00895364238411	0.0797880794701987	0.0131390728476822	4.63390728476821	-11.4521854304636	-1.42596026490066				-0.282172185430464	-0.225271523178808	-0.85594701986755	1.68741721854305	-2.93350993377483	0.63973509933775				0.608529801324503	-0.224529801324503	-0.677721854304636	8.36291390728477	6.6235761589404	5.54437086092715				0.964026490066225	0.0514966887417219	0.165933774834437	-0.0482119205298018	0.331920529801325	1.06251655629139				0.463788079470199	-0.126834437086093	-0.804238410596027	-8.65960264900662	6.59761589403974	9.88529801324503			
15	320	-0.280158940397351	0.178754966887417	-0.919523178807947	-2.48662251655629	-0.144635761589404	0.215099337748344				1.00895364238411	0.0797880794701987	0.0771390728476822	-3.20609271523179	-1.65218543046358	-1.98596026490066				-0.266172185430464	-0.225271523178808	-0.85594701986755	1.12741721854305	-0.693509933774834	0.91973509933775				0.624529801324503	-0.240529801324503	-0.677721854304636	3.88291390728477	8.3035761589404	5.82437086092715				0.980026490066225	0.0514966887417219	0.149933774834437	-2.0082119205298	0.891920529801325	1.34251655629139				0.463788079470199	-0.126834437086093	-0.820238410596026	-8.37960264900662	9.67761589403974	9.88529801324503			
16	340	-0.248158940397351	0.178754966887417	-0.919523178807947	-2.20662251655629	0.415364238410596	-0.904900662251656				0.992953642384106	0.111788079470199	0.0771390728476822	-1.24609271523179	-6.69218543046358	-2.54596026490066				-0.266172185430464	-0.225271523178808	-0.88794701986755	-0.832582781456954	-0.973509933774833	0.63973509933775				0.640529801324503	-0.256529801324503	-0.693721854304636	6.96291390728477	10.2635761589404	4.70437086092715				0.964026490066225	0.0514966887417219	0.149933774834437	-2.0082119205298	0.891920529801325	1.34251655629139				0.479788079470199	-0.110834437086093	-0.804238410596027	-8.65960264900662	12.1976158940397	7.08529801324503			
17	360	-0.264158940397351	0.194754966887417	-0.935523178807947	-1.36662251655629	-0.144635761589404	-0.624900662251656				0.992953642384106	0.0797880794701987	0.0131390728476822	3.23390728476821	-13.4121854304636	-1.70596026490066				-0.250172185430464	-0.209271523178808	-0.85594701986755	0.287417218543046	0.426490066225167	1.47973509933775				0.640529801324503	-0.272529801324503	-0.725721854304636	7.52291390728477	10.2635761589404	3.86437086092715				0.980026490066225	0.0514966887417219	0.165933774834437	-0.608211920529802	0.0519205298013249	-0.617483443708608				0.495788079470199	-0.110834437086093	-0.804238410596027	-10.0596026490066	9.67761589403974	4.84529801324503			
18	380	-0.248158940397351	0.194754966887417	-0.919523178807947	-1.92662251655629	1.5353642384106	-0.904900662251656				0.992953642384106	0.0797880794701987	0.0131390728476822	0.153907284768212	-6.41218543046358	-3.10596026490066				-0.250172185430464	-0.225271523178808	-0.85594701986755	-0.272582781456954	0.426490066225167	2.03973509933775				0.656529801324503	-0.288529801324503	-0.725721854304636	6.96291390728477	6.9035761589404	3.86437086092715				0.996026490066225	0.0354966887417219	0.165933774834437	-1.4482119205298	-0.788079470198675	-0.617483443708608				0.511788079470199	-0.0948344370860927	-0.836238410596026	-11.7396026490066	8.55761589403974	5.96529801324503			
19	400	-0.232158940397351	0.178754966887417	-0.919523178807947	-1.08662251655629	1.2553642384106	0.495099337748344				0.992953642384106	0.0957880794701987	0.0931390728476822	-6.00609271523179	1.70781456953642	-2.82596026490066				-0.218172185430464	-0.241271523178808	-0.87194701986755	-0.272582781456954	1.26649006622517	0.35973509933775				0.672529801324503	-0.288529801324503	-0.741721854304636	4.16291390728477	1.8635761589404	1.62437086092715				0.996026490066225	0.0514966887417219	0.149933774834437	-1.4482119205298	-0.788079470198675	-0.897483443708608				0.511788079470199	-0.110834437086093	-0.852238410596026	-10.3396026490066	11.0776158940397	6.24529801324503			
20	420	-0.232158940397351	0.178754966887417	-0.919523178807947	-1.08662251655629	0.135364238410596	-0.0649006622516557				0.976953642384106	0.0637880794701987	0.0771390728476822	-3.76609271523179	-1.37218543046358	-1.42596026490066				-0.218172185430464	-0.241271523178808	-0.83994701986755	1.40741721854305	1.26649006622517	0.35973509933775				0.672529801324503	-0.288529801324503	-0.741721854304636	-0.597086092715232	-1.4964238410596	0.504370860927152				0.964026490066225	0.0514966887417219	0.149933774834437	-2.8482119205298	-0.228079470198675	-2.01748344370861				0.495788079470199	-0.110834437086093	-0.836238410596026	-8.65960264900662	8.27761589403974	5.12529801324503			
21	440	-0.232158940397351	0.178754966887417	-0.935523178807947	-0.806622516556291	-0.144635761589404	-0.0649006622516557				1.02495364238411	0.0477880794701987	0.0771390728476822	-1.80609271523179	-10.3321854304636	-1.42596026490066				-0.218172185430464	-0.257271523178808	-0.83994701986755	0.00741721854304636	-0.693509933774834	1.19973509933775				0.640529801324503	-0.288529801324503	-0.709721854304636	-3.11708609271523	-8.4964238410596	-0.0556291390728476				0.932026490066225	0.0194966887417219	0.165933774834437	-4.2482119205298	0.331920529801325	-3.13748344370861				0.479788079470199	-0.110834437086093	-0.836238410596026	-9.49960264900662	1.83761589403974	4.56529801324503			
22	460	-0.232158940397351	0.162754966887417	-0.935523178807947	-0.806622516556291	0.135364238410596	0.495099337748344				0.992953642384106	0.0477880794701987	0.0611390728476822	-2.92609271523179	-14.5321854304636	-1.98596026490066				-0.218172185430464	-0.273271523178808	-0.85594701986755	-1.11258278145695	0.426490066225167	2.87973509933775				0.624529801324503	-0.272529801324503	-0.725721854304636	-12.3570860927152	-14.9364238410596	-1.73562913907285				0.932026490066225	0.00349668874172187	0.165933774834437	-4.5282119205298	2.57192052980133	-3.97748344370861				0.479788079470199	-0.0948344370860927	-0.852238410596026	-11.4596026490066	-1.52238410596026	5.96529801324503			
23	480	-0.248158940397351	0.146754966887417	-0.919523178807947	-1.36662251655629	0.695364238410596	0.775099337748344				0.960953642384106	0.0637880794701987	0.0611390728476822	-8.52609271523179	-8.93218543046358	-1.14596026490066				-0.234172185430464	-0.289271523178808	-0.82394701986755	-3.63258278145695	-0.133509933774833	3.15973509933775				0.608529801324503	-0.272529801324503	-0.709721854304636	-18.5170860927152	-19.9764238410596	-2.29562913907285				0.932026490066225	0.0354966887417219	0.149933774834437	-5.0882119205298	7.89192052980133	-3.69748344370861				0.479788079470199	-0.0948344370860927	-0.836238410596026	-8.93960264900662	-2.08238410596027	8.48529801324503			
24	500	-0.264158940397351	0.146754966887417	-0.935523178807947	-2.20662251655629	0.695364238410596	1.05509933774834				0.960953642384106	0.0477880794701987	0.0291390728476822	-6.84609271523179	-6.69218543046358	0.25403973509934				-0.250172185430464	-0.273271523178808	-0.85594701986755	-8.67258278145695	-2.65350993377483	5.67973509933775				0.576529801324503	-0.272529801324503	-0.693721854304636	-17.6770860927152	-18.5764238410596	-5.09562913907285				0.932026490066225	0.0194966887417219	0.149933774834437	-5.3682119205298	13.2119205298013	-3.13748344370861				0.479788079470199	-0.110834437086093	-0.836238410596026	-0.819602649006623	0.157615894039735	9.60529801324503			
25	520	-0.264158940397351	0.178754966887417	-0.903523178807947	-5.28662251655629	1.5353642384106	2.45509933774835				0.976953642384106	0.0637880794701987	0.0131390728476822	-8.24609271523179	-5.57218543046358	-1.42596026490066				-0.266172185430464	-0.273271523178808	-0.82394701986755	-5.87258278145695	-0.973509933774833	5.11973509933775				0.576529801324503	-0.256529801324503	-0.693721854304636	-15.7170860927152	-15.2164238410596	-6.21562913907285				0.964026490066225	0.0194966887417219	0.133933774834437	-4.2482119205298	12.9319205298013	-3.13748344370861				0.463788079470199	-0.110834437086093	-0.836238410596026	-2.21960264900662	4.07761589403974	9.32529801324503			
26	540	-0.264158940397351	0.162754966887417	-0.919523178807947	-6.68662251655629	0.975364238410596	2.45509933774835				0.960953642384106	0.0957880794701987	-0.0188609271523178	-8.24609271523179	-6.13218543046358	-3.10596026490066				-0.266172185430464	-0.193271523178808	-0.82394701986755	-6.15258278145695	-2.93350993377483	5.39973509933775				0.576529801324503	-0.208529801324503	-0.677721854304636	-14.3170860927152	-14.9364238410596	-6.77562913907285				0.964026490066225	0.0354966887417219	0.149933774834437	-6.2082119205298	9.29192052980133	-1.45748344370861				0.463788079470199	-0.126834437086093	-0.820238410596026	-3.33960264900662	6.59761589403974	11.565298013245			
27	560	-0.264158940397351	0.178754966887417	-0.919523178807947	-7.52662251655629	1.2553642384106	2.17509933774834				0.960953642384106	0.0957880794701987	-0.0348609271523178	-4.04609271523179	0.0278145695364242	-2.82596026490066				-0.282172185430464	-0.145271523178808	-0.85594701986755	-10.072582781457	-3.77350993377483	7.63973509933775				0.560529801324503	-0.192529801324503	-0.677721854304636	-12.9170860927152	-11.5764238410596	-4.81562913907285				0.964026490066225	0.0674966887417219	0.149933774834437	-5.3682119205298	6.21192052980133	-0.897483443708608				0.447788079470199	-0.142834437086093	-0.804238410596027	4.22039735099338	2.39761589403974	12.125298013245			
28	580	-0.264158940397351	0.178754966887417	-0.935523178807947	-4.44662251655629	0.975364238410596	2.45509933774835				0.960953642384106	0.0957880794701987	0.0131390728476822	-0.126092715231788	3.38781456953642	-2.54596026490066				-0.266172185430464	-0.161271523178808	-0.88794701986755	-10.352582781457	-2.09350993377483	6.51973509933775				0.576529801324503	-0.208529801324503	-0.693721854304636	-6.75708609271523	-5.6964238410596	-3.69562913907285				0.932026490066225	0.0514966887417219	0.149933774834437	-1.7282119205298	4.25192052980133	-0.0574834437086077				0.447788079470199	-0.142834437086093	-0.820238410596026	1.42039735099338	5.47761589403974	16.605298013245			
29	600	-0.264158940397351	0.194754966887417	-0.919523178807947	-6.40662251655629	1.5353642384106	2.17509933774834				0.976953642384106	0.111788079470199	-0.00286092715231785	1.55390728476821	0.587814569536424	-3.10596026490066				-0.282172185430464	-0.129271523178808	-0.87194701986755	-3.07258278145695	-0.693509933774834	5.39973509933775				0.576529801324503	-0.224529801324503	-0.709721854304636	0.522913907284768	-3.1764238410596	-3.69562913907285				0.932026490066225	0.0514966887417219	0.149933774834437	-0.608211920529802	2.85192052980133	0.502516556291392				0.447788079470199	-0.142834437086093	-0.820238410596026	-1.09960264900662	8.83761589403974	20.245298013245			
30	620	-0.248158940397351	0.210754966887417	-0.919523178807947	-6.68662251655629	1.2553642384106	2.17509933774834				0.976953642384106	0.111788079470199	-0.00286092715231785	-2.36609271523179	4.22781456953642	-4.22596026490066				-0.266172185430464	-0.145271523178808	-0.88794701986755	-4.47258278145695	0.146490066225167	3.15973509933775				0.608529801324503	-0.224529801324503	-0.725721854304636	-1.43708609271523	-1.7764238410596	-4.81562913907285				0.948026490066225	0.0514966887417219	0.149933774834437	-0.0482119205298018	6.21192052980133	0.222516556291392				0.463788079470199	-0.126834437086093	-0.788238410596027	-5.01960264900662	6.59761589403974	21.645298013245			
31	640	-0.248158940397351	0.210754966887417	-0.919523178807947	-6.96662251655629	1.2553642384106	1.61509933774834				0.976953642384106	0.127788079470199	-0.00286092715231785	-4.60609271523179	5.34781456953642	-4.22596026490066				-0.266172185430464	-0.177271523178808	-0.88794701986755	-3.63258278145695	-0.973509933774833	2.03973509933775				0.640529801324503	-0.208529801324503	-0.741721854304636	-3.95708609271523	-1.4964238410596	-5.93562913907285				0.996026490066225	0.0674966887417219	0.181933774834437	1.3517880794702	8.73192052980133	0.222516556291392				0.511788079470199	-0.142834437086093	-0.804238410596027	-7.81960264900662	6.03761589403974	23.325298013245			
32	660	-0.232158940397351	0.226754966887417	-0.919523178807947	-5.56662251655629	2.0953642384106	2.17509933774834				0.976953642384106	0.0957880794701987	-0.00286092715231785	-1.52609271523179	8.42781456953642	-3.10596026490066				-0.250172185430464	-0.209271523178808	-0.85594701986755	-3.91258278145695	-2.09350993377483	1.47973509933775				0.656529801324503	-0.224529801324503	-0.757721854304636	-2.27708609271523	-0.9364238410596	-4.81562913907285				0.996026490066225	0.0354966887417219	0.197933774834437	2.7517880794702	5.09192052980133	-0.897483443708608				0.527788079470199	-0.126834437086093	-0.820238410596026	-7.81960264900662	3.51761589403974	22.485298013245			
33	680	-0.232158940397351	0.210754966887417	-0.935523178807947	-5.28662251655629	1.2553642384106	1.61509933774834				0.992953642384106	0.0957880794701987	-0.00286092715231785	0.153907284768212	9.82781456953643	-2.54596026490066				-0.250172185430464	-0.225271523178808	-0.85594701986755	-2.79258278145695	-1.81350993377483	3.15973509933775				0.656529801324503	-0.256529801324503	-0.757721854304636	1.64291390728477	-3.4564238410596	-0.335629139072848				0.996026490066225	0.0514966887417219	0.197933774834437	0.791788079470198	-3.86807947019868	-1.73748344370861				0.527788079470199	-0.126834437086093	-0.852238410596026	-8.09960264900662	6.31761589403974	19.965298013245			
34	700	-0.232158940397351	0.210754966887417	-0.919523178807947	-6.12662251655629	1.2553642384106	2.17509933774834				1.04095364238411	0.111788079470199	0.109139072847682	-4.60609271523179	2.26781456953642	-5.06596026490066				-0.234172185430464	-0.289271523178808	-0.85594701986755	-3.35258278145695	-1.25350993377483	6.51973509933775				0.640529801324503	-0.288529801324503	-0.789721854304636	4.16291390728477	-12.1364238410596	-2.29562913907285				0.964026490066225	0.0674966887417219	0.181933774834437	-0.608211920529802	-6.10807947019868	-3.13748344370861				0.511788079470199	-0.0788344370860927	-0.884238410596026	-13.6996026490066	9.39761589403974	21.925298013245			
35	720	-0.248158940397351	0.210754966887417	-0.935523178807947	-4.16662251655629	2.9353642384106	1.89509933774834				1.00895364238411	0.0957880794701987	0.141139072847682	4.63390728476821	-33.0121854304636	-1.98596026490066				-0.234172185430464	-0.337271523178808	-0.85594701986755	-7.27258278145696	1.26649006622517	11.2797350993378				0.608529801324503	-0.304529801324503	-0.837721854304636	-0.317086092715232	-28.3764238410596	-8.73562913907285				0.868026490066225	0.0354966887417219	0.165933774834437	2.7517880794702	2.29192052980133	-2.85748344370861				0.495788079470199	-0.110834437086093	-0.884238410596026	-1.93960264900662	1.83761589403974	19.965298013245			
36	740	-0.248158940397351	0.226754966887417	-0.951523178807947	-6.12662251655629	5.1753642384106	2.73509933774834				0.976953642384106	0.0317880794701987	0.0131390728476822	8.27390728476821	-18.7321854304636	-0.585960264900661				-0.266172185430464	-0.273271523178808	-0.82394701986755	-12.032582781457	-0.693509933774834	13.2397350993378				0.608529801324503	-0.320529801324503	-0.885721854304636	-15.1570860927152	-45.1764238410596	-16.5756291390728				0.916026490066225	0.0194966887417219	0.181933774834437	-3.1282119205298	16.2919205298013	-5.65748344370861				0.463788079470199	-0.142834437086093	-0.900238410596026	13.4603973509934	-11.3223841059603	23.325298013245			
37	760	-0.200158940397351	0.258754966887417	-0.967523178807947	-9.20662251655629	6.2953642384106	5.81509933774834				0.960953642384106	0.0477880794701987	0.0611390728476822	-4.04609271523179	-7.81218543046358	-1.70596026490066				-0.250172185430464	-0.161271523178808	-0.83994701986755	-15.112582781457	4.62649006622517	10.4397350993378				0.688529801324503	-0.144529801324503	-0.901721854304636	-40.0770860927152	-62.2564238410596	-20.2156291390728				1.01202649006623	-0.0125033112582781	0.213933774834437	-2.8482119205298	14.3319205298013	-7.05748344370861				0.479788079470199	-0.174834437086093	-0.916238410596027	5.34039735099338	-8.52238410596027	26.685298013245			
38	780	-0.168158940397351	0.242754966887417	-0.935523178807947	-20.4066225165563	10.7753642384106	11.1350993377483				0.928953642384106	0.0797880794701987	-0.0348609271523178	-17.7660927152318	-19.0121854304636	-1.70596026490066				-0.218172185430464	-0.0812715231788079	-0.83994701986755	-12.592582781457	1.54649006622517	8.19973509933775				0.688529801324503	-0.0645298013245033	-0.933721854304636	-34.1970860927152	-77.0964238410596	-21.3356291390729				1.04402649006623	0.0194966887417219	0.149933774834437	-1.4482119205298	5.37192052980133	-6.49748344370861				0.543788079470199	-0.142834437086093	-0.916238410596027	10.1003973509934	-24.7623841059603	28.645298013245			
39	800	-0.216158940397351	0.162754966887417	-0.823523178807947	-39.7266225165563	-3.5046357615894	9.45509933774835				0.912953642384106	0.0797880794701987	-0.130860927152318	-20.2860927152318	-10.8921854304636	-1.42596026490066				-0.282172185430464	-0.0492715231788079	-0.88794701986755	-9.79258278145695	-3.49350993377483	7.35973509933775				0.592529801324503	-0.176529801324503	-0.917721854304636	-16.5570860927152	-87.4564238410596	-23.0156291390729				0.980026490066225	0.0834966887417219	0.0699337748344371	-1.1682119205298	-2.46807947019868	-3.41748344370861				0.575788079470199	-0.190834437086093	-0.948238410596026	-0.539602649006623	-27.8423841059603	35.365298013245			
40	820	-0.280158940397351	0.130754966887417	-0.855523178807947	-20.4066225165563	-7.1446357615894	4.13509933774834				0.992953642384106	0.0957880794701987	-0.0668609271523178	-9.64609271523179	-15.0921854304636	-4.22596026490066				-0.314172185430464	-0.0972715231788079	-0.88794701986755	-7.55258278145695	-4.33350993377483	4.83973509933775				0.496529801324503	-0.288529801324503	-0.933721854304636	-31.3970860927152	-110.41642384106	-16.2956291390729				0.916026490066225	0.163496688741722	0.117933774834437	2.4717880794702	1.17192052980133	1.06251655629139				0.463788079470199	-0.0788344370860927	-1.02823841059603	-5.85960264900662	-25.0423841059603	46.845298013245			
41	840	-0.280158940397351	0.258754966887417	-0.967523178807947	-5.84662251655629	0.695364238410596	1.89509933774834				1.04095364238411	0.0797880794701987	-0.130860927152318	-4.04609271523179	2.26781456953642	-0.86596026490066				-0.314172185430464	-0.193271523178808	-0.90394701986755	-1.95258278145695	-0.413509933774833	3.15973509933775				0.480529801324503	-0.272529801324503	-0.997721854304636	-49.0370860927152	-124.69642384106	-17.6956291390729				0.916026490066225	0.115496688741722	0.133933774834437	8.3517880794702	10.9719205298013	1.06251655629139				0.399788079470199	-0.0468344370860927	-0.996238410596026	3.66039735099338	-44.0823841059603	49.085298013245			
42	860	-0.280158940397351	0.258754966887417	-0.887523178807947	-28.5266225165563	-4.0646357615894	3.57509933774835				1.02495364238411	0.175788079470199	-0.0348609271523178	-6.56609271523179	-9.21218543046358	7.25403973509934				-0.266172185430464	-0.225271523178808	-0.83994701986755	1.96741721854305	0.426490066225167	2.87973509933775				0.432529801324503	-0.144529801324503	-0.997721854304636	-53.2370860927152	-125.53642384106	-15.7356291390728				1.04402649006623	0.131496688741722	0.0699337748344371	4.7117880794702	16.8519205298013	-1.17748344370861				0.399788079470199	-0.0468344370860927	-0.996238410596026	14.0203973509934	-65.6423841059603	45.445298013245			
43	880	-0.264158940397351	0.242754966887417	-0.919523178807947	-23.7666225165563	-3.2246357615894	4.41509933774834				0.912953642384106	0.207788079470199	-0.178860927152318	-8.24609271523179	-6.13218543046358	9.49403973509934				-0.298172185430464	-0.209271523178808	-0.80794701986755	-2.23258278145695	-4.89350993377483	7.07973509933775				0.400529801324503	-0.160529801324503	-0.997721854304636	-52.3970860927152	-122.45642384106	-12.3756291390728				1.14002649006623	0.163496688741722	0.00593377483443711	2.1917880794702	10.1319205298013	-0.617483443708608				0.431788079470199	-0.0948344370860927	-1.10823841059603	-5.85960264900662	-72.9223841059603	53.845298013245			
44	900	-0.296158940397351	0.210754966887417	-0.919523178807947	-9.20662251655629	-0.144635761589404	5.25509933774834				1.00895364238411	0.223788079470199	-0.130860927152318	-14.1260927152318	23.8278145695364	11.4540397350993				-0.330172185430464	-0.209271523178808	-0.90394701986755	-6.71258278145695	-3.77350993377483	10.7197350993378				0.240529801324503	-0.304529801324503	-1.06172185430464	-39.7970860927152	-110.13642384106	-11.5356291390728				1.10802649006623	0.227496688741722	0.00593377483443711	5.2717880794702	5.65192052980133	3.02251655629139				0.335788079470199	-0.0468344370860927	-1.20423841059603	-13.6996026490066	-65.3623841059603	60.005298013245			
45	920	-0.328158940397351	0.210754966887417	-0.871523178807947	-8.92662251655629	2.9353642384106	6.65509933774834				1.07295364238411	0.143788079470199	-0.0988609271523179	-6.56609271523179	33.3478145695364	20.4140397350993				-0.298172185430464	-0.193271523178808	-0.95194701986755	3.36741721854305	-4.33350993377483	9.31973509933775				0.160529801324503	-0.0485298013245033	-1.02972185430464	-82.0770860927152	-123.57642384106	-0.0556291390728476				0.996026490066225	0.211496688741722	0.00593377483443711	15.6317880794702	18.2519205298013	9.18251655629139				0.415788079470199	0.0491655629139073	-1.15623841059603	20.1803973509934	-67.6023841059603	50.765298013245			
46	940	-0.376158940397351	0.210754966887417	-0.935523178807947	-13.6866225165563	3.7753642384106	7.21509933774835				1.07295364238411	0.0317880794701987	-0.0348609271523178	-8.52609271523179	36.1478145695364	28.5340397350993				-0.362172185430464	-0.161271523178808	-0.95194701986755	7.84741721854305	-7.69350993377483	5.11973509933775				0	0	0	0	0	0				0	0	0	0	0	0				0	0	0	0	0	0			
47	960	-0.456158940397351	0.258754966887417	-1.11152317880795	-22.0866225165563	10.2153642384106	8.05509933774835				1.13695364238411	0.0317880794701987	-0.146860927152318	-18.6060927152318	40.9078145695364	24.0540397350993				-0.426172185430464	-0.145271523178808	-0.98394701986755	8.40741721854305	1.54649006622517	1.75973509933775				0.224529801324503	0.0634701986754967	-0.997721854304636	-84.3170860927152	-144.57642384106	-16.8556291390729				1.17202649006623	0.0834966887417219	0.117933774834437	29.0717880794702	16.0119205298013	18.7025165562914				0.207788079470199	-0.254834437086093	-1.06023841059603	44.8203973509934	-97.8423841059603	85.205298013245			
48	980	0	0	0	0	0	0				0	0	0	0	0	0				0	0	0	0	0	0				0.144529801324503	-0.0325298013245033	-1.18972185430464	-67.5170860927152	-149.61642384106	-16.2956291390729				1.25202649006623	0.0354966887417219	0.181933774834437	22.9117880794702	8.73192052980133	25.7025165562914				0.223788079470199	-0.334834437086093	-1.10823841059603	42.3003973509934	-73.2023841059603	91.645298013245			
49	1000	-0.440158940397351	0.290754966887417	-0.887523178807947	-41.1266225165563	51.9353642384106	10.0150993377483				1.24895364238411	0.0957880794701987	0.0771390728476822	-25.3260927152318	63.8678145695364	24.6140397350993				-0.538172185430464	-0.113271523178808	-0.96794701986755	19.8874172185431	30.9464900662252	-4.40026490066225				-0.0154701986754967	0.0154701986754967	-1.17372185430464	-80.6770860927152	-149.33642384106	-17.4156291390728				1.26802649006623	-0.0125033112582781	0.277933774834437	26.8317880794702	6.77192052980133	29.0625165562914				0.271788079470199	-0.462834437086093	-1.10823841059603	28.0203973509934	-58.0823841059603	95.005298013245			
50	1020	-0.472158940397351	0.370754966887417	-0.951523178807947	-34.1266225165563	42.4153642384106	24.0150993377483				1.36095364238411	0.175788079470199	0.189139072847682	-17.2060927152318	73.6678145695364	22.9340397350993				-0.586172185430464	-0.0812715231788079	-1.11194701986755	1.68741721854305	32.9064900662252	-6.36026490066225				0.0965298013245033	0.159470198675497	-1.04572185430464	-78.7170860927152	-124.69642384106	-33.6556291390729				1.28402649006623	-0.0445033112582781	0.373933774834437	37.4717880794702	20.7719205298013	18.9825165562914				0.239788079470199	-0.526834437086093	-0.916238410596027	44.8203973509934	-55.0023841059603	103.405298013245			
51	1040	-0.360158940397351	0.338754966887417	-1.15952317880795	-31.6066225165563	51.9353642384106	35.7750993377484				1.53695364238411	0.191788079470199	0.477139072847682	-20.2860927152318	76.7478145695364	18.4540397350993				-0.522172185430464	-0.145271523178808	-1.14394701986755	27.727417218543	54.1864900662252	-10.2802649006622				0.0805298013245033	0.239470198675497	-1.15772185430464	-48.4770860927152	-97.8164238410596	-41.7756291390729				1.26802649006623	-0.0605033112582781	0.533933774834437	43.6317880794702	38.4119205298013	6.10251655629139				0.255788079470199	-0.558834437086093	-0.884238410596026	32.7803973509934	-37.0823841059603	102.285298013245			
52	1060	-0.232158940397351	0.418754966887417	-1.07952317880795	-7.52662251655629	55.0153642384106	41.0950993377484				1.53695364238411	0.111788079470199	0.397139072847682	-4.88609271523179	43.9878145695364	13.1340397350993				-0.394172185430464	-0.321271523178808	-0.98394701986755	5.04741721854305	62.8664900662252	-10.5602649006623				-0.0474701986754967	0.239470198675497	-1.28572185430464	-0.317086092715232	-49.9364238410596	-17.6956291390729				1.34802649006623	0.0194966887417219	0.741933774834437	15.9117880794702	28.0519205298013	-0.897483443708608				0.351788079470199	-0.526834437086093	-0.964238410596026	13.7403973509934	-23.0823841059603	81.565298013245			
53	1080	-0.216158940397351	0.546754966887417	-1.06352317880795	14.3133774834437	67.3353642384106	43.8950993377483				1.40895364238411	0.0637880794701987	0.381139072847682	5.75390728476821	26.0678145695364	6.97403973509934				-0.314172185430464	-0.241271523178808	-1.06394701986755	-9.23258278145695	74.0664900662252	-8.88026490066225				0.0805298013245033	0.143470198675497	-1.18972185430464	7.52291390728477	1.0235761589404	6.66437086092715				1.25202649006623	0.195496688741722	0.837933774834437	5.5517880794702	12.0919205298013	-6.21748344370861				0.415788079470199	-0.558834437086093	-0.884238410596026	2.54039735099338	-2.08238410596027	61.685298013245			
54	1100	-0.088158940397351	0.482754966887417	-0.967523178807947	51.8333774834437	80.4953642384106	43.0550993377484				1.40895364238411	0.0157880794701987	0.349139072847682	-7.96609271523179	14.3078145695364	6.69403973509934				-0.218172185430464	-0.241271523178808	-0.99994701986755	-12.872582781457	81.0664900662252	-10.5602649006623				0.224529801324503	0.271470198675497	-1.17372185430464	8.64291390728477	29.0235761589404	19.5443708609272				1.20402649006623	0.163496688741722	0.597933774834437	-10.4082119205298	5.37192052980133	-0.0574834437086077				0.447788079470199	-0.494834437086093	-0.820238410596026	-0.539602649006623	35.9976158940397	39.565298013245			
55	1120	-0.040158940397351	0.354754966887417	-1.01552317880795	70.0333774834437	90.5753642384106	36.8950993377483				1.47295364238411	-0.0642119205298013	0.349139072847682	-9.08609271523179	-2.21218543046358	7.25403973509934				-0.154172185430464	-0.241271523178808	-1.03194701986755	-18.192582781457	91.1464900662252	-13.6402649006623				0.224529801324503	0.399470198675497	-1.12572185430464	26.0029139072848	46.9435761589404	31.8643708609272				1.30002649006623	0.0514966887417219	0.517933774834437	2.4717880794702	6.77192052980133	1.90251655629139				0.383788079470199	-0.494834437086093	-0.900238410596026	1.98039735099338	58.9576158940397	11.845298013245			
56	1140	0.007841059602649	0.114754966887417	-1.07952317880795	53.5133774834437	100.095364238411	30.4550993377483				1.44095364238411	-0.112211920529801	0.189139072847682	-14.4060927152318	-12.5721854304636	10.6140397350993				-0.0741721854304636	-0.113271523178808	-1.07994701986755	0.567417218543046	100.666490066225	-18.9602649006623				0.256529801324503	0.335470198675497	-1.14172185430464	49.8029139072848	57.3035761589404	34.6643708609272				1.36402649006623	0.00349668874172187	0.661933774834437	4.7117880794702	-4.14807947019868	4.42251655629139				0.351788079470199	-0.622834437086093	-0.980238410596026	7.58039735099338	64.5576158940397	-12.514701986755			
57	1160	0.087841059602649	0.258754966887417	-1.06352317880795	19.3533774834437	105.975364238411	22.0550993377483				1.36095364238411	-0.0482119205298013	0.205139072847682	-17.7660927152318	-18.7321854304636	11.7340397350993				-0.0101721854304636	-0.241271523178808	-1.07994701986755	11.487417218543	112.426490066225	-23.4402649006623				0.240529801324503	0.143470198675497	-1.23772185430464	49.2429139072848	68.7835761589404	33.8243708609272				1.26802649006623	0.0674966887417219	0.533933774834437	-25.2482119205298	-24.3080794701987	9.18251655629139				0.303788079470199	-0.574834437086093	-1.12423841059603	-6.41960264900662	76.0376158940397	-20.634701986755			
58	1180	0.199841059602649	0.466754966887417	-1.03152317880795	5.07337748344371	116.615364238411	17.8550993377483				1.29695364238411	0.0957880794701987	0.317139072847682	-6.56609271523179	-15.9321854304636	10.6140397350993				0.0538278145695364	-0.257271523178808	-0.98394701986755	-4.19258278145695	129.786490066225	-24.8402649006623				0.192529801324503	-0.000529801324503289	-1.17372185430464	33.8429139072848	95.1035761589404	31.8643708609272				1.20402649006623	0.115496688741722	0.341933774834437	-28.8882119205298	-26.5480794701987	10.5825165562914				0.351788079470199	-0.494834437086093	-1.14023841059603	-9.49960264900662	88.3576158940397	-13.634701986755			
59	1200	0.263841059602649	0.482754966887417	-1.04752317880795	18.5133774834437	128.375364238411	17.0150993377483				1.24895364238411	0.0317880794701987	0.317139072847682	-10.4860927152318	-20.1321854304636	15.9340397350993				0.117827814569536	-0.177271523178808	-0.96794701986755	-1.11258278145695	136.786490066225	-23.7202649006623				0.144529801324503	0.0154701986754967	-1.02972185430464	24.3229139072848	124.78357615894	29.6243708609272				1.15602649006623	0.0514966887417219	0.197933774834437	-11.5282119205298	-8.06807947019868	10.0225165562914				0.303788079470199	-0.462834437086093	-1.06023841059603	-10.3396026490066	87.5176158940398	-0.194701986754968			
60	1220	0.279841059602649	0.338754966887417	-0.983523178807947	38.3933774834437	141.535364238411	12.5350993377483				1.31295364238411	0.0957880794701987	0.253139072847682	-7.40609271523179	-22.0921854304636	11.1740397350993				0.181827814569536	-0.241271523178808	-0.96794701986755	-3.35258278145695	140.426490066225	-21.7602649006623				0.176529801324503	0.0954701986754967	-0.901721854304636	38.0429139072848	141.02357615894	29.6243708609272				1.15602649006623	0.0194966887417219	0.261933774834437	10.3117880794702	8.73192052980133	13.9425165562914				0.319788079470199	-0.430834437086093	-0.996238410596026	0.580397350993377	85.5576158940397	-1.31470198675497			
61	1240	0.311841059602649	0.258754966887417	-0.919523178807947	50.7133774834437	151.055364238411	8.61509933774835				1.20095364238411	0.0637880794701987	0.0451390728476822	15.8339072847682	-29.6521854304636	7.25403973509934				0.213827814569536	-0.209271523178808	-0.93594701986755	-3.35258278145695	141.266490066225	-20.6402649006623				0.256529801324503	0.111470198675497	-0.981721854304636	88.4429139072848	147.18357615894	35.2243708609272				1.10802649006623	0.00349668874172187	0.325933774834437	6.3917880794702	6.49192052980132	11.1425165562914				0.335788079470199	-0.446834437086093	-0.884238410596026	21.8603973509934	86.6776158940397	-5.79470198675497			
62	1260	0.375841059602649	0.146754966887417	-0.903523178807947	42.5933774834437	156.095364238411	9.45509933774835				1.13695364238411	-0.112211920529801	0.317139072847682	-13.8460927152318	-1.65218543046358	11.1740397350993				0.261827814569536	-0.113271523178808	-0.83994701986755	2.52741721854305	141.266490066225	-20.9202649006623				0.336529801324503	-0.000529801324503289	-1.02972185430464	123.162913907285	162.02357615894	36.9043708609272				1.07602649006623	0.0194966887417219	0.453933774834437	1.6317880794702	-1.90807947019868	7.50251655629139				0.367788079470199	-0.414834437086093	-0.804238410596027	34.7403973509934	91.4376158940397	-16.714701986755			
63	1280	0.455841059602649	0.0667549668874172	-0.839523178807947	18.7933774834437	158.615364238411	11.1350993377483				1.12095364238411	-0.144211920529801	0.141139072847682	-4.60609271523179	-28.8121854304636	9.77403973509934				0.341827814569536	-0.0972715231788079	-0.79194701986755	2.52741721854305	141.546490066225	-21.7602649006623				0.400529801324503	-0.224529801324503	-0.933721854304636	110.842913907285	174.06357615894	29.3443708609272				1.04402649006623	-0.0445033112582781	0.293933774834437	2.7517880794702	-20.3880794701987	12.8225165562914				0.383788079470199	-0.350834437086093	-0.788238410596027	36.7003973509934	109.07761589404	-26.234701986755			
64	1300	0.439841059602649	0.114754966887417	-0.775523178807947	15.4333774834437	155.255364238411	6.65509933774834				1.05695364238411	-0.128211920529801	-0.0348609271523178	-5.16609271523179	-48.6921854304636	13.9740397350993				0.437827814569536	-0.129271523178808	-0.74394701986755	8.96741721854305	140.426490066225	-22.6002649006623				0.448529801324503	-0.288529801324503	-0.789721854304636	79.7629139072848	165.94357615894	14.7843708609272				0.980026490066225	-0.156503311258278	0.149933774834437	-9.5682119205298	-27.9480794701987	13.6625165562914				0.431788079470199	-0.350834437086093	-0.756238410596026	31.9403973509934	113.27761589404	-36.594701986755			
65	1320	0.423841059602649	0.146754966887417	-0.743523178807947	13.7533774834437	151.615364238411	3.57509933774835				0.864953642384106	0.0797880794701987	-0.130860927152318	-7.96609271523179	-52.0521854304636	6.97403973509934				0.501827814569536	-0.0812715231788079	-0.72794701986755	17.3674172185431	142.946490066225	-28.7602649006623				0.448529801324503	-0.208529801324503	-0.725721854304636	60.4429139072848	153.06357615894	4.14437086092715				0.900026490066225	-0.124503311258278	0.117933774834437	-24.9682119205298	-25.1480794701987	8.62251655629139				0.447788079470199	-0.334834437086093	-0.708238410596026	12.3403973509934	102.63761589404	-46.394701986755			
66	1340	0.471841059602649	0.146754966887417	-0.711523178807947	20.4733774834437	148.815364238411	2.45509933774835				0.768953642384106	0.0317880794701987	-0.0828609271523179	-0.406092715231788	-38.0521854304636	7.53403973509934				0.453827814569536	-0.0972715231788079	-0.64794701986755	8.96741721854305	146.306490066225	-34.6402649006623				0.352529801324503	-0.176529801324503	-0.693721854304636	70.2429139072848	147.46357615894	-0.615629139072848				0.836026490066225	-0.0125033112582781	0.117933774834437	-30.8482119205298	-31.5880794701987	4.70251655629139				0.415788079470199	-0.286834437086093	-0.628238410596026	-1.37960264900662	106.27761589404	-55.074701986755			
67	1360	0.471841059602649	0.0987549668874172	-0.679523178807947	24.9533774834437	146.295364238411	4.13509933774834				0.768953642384106	-0.144211920529801	-0.0828609271523179	-12.7260927152318	-38.0521854304636	13.6940397350993				0.405827814569536	-0.0972715231788079	-0.61594701986755	-7.27258278145696	149.666490066225	-33.2402649006623				0.320529801324503	-0.144529801324503	-0.645721854304636	76.6829139072848	142.98357615894	0.504370860927152				0.788026490066225	-0.0285033112582781	0.117933774834437	-25.5282119205298	-60.4280794701987	11.7025165562914				0.335788079470199	-0.222834437086093	-0.548238410596027	-13.1396026490066	114.39761589404	-55.354701986755			
68	1380	0.439841059602649	0.0347549668874172	-0.647523178807947	19.9133774834437	146.855364238411	8.33509933774834				0.752953642384106	0.0157880794701987	-0.114860927152318	-21.6860927152318	-24.6121854304636	4.17403973509934				0.437827814569536	-0.129271523178808	-0.51994701986755	-22.112582781457	155.546490066225	-26.5202649006623				0.320529801324503	-0.176529801324503	-0.549721854304636	83.6829139072848	132.90357615894	5.54437086092715				0.692026490066225	-0.108503311258278	0.00593377483443711	-18.5282119205298	-68.2680794701987	18.1425165562914				0.335788079470199	-0.238834437086093	-0.548238410596027	-15.3796026490066	109.07761589404	-53.114701986755			
69	1400	0.503841059602649	0.0507549668874172	-0.615523178807947	8.43337748344371	149.375364238411	9.45509933774835				0.752953642384106	0.0477880794701987	-0.0828609271523179	-13.5660927152318	-26.2921854304636	-3.10596026490066				0.469827814569536	-0.113271523178808	-0.50394701986755	-29.952582781457	159.186490066225	-18.6802649006623				0.320529801324503	-0.224529801324503	-0.485721854304636	89.2829139072848	116.94357615894	5.82437086092715				0.660026490066225	-0.0605033112582781	-0.0100662251655629	-19.9282119205298	-67.9880794701987	17.8625165562914				0.367788079470199	-0.222834437086093	-0.564238410596026	-14.5396026490066	95.9176158940397	-51.434701986755			
70	1420	0.567841059602649	0.0827549668874172	-0.519523178807947	-10.8866225165563	154.975364238411	8.05509933774835				0.656953642384106	-0.0162119205298013	-0.0988609271523179	-11.6060927152318	-40.8521854304636	-5.06596026490066				0.549827814569536	-0.0972715231788079	-0.48794701986755	-35.832582781457	169.546490066225	-15.3202649006623				0.336529801324503	-0.272529801324503	-0.469721854304636	97.1229139072848	105.46357615894	-0.895629139072848				0.580026490066225	-0.0125033112582781	-0.0100662251655629	-28.8882119205298	-64.6280794701987	16.4625165562914				0.383788079470199	-0.222834437086093	-0.532238410596027	-29.3796026490066	88.6376158940397	-48.634701986755			
71	1440	0.567841059602649	0.114754966887417	-0.535523178807947	-8.92662251655629	158.895364238411	11.4150993377483				0.528953642384106	-0.0162119205298013	-0.130860927152318	-11.3260927152318	-30.4921854304636	-2.54596026490066				0.517827814569536	-0.0812715231788079	-0.45594701986755	-37.512582781457	175.986490066225	-13.9202649006623				0.384529801324503	-0.304529801324503	-0.501721854304636	97.6829139072848	99.0235761589404	-8.17562913907285				0.564026490066225	-0.108503311258278	-0.0260662251655629	-19.6482119205298	-57.0680794701987	18.4225165562914				0.383788079470199	-0.158834437086093	-0.500238410596026	-54.0196026490066	86.3976158940397	-53.674701986755			
72	1460	0.487841059602649	0.178754966887417	-0.423523178807947	8.99337748344371	159.735364238411	13.9350993377483				0.496953642384106	0.0797880794701987	-0.0668609271523178	1.55390728476821	-17.8921854304636	-8.70596026490066				0.485827814569536	-0.0492715231788079	-0.43994701986755	-38.352582781457	163.946490066225	-11.9602649006623				0.448529801324503	-0.352529801324503	-0.485721854304636	90.1229139072848	95.9435761589404	-11.2556291390728				0.580026490066225	-0.0765033112582781	-0.106066225165563	-20.4882119205298	-45.8680794701987	16.4625165562914				0.383788079470199	-0.0628344370860927	-0.516238410596026	-66.3396026490066	87.5176158940398	-57.314701986755			
73	1480	0.567841059602649	0.130754966887417	-0.375523178807947	12.3533774834437	165.055364238411	10.8550993377483				0.560953642384106	0.0637880794701987	-0.0348609271523178	-1.80609271523179	-14.2521854304636	-9.54596026490066				0.549827814569536	-0.0972715231788079	-0.35994701986755	-54.872582781457	177.386490066225	-8.60026490066225				0.560529801324503	-0.416529801324503	-0.469721854304636	66.3229139072848	84.4635761589404	-13.7756291390728				0.580026490066225	-0.0125033112582781	-0.0260662251655629	-33.3682119205298	-37.7480794701987	-0.337483443708608				0.383788079470199	0.0171655629139073	-0.564238410596026	-57.6596026490066	85.2776158940397	-55.074701986755			
74	1500	0.695841059602649	0.178754966887417	-0.359523178807947	10.3933774834437	162.535364238411	-2.58490066225166				0.512953642384106	-0.000211920529801304	0.0131390728476822	-16.9260927152318	-10.6121854304636	-5.06596026490066				0.565827814569536	-0.0652715231788079	-0.39194701986755	-64.952582781457	174.586490066225	-8.04026490066225				0.528529801324503	-0.368529801324503	-0.421721854304636	35.2429139072848	63.7435761589404	-17.1356291390729				0.452026490066225	0.0354966887417219	-0.0420662251655629	-24.6882119205298	-48.6680794701987	2.74251655629139				0.367788079470199	0.0331655629139073	-0.500238410596026	-47.2996026490066	83.3176158940397	-42.474701986755			
75	1520	0.663841059602649	0.194754966887417	-0.343523178807947	-0.526622516556291	151.895364238411	4.13509933774834				0.336953642384106	-0.0322119205298013	-0.0188609271523178	-7.12609271523179	4.78781456953642	-3.38596026490066				0.581827814569536	-0.0332715231788079	-0.31194701986755	-46.192582781457	170.106490066225	-10.8402649006623				0.464529801324503	-0.256529801324503	-0.421721854304636	19.8429139072848	49.7435761589404	-24.4156291390728				0.436026490066225	0.00349668874172187	0.00593377483443711	-12.9282119205298	-33.8280794701987	3.30251655629139				0.303788079470199	-0.0308344370860927	-0.404238410596026	-44.2196026490066	65.6776158940397	-29.594701986755			
76	1540	0.551841059602649	0.210754966887417	-0.263523178807947	22.1533774834437	146.855364238411	10.0150993377483				0.416953642384106	-0.0162119205298013	0.125139072847682	-3.20609271523179	15.7078145695364	-3.38596026490066				0.565827814569536	-0.00127152317880793	-0.31194701986755	-46.752582781457	144.626490066225	-10.0002649006623				0.448529801324503	-0.192529801324503	-0.405721854304636	23.2029139072848	40.2235761589404	-21.6156291390729				0.436026490066225	-0.0445033112582781	0.0219337748344371	-5.9282119205298	-32.9880794701987	3.86251655629139				0.287788079470199	-0.110834437086093	-0.420238410596026	-28.5396026490066	51.9576158940397	-26.794701986755			
77	1560	0.711841059602649	0.194754966887417	-0.263523178807947	29.4333774834437	132.575364238411	5.53509933774834				0.496953642384106	-0.0162119205298013	0.0131390728476822	-4.32609271523179	-1.93218543046358	-3.66596026490066				0.661827814569536	-0.0492715231788079	-0.31194701986755	-41.712582781457	133.706490066225	-11.6802649006622				0.496529801324503	-0.240529801324503	-0.405721854304636	33.0029139072848	29.3035761589404	-14.3356291390729				0.484026490066225	-0.0445033112582781	0.0539337748344371	-2.5682119205298	-34.1080794701987	1.06251655629139				0.367788079470199	-0.142834437086093	-0.420238410596026	-30.2196026490066	44.6776158940397	-22.594701986755			
78	1580	0.807841059602649	0.194754966887417	-0.375523178807947	3.67337748344371	111.015364238411	1.61509933774834				0.464953642384106	0.0157880794701987	0.125139072847682	-23.0860927152318	24.3878145695364	-6.46596026490066				0.805827814569536	0.0467284768211921	-0.48794701986755	-24.912582781457	98.9864900662252	-10.0002649006623				0.528529801324503	-0.272529801324503	-0.389721854304636	23.7629139072848	16.7035761589404	-10.9756291390728				0.452026490066225	-0.0125033112582781	0.0539337748344371	-5.9282119205298	-34.6680794701987	-3.41748344370861				0.415788079470199	-0.126834437086093	-0.452238410596026	-45.3396026490066	37.1176158940397	-15.874701986755			
79	1600	0.791841059602649	0.146754966887417	-0.359523178807947	-3.60662251655629	86.9353642384106	7.21509933774835				0.448953642384106	0.0957880794701987	0.285139072847682	-6.84609271523179	24.6678145695364	-8.14596026490066				0.901827814569536	0.142728476821192	-0.61594701986755	14.847417218543	40.4664900662252	-10.8402649006623				0.544529801324503	-0.272529801324503	-0.389721854304636	-0.0370860927152318	-2.3364238410596	-11.5356291390728				0.468026490066225	0.00349668874172187	0.0379337748344371	-7.8882119205298	-19.8280794701987	-7.33748344370861				0.495788079470199	-0.0788344370860927	-0.452238410596026	-47.8596026490066	29.2776158940397	-8.03470198675497			
80	1620	0.919841059602649	0.0507549668874172	-0.407523178807947	-0.526622516556291	67.3353642384106	6.65509933774834				0.640953642384106	0.0957880794701987	0.157139072847682	12.1939072847682	14.8678145695364	-8.70596026490066				0.805827814569536	-0.0172715231788079	-0.64794701986755	40.8874172185431	-8.81350993377484	-8.04026490066225				0.624529801324503	-0.272529801324503	-0.373721854304636	-13.7570860927152	-22.2164238410596	-4.25562913907285				0.580026490066225	-0.0285033112582781	0.0699337748344371	0.511788079470198	-3.86807947019868	-9.29748344370861				0.575788079470199	-0.0788344370860927	-0.484238410596026	-24.0596026490066	18.6376158940397	-0.194701986754968			
81	1640	0.999841059602649	0.0667549668874172	-0.535523178807947	-24.8866225165563	37.9353642384106	7.49509933774834				0.704953642384106	-0.0642119205298013	0.109139072847682	19.4739072847682	17.9478145695364	-7.02596026490066				0.853827814569536	-0.0172715231788079	-0.53594701986755	42.0074172185431	-6.29350993377483	-4.12026490066225				0.752529801324503	-0.256529801324503	-0.437721854304636	-14.3170860927152	-34.5364238410596	-0.895629139072848				0.724026490066225	-0.0445033112582781	0.101933774834437	6.1117880794702	7.61192052980133	-11.5374834437086				0.671788079470199	-0.126834437086093	-0.532238410596027	5.06039735099338	7.15761589403974	0.645298013245032			
82	1660	0.919841059602649	0.0827549668874172	-0.407523178807947	-34.4066225165563	11.3353642384106	11.1350993377483				0.912953642384106	-0.0802119205298013	0.173139072847682	9.39390728476821	29.1478145695364	-7.58596026490066				0.949827814569536	-0.145271523178808	-0.29594701986755	17.927417218543	-1.53350993377483	12.9597350993378				0.832529801324503	-0.240529801324503	-0.501721854304636	-17.9570860927152	-39.0164238410596	-2.57562913907285				0.836026490066225	-0.0765033112582781	0.165933774834437	10.3117880794702	14.0519205298013	-11.8174834437086				0.783788079470199	-0.126834437086093	-0.612238410596026	18.2203973509934	0.437615894039735	-3.55470198675497			
83	1680	0.903841059602649	-0.0132450331125828	-0.247523178807947	-8.92662251655629	11.0553642384106	5.53509933774834				1.08895364238411	-0.0162119205298013	0.397139072847682	0.993907284768212	33.6278145695364	-10.6659602649007				0.981827814569536	-0.193271523178808	-0.0559470198675496	0.00741721854304636	0.986490066225167	5.67973509933775				0.912529801324503	-0.272529801324503	-0.533721854304636	-22.7170860927152	-35.3764238410596	-7.05562913907285				1.04402649006623	-0.0285033112582781	0.181933774834437	5.2717880794702	24.1319205298013	-15.1774834437086				0.927788079470199	-0.126834437086093	-0.612238410596026	33.9003973509934	-2.36238410596027	1.48529801324503			
84	1700	0.983841059602649	-0.0292450331125828	-0.263523178807947	12.3533774834437	20.0153642384106	4.13509933774834				1.23295364238411	0.0157880794701987	0.269139072847682	-2.92609271523179	10.1078145695364	-8.14596026490066				1.01382781456954	-0.0972715231788079	0.00805298013245037	-7.83258278145695	-2.37350993377483	-5.52026490066225				0.992529801324503	-0.272529801324503	-0.565721854304636	-22.4370860927152	-29.2164238410596	-13.7756291390728				1.20402649006623	0.0194966887417219	0.165933774834437	6.3917880794702	30.5719205298013	-17.4174834437086				0.975788079470199	-0.222834437086093	-0.532238410596027	42.5803973509934	-15.5223841059603	0.925298013245032			
85	1720	0.999841059602649	-0.0932450331125828	-0.215523178807947	2.55337748344371	23.0953642384106	6.37509933774834				1.15295364238411	-0.000211920529801304	0.125139072847682	13.5939072847682	-1.65218543046358	-3.94596026490066				0.997827814569536	-0.0332715231788079	-0.0239470198675496	-8.39258278145695	7.70649006622517	-8.32026490066225				0.976529801324503	-0.208529801324503	-0.565721854304636	-20.7570860927152	-17.7364238410596	-18.8156291390729				1.22002649006623	-0.0285033112582781	0.0859337748344371	5.2717880794702	19.6519205298013	-15.1774834437086				0.991788079470199	-0.286834437086093	-0.468238410596026	43.1403973509934	-23.6423841059603	0.645298013245032			
86	1740	0.935841059602649	-0.0292450331125828	-0.135523178807947	-10.6066225165563	17.4953642384106	2.45509933774835				0.976953642384106	0.0157880794701987	0.0771390728476822	16.3939072847682	-11.1721854304636	-4.50596026490066				0.933827814569536	-0.0812715231788079	-0.16794701986755	3.08741721854305	12.7464900662252	-9.72026490066225				0.864529801324503	-0.160529801324503	-0.517721854304636	-20.7570860927152	-12.6964238410596	-21.6156291390729				1.09202649006623	0.00349668874172187	0.0859337748344371	0.791788079470198	8.45192052980133	-13.2174834437086				0.927788079470199	-0.334834437086093	-0.452238410596026	19.9003973509934	-22.5223841059603	0.0852980132450323			
87	1760	0.935841059602649	0.0667549668874172	-0.087523178807947	-25.1666225165563	15.5353642384106	-0.344900662251656				0.960953642384106	-0.0802119205298013	0.0451390728476822	6.87390728476821	2.54781456953642	0.81403973509934				0.901827814569536	-0.0332715231788079	-0.27994701986755	4.48741721854305	25.0664900662252	-7.48026490066225				0.720529801324503	-0.144529801324503	-0.469721854304636	-20.4770860927152	-16.0564238410596	-20.7756291390729				1.01202649006623	-0.0285033112582781	0.101933774834437	4.7117880794702	-2.46807947019868	-10.6974834437086				0.831788079470199	-0.238834437086093	-0.484238410596026	-8.93960264900662	-11.6023841059603	-2.43470198675497			
88	1780	0.903841059602649	0.178754966887417	-0.103523178807947	-20.4066225165563	24.2153642384106	-0.624900662251656				0.976953642384106	-0.000211920529801304	0.0771390728476822	-6.84609271523179	7.58781456953643	-1.42596026490066				0.869827814569536	-0.0492715231788079	-0.29594701986755	-10.632582781457	30.3864900662252	-2.16026490066225				0.624529801324503	-0.128529801324503	-0.485721854304636	-10.1170860927152	-21.0964238410596	-21.0556291390728				0.948026490066225	-0.0125033112582781	0.117933774834437	0.511788079470198	-10.5880794701987	-7.33748344370861				0.783788079470199	-0.126834437086093	-0.484238410596026	-8.09960264900662	0.717615894039735	-2.43470198675497			
89	1800	0.903841059602649	0.258754966887417	-0.135523178807947	-10.0466225165563	29.8153642384106	-0.0649006622516557				0.944953642384106	0.0637880794701987	0.109139072847682	-10.4860927152318	10.6678145695364	-2.82596026490066				0.901827814569536	-0.0652715231788079	-0.31194701986755	-12.592582781457	30.9464900662252	0.91973509933775				0.576529801324503	-0.144529801324503	-0.517721854304636	-1.71708609271523	-21.6564238410596	-23.5756291390728				0.852026490066225	0.0354966887417219	0.101933774834437	-0.608211920529802	-5.54807947019868	-3.69748344370861				0.783788079470199	-0.0948344370860927	-0.468238410596026	8.98039735099338	2.11761589403974	-3.83470198675497			
90	1820	0.951841059602649	0.242754966887417	-0.183523178807947	-2.76662251655629	28.1353642384106	-1.18490066225166				0.976953642384106	0.0317880794701987	0.173139072847682	-1.52609271523179	13.7478145695364	-0.30596026490066				0.917827814569536	0.0307284768211921	-0.35994701986755	-4.47258278145695	21.9864900662252	-1.60026490066225				0.624529801324503	-0.208529801324503	-0.533721854304636	2.48291390728477	-18.0164238410596	-23.0156291390729				0.852026490066225	0.0194966887417219	0.0699337748344371	-2.0082119205298	0.611920529801325	-3.69748344370861				0.799788079470199	-0.142834437086093	-0.468238410596026	17.3803973509934	0.437615894039735	-3.27470198675497			
91	1840	0.967841059602649	0.226754966887417	-0.247523178807947	2.27337748344371	19.7353642384106	-2.58490066225166				0.992953642384106	0.0637880794701987	0.141139072847682	-1.52609271523179	5.06781456953642	-3.10596026490066				0.965827814569536	0.0787284768211921	-0.35994701986755	-4.75258278145695	15.2664900662252	-4.12026490066225				0.704529801324503	-0.208529801324503	-0.517721854304636	1.92291390728477	-9.0564238410596	-19.9356291390729				0.916026490066225	0.0354966887417219	0.101933774834437	-5.0882119205298	8.45192052980133	-3.41748344370861				0.783788079470199	-0.190834437086093	-0.484238410596026	9.54039735099338	0.437615894039735	-2.43470198675497			
92	1860	0.935841059602649	0.162754966887417	-0.215523178807947	7.87337748344371	17.2153642384106	-2.30490066225166				0.912953642384106	0.0957880794701987	0.0931390728476822	-4.32609271523179	1.98781456953642	-6.18596026490066				0.917827814569536	0.0947284768211921	-0.32794701986755	4.48741721854305	12.7464900662252	-6.08026490066225				0.720529801324503	-0.208529801324503	-0.533721854304636	-0.0370860927152318	-1.2164238410596	-15.1756291390728				0.916026490066225	0.0834966887417219	0.101933774834437	-5.9282119205298	7.61192052980133	-3.41748344370861				0.767788079470199	-0.174834437086093	-0.500238410596026	1.42039735099338	-0.402384105960265	-3.27470198675497			
93	1880	0.967841059602649	0.0987549668874172	-0.247523178807947	5.91337748344371	14.1353642384106	-1.46490066225166				0.992953642384106	0.0317880794701987	0.141139072847682	0.713907284768212	7.58781456953643	-2.82596026490066				0.933827814569536	0.0947284768211921	-0.26394701986755	8.68741721854305	8.54649006622517	-3.56026490066225				0.736529801324503	-0.144529801324503	-0.565721854304636	-1.43708609271523	3.8235761589404	-9.85562913907285				0.948026490066225	0.0514966887417219	0.101933774834437	-3.1282119205298	7.89192052980133	-5.93748344370861				0.767788079470199	-0.158834437086093	-0.468238410596026	7.30039735099338	-4.88238410596027	-4.11470198675497			
94	1900	0.919841059602649	0.0827549668874172	-0.167523178807947	0.593377483443709	11.8953642384106	2.45509933774835				1.00895364238411	0.0477880794701987	0.205139072847682	3.79390728476821	-1.09218543046358	-2.54596026490066				0.949827814569536	-0.0172715231788079	-0.24794701986755	15.967417218543	6.58649006622517	-1.32026490066225				0.768529801324503	-0.128529801324503	-0.549721854304636	-1.15708609271523	7.7435761589404	-4.81562913907285				0.980026490066225	0.0194966887417219	0.133933774834437	-0.328211920529802	3.69192052980133	-4.53748344370861				0.799788079470199	-0.190834437086093	-0.468238410596026	8.14039735099338	-6.28238410596027	0.925298013245032			
95	1920	0.919841059602649	0.0667549668874172	-0.167523178807947	0.0333774834437086	14.6953642384106	4.41509933774834				0.960953642384106	0.0317880794701987	0.125139072847682	-4.88609271523179	-5.85218543046358	-2.54596026490066				0.917827814569536	-0.129271523178808	-0.21594701986755	21.8474172185431	4.06649006622517	1.75973509933775				0.784529801324503	-0.160529801324503	-0.549721854304636	3.60291390728477	7.1835761589404	-1.73562913907285				0.980026490066225	0.0514966887417219	0.101933774834437	-2.0082119205298	1.17192052980133	-3.69748344370861				0.831788079470199	-0.238834437086093	-0.516238410596026	-5.85960264900662	-1.80238410596026	4.00529801324503			
96	1940	0.967841059602649	0.0667549668874172	-0.167523178807947	-1.36662251655629	15.5353642384106	1.33509933774834				0.976953642384106	0.0317880794701987	0.141139072847682	-9.36609271523179	-5.85218543046358	-3.94596026490066				0.933827814569536	-0.145271523178808	-0.15194701986755	-4.47258278145695	11.6264900662252	3.71973509933775				0.784529801324503	-0.176529801324503	-0.597721854304636	2.20291390728477	5.7835761589404	0.224370860927152				0	0	0	0	0	0				0	0	0	0	0	0			
97	1960	0.951841059602649	0.114754966887417	-0.135523178807947	-7.52662251655629	13.2953642384106	0.775099337748344				0.992953642384106	0.0157880794701987	0.141139072847682	-6.00609271523179	-5.29218543046358	-2.54596026490066				0	0	0	0	0	0				0	0	0	0	0	0				0	0	0	0	0	0				0	0	0	0	0	0			
98	1980	0.935841059602649	0.0827549668874172	-0.135523178807947	-2.76662251655629	11.0553642384106	1.89509933774834				1.00895364238411	-0.0482119205298013	0.173139072847682	-7.40609271523179	-1.65218543046358	1.09403973509934				0.965827814569536	-0.0652715231788079	-0.21594701986755	-13.432582781457	8.54649006622517	5.95973509933775				0.752529801324503	-0.208529801324503	-0.597721854304636	-2.83708609271523	0.1835761589404	0.784370860927152				0.964026490066225	-0.0125033112582781	0.0859337748344371	-4.5282119205298	-4.14807947019868	-2.85748344370861				0.799788079470199	-0.174834437086093	-0.516238410596026	-1.93960264900662	-0.682384105960265	0.365298013245032			
99	2000	0.951841059602649	0.0347549668874172	-0.167523178807947	-0.806622516556291	11.0553642384106	0.495099337748344				0.944953642384106	0.0157880794701987	0.141139072847682	-14.6860927152318	-6.41218543046358	1.65403973509934				0.965827814569536	0.0307284768211921	-0.27994701986755	-13.432582781457	7.70649006622517	2.59973509933775				0.704529801324503	-0.240529801324503	-0.565721854304636	-9.27708609271523	-3.7364238410596	2.46437086092715				0.932026490066225	-0.0125033112582781	0.0859337748344371	-5.6482119205298	-2.46807947019868	-1.45748344370861				0.799788079470199	-0.174834437086093	-0.516238410596026	-2.21960264900662	-1.52238410596026	1.48529801324503			
100	2020	0.967841059602649	0.0667549668874172	-0.167523178807947	-5.56662251655629	7.1353642384106	0.495099337748344				0.928953642384106	0.0477880794701987	0.109139072847682	-14.1260927152318	-8.37218543046358	-1.14596026490066				0.917827814569536	0.0467284768211921	-0.27994701986755	-17.072582781457	4.06649006622517	1.19973509933775				0.704529801324503	-0.224529801324503	-0.581721854304636	-11.2370860927152	-5.6964238410596	3.86437086092715				0.900026490066225	0.00349668874172187	0.0859337748344371	-7.8882119205298	-0.228079470198675	-0.897483443708608				0.783788079470199	-0.190834437086093	-0.500238410596026	-2.21960264900662	-1.24238410596026	1.76529801324503			
101	2040	0.951841059602649	0.0507549668874172	-0.167523178807947	-8.36662251655629	5.4553642384106	1.05509933774834				0.928953642384106	0.0317880794701987	0.109139072847682	-6.00609271523179	-2.49218543046358	-0.86596026490066				0.901827814569536	0.0147284768211921	-0.31194701986755	-5.31258278145695	-2.09350993377483	-2.44026490066225				0.688529801324503	-0.176529801324503	-0.549721854304636	-15.9970860927152	-8.2164238410596	3.86437086092715				0.884026490066225	0.0194966887417219	0.0859337748344371	-9.8482119205298	2.85192052980133	-0.0574834437086077				0.751788079470199	-0.206834437086093	-0.468238410596026	-6.69960264900662	0.157615894039735	2.04529801324503			
102	2060	0.935841059602649	0.0987549668874172	-0.135523178807947	-7.24662251655629	2.0953642384106	2.17509933774834				0.960953642384106	0.0157880794701987	0.125139072847682	0.153907284768212	-1.37218543046358	0.81403973509934				0.901827814569536	0.0307284768211921	-0.27994701986755	5.60741721854305	-2.65350993377483	-3.00026490066225				0.704529801324503	-0.144529801324503	-0.533721854304636	-17.6770860927152	-9.0564238410596	4.70437086092715				0.916026490066225	0.00349668874172187	0.101933774834437	-8.1682119205298	6.21192052980133	-0.897483443708608				0.735788079470199	-0.190834437086093	-0.532238410596027	-9.77960264900662	4.35761589403974	4.28529801324503			
103	2080	0.983841059602649	0.114754966887417	-0.151523178807947	-4.16662251655629	-2.1046357615894	1.33509933774834				0.976953642384106	0.0317880794701987	0.0931390728476822	-1.24609271523179	-2.77218543046358	0.53403973509934				0.933827814569536	0.0307284768211921	-0.27994701986755	-1.39258278145695	-2.09350993377483	-3.56026490066225				0.768529801324503	-0.160529801324503	-0.533721854304636	-11.7970860927152	-8.7764238410596	6.38437086092715				0.964026490066225	0.0194966887417219	0.101933774834437	-7.6082119205298	3.97192052980133	0.782516556291392				0.751788079470199	-0.142834437086093	-0.564238410596026	-8.37960264900662	7.15761589403974	5.68529801324503			
104	2100	0.967841059602649	0.114754966887417	-0.135523178807947	-4.16662251655629	-3.5046357615894	0.495099337748344				1.00895364238411	0.0317880794701987	0.0771390728476822	-5.44609271523179	-1.09218543046358	-0.0259602649006601				0.949827814569536	-0.0332715231788079	-0.24794701986755	0.847417218543046	-0.693509933774834	-2.72026490066225				0.816529801324503	-0.176529801324503	-0.549721854304636	-5.07708609271523	-5.4164238410596	6.10437086092715				0.980026490066225	0.0194966887417219	0.0699337748344371	-5.9282119205298	3.97192052980133	0.502516556291392				0.767788079470199	-0.142834437086093	-0.564238410596026	-3.61960264900662	4.07761589403974	3.16529801324503			
105	2120	0.951841059602649	0.114754966887417	-0.135523178807947	1.43337748344371	-2.3846357615894	-0.624900662251656				0.992953642384106	0.0477880794701987	0.109139072847682	-2.36609271523179	-1.65218543046358	-0.86596026490066				0.933827814569536	-0.0652715231788079	-0.24794701986755	-0.832582781456954	-1.81350993377483	-2.16026490066225				0.800529801324503	-0.144529801324503	-0.565721854304636	0.242913907284768	-0.6564238410596	3.58437086092715				0.980026490066225	0.0194966887417219	0.0859337748344371	-2.5682119205298	3.97192052980133	-0.0574834437086077				0.751788079470199	-0.174834437086093	-0.580238410596026	-5.85960264900662	7.43761589403974	0.365298013245032			
106	2140	0.951841059602649	0.0827549668874172	-0.151523178807947	6.75337748344371	-0.704635761589404	-1.18490066225166				0.976953642384106	0.0317880794701987	0.0931390728476822	1.55390728476821	-5.29218543046358	-0.0259602649006601				0.933827814569536	-0.0172715231788079	-0.23194701986755	-1.67258278145695	-1.25350993377483	-1.60026490066225				0.752529801324503	-0.160529801324503	-0.533721854304636	-2.27708609271523	1.0235761589404	1.62437086092715				0.964026490066225	0.0194966887417219	0.0859337748344371	1.0717880794702	2.29192052980133	-0.0574834437086077				0.735788079470199	-0.158834437086093	-0.596238410596026	1.70039735099338	4.63761589403974	-1.31470198675497			
107	2160	0.951841059602649	0.0827549668874172	-0.151523178807947	1.15337748344371	-3.2246357615894	0.215099337748344				0.976953642384106	0.0157880794701987	0.0771390728476822	2.67390728476821	-8.65218543046358	-0.86596026490066				0.917827814569536	0.0307284768211921	-0.24794701986755	-3.63258278145695	-0.973509933774833	-2.72026490066225				0.752529801324503	-0.176529801324503	-0.533721854304636	-0.877086092715232	0.7435761589404	0.224370860927152				0.980026490066225	0.00349668874172187	0.0699337748344371	3.0317880794702	1.45192052980132	-0.0574834437086077				0.751788079470199	-0.142834437086093	-0.580238410596026	-0.819602649006623	1.83761589403974	-2.15470198675497			
108	2180	0.935841059602649	0.114754966887417	-0.151523178807947	1.99337748344371	-2.1046357615894	-0.0649006622516557				0.960953642384106	0.0477880794701987	0.0451390728476822	4.35390728476821	-4.45218543046358	-0.585960264900661				0.933827814569536	-0.00127152317880793	-0.29594701986755	0.00741721854304636	-3.77350993377483	-1.32026490066225				0.768529801324503	-0.192529801324503	-0.565721854304636	7.24291390728477	1.0235761589404	0.224370860927152				0.964026490066225	0.00349668874172187	0.0699337748344371	3.3117880794702	-0.508079470198675	-1.73748344370861				0.767788079470199	-0.142834437086093	-0.596238410596026	0.580397350993377	-1.80238410596026	-3.83470198675497			
109	2200	0.951841059602649	0.0987549668874172	-0.199523178807947	1.71337748344371	-0.424635761589404	-1.46490066225166				0.992953642384106	0.0317880794701987	0.0771390728476822	2.39390728476821	1.70781456953642	1.09403973509934				0.933827814569536	0.0147284768211921	-0.27994701986755	3.36741721854305	-2.37350993377483	-0.48026490066225				0.752529801324503	-0.192529801324503	-0.597721854304636	11.4429139072848	2.9835761589404	0.784370860927152				0.948026490066225	0.00349668874172187	0.0859337748344371	5.5517880794702	-1.62807947019868	-0.897483443708608				0.767788079470199	-0.158834437086093	-0.596238410596026	0.0203973509933773	-3.76238410596027	-5.79470198675497			
110	2220	0.983841059602649	0.130754966887417	-0.215523178807947	2.55337748344371	-3.5046357615894	-1.46490066225166				1.02495364238411	0.0157880794701987	0.125139072847682	5.75390728476821	-3.05218543046358	-0.86596026490066				0.933827814569536	0.0147284768211921	-0.27994701986755	3.92741721854305	-2.37350993377483	-1.32026490066225				0.736529801324503	-0.224529801324503	-0.597721854304636	9.20291390728477	2.7035761589404	0.784370860927152				0.948026490066225	0.00349668874172187	0.0699337748344371	8.6317880794702	0.611920529801325	-0.0574834437086077				0.783788079470199	-0.142834437086093	-0.596238410596026	5.06039735099338	-3.76238410596027	-6.63470198675497			
111	2240	0.935841059602649	0.130754966887417	-0.199523178807947	3.95337748344371	-6.3046357615894	-1.18490066225166				1.02495364238411	0.0317880794701987	0.157139072847682	12.1939072847682	-7.81218543046358	-3.66596026490066				0.917827814569536	0.0147284768211921	-0.27994701986755	2.24741721854305	-4.05350993377483	-0.76026490066225				0.736529801324503	-0.256529801324503	-0.597721854304636	6.96291390728477	1.0235761589404	-0.615629139072848				0.948026490066225	-0.0125033112582781	0.0699337748344371	8.9117880794702	2.85192052980133	-1.73748344370861				0.751788079470199	-0.142834437086093	-0.596238410596026	9.82039735099338	-6.84238410596027	-9.15470198675497			
112	2260	0.935841059602649	0.0987549668874172	-0.199523178807947	9.83337748344371	-6.5846357615894	-1.46490066225166				0.960953642384106	0.0477880794701987	0.0291390728476822	16.6739072847682	-18.7321854304636	-3.94596026490066				0.933827814569536	0.0147284768211921	-0.27994701986755	0.847417218543046	-4.33350993377483	-1.04026490066225				0.736529801324503	-0.208529801324503	-0.597721854304636	3.88291390728477	-2.6164238410596	-3.41562913907285				0.964026490066225	0.00349668874172187	0.0859337748344371	8.3517880794702	3.97192052980133	-1.73748344370861				0.767788079470199	-0.158834437086093	-0.580238410596026	10.9403973509934	-11.0423841059603	-10.554701986755			
113	2280	0.935841059602649	0.0827549668874172	-0.215523178807947	7.87337748344371	-6.0246357615894	-1.46490066225166				0.976953642384106	0.0477880794701987	-0.0348609271523178	11.3539072847682	-7.81218543046358	-3.38596026490066				0.933827814569536	-0.00127152317880793	-0.29594701986755	3.64741721854305	-7.97350993377484	-0.76026490066225				0.736529801324503	-0.192529801324503	-0.597721854304636	3.04291390728477	-3.7364238410596	-3.41562913907285				0.964026490066225	0.0194966887417219	0.0699337748344371	7.5117880794702	3.69192052980133	-2.29748344370861				0.767788079470199	-0.158834437086093	-0.564238410596026	11.2203973509934	-13.8423841059603	-10.274701986755			
114	2300	0.951841059602649	0.0827549668874172	-0.183523178807947	2.55337748344371	-4.3446357615894	-1.46490066225166				0.976953642384106	0.0477880794701987	0.0131390728476822	5.75390728476821	-8.37218543046358	-3.66596026490066				0.917827814569536	-0.0172715231788079	-0.29594701986755	2.24741721854305	-5.17350993377483	0.35973509933775				0.752529801324503	-0.176529801324503	-0.597721854304636	5.56291390728477	-4.5764238410596	-5.09562913907285				0.996026490066225	0.0354966887417219	0.0539337748344371	6.3917880794702	0.611920529801325	-3.69748344370861				0.767788079470199	-0.158834437086093	-0.564238410596026	9.54039735099338	-14.9623841059603	-11.394701986755			
115	2320	0.935841059602649	0.0827549668874172	-0.183523178807947	2.27337748344371	-3.5046357615894	-1.46490066225166				0.976953642384106	0.0477880794701987	0.0291390728476822	6.03390728476821	-4.17218543046358	-2.54596026490066				0.933827814569536	-0.0172715231788079	-0.29594701986755	-1.11258278145695	-4.89350993377483	0.0797350993377501				0.752529801324503	-0.192529801324503	-0.613721854304636	7.80291390728477	-4.8564238410596	-5.93562913907285				0.996026490066225	0.0354966887417219	0.0699337748344371	6.9517880794702	-2.18807947019868	-2.85748344370861				0.783788079470199	-0.158834437086093	-0.564238410596026	10.3803973509934	-15.2423841059603	-11.674701986755			
116	2340	0.951841059602649	0.114754966887417	-0.183523178807947	3.39337748344371	-5.4646357615894	-1.18490066225166				1.00895364238411	0.0477880794701987	0.0451390728476822	4.35390728476821	0.867814569536424	-0.585960264900661				0.933827814569536	-0.0172715231788079	-0.27994701986755	-1.11258278145695	-2.93350993377483	-0.76026490066225				0.752529801324503	-0.192529801324503	-0.613721854304636	8.64291390728477	-5.4164238410596	-5.37562913907285				0.980026490066225	0.0194966887417219	0.0539337748344371	7.5117880794702	-4.14807947019868	-2.29748344370861				0.783788079470199	-0.158834437086093	-0.564238410596026	9.26039735099338	-12.1623841059603	-12.234701986755			
117	2360	0.951841059602649	0.114754966887417	-0.183523178807947	3.95337748344371	-7.1446357615894	-1.18490066225166				1.00895364238411	0.0477880794701987	0.0611390728476822	1.27390728476821	-1.93218543046358	-1.42596026490066				0.917827814569536	0.0147284768211921	-0.26394701986755	-1.67258278145695	-2.37350993377483	-1.60026490066225				0.736529801324503	-0.208529801324503	-0.613721854304636	7.52291390728477	-7.6564238410596	-3.69562913907285				0.980026490066225	0.0194966887417219	0.0699337748344371	9.1917880794702	-1.90807947019868	-1.45748344370861				0.751788079470199	-0.142834437086093	-0.580238410596026	6.74039735099338	-9.92238410596027	-11.954701986755			
118	2380	0.935841059602649	0.0987549668874172	-0.199523178807947	5.35337748344371	-7.4246357615894	-1.74490066225166				0.976953642384106	0.0317880794701987	0.0291390728476822	2.95390728476821	-4.45218543046358	-2.26596026490066				0.917827814569536	0.0147284768211921	-0.31194701986755	-1.11258278145695	-3.77350993377483	-1.88026490066225				0.704529801324503	-0.224529801324503	-0.613721854304636	5.00291390728477	-9.8964238410596	-3.13562913907285				0.964026490066225	0.0194966887417219	0.0379337748344371	6.9517880794702	-3.86807947019868	-0.617483443708608				0.751788079470199	-0.110834437086093	-0.564238410596026	7.30039735099338	-7.96238410596027	-11.114701986755			
119	2400	0.935841059602649	0.0987549668874172	-0.183523178807947	8.15337748344371	-6.3046357615894	-1.74490066225166				0.976953642384106	0.0637880794701987	0.0451390728476822	10.2339072847682	1.14781456953642	-0.86596026490066				0.901827814569536	-0.00127152317880793	-0.29594701986755	1.96741721854305	-2.93350993377483	-1.60026490066225				0.672529801324503	-0.208529801324503	-0.629721854304636	4.16291390728477	-9.3364238410596	-4.25562913907285				0.916026490066225	0.0354966887417219	0.0699337748344371	7.2317880794702	-1.90807947019868	-0.337483443708608				0.735788079470199	-0.142834437086093	-0.548238410596027	11.5003973509934	-8.52238410596027	-10.554701986755			
120	2420	0.935841059602649	0.0667549668874172	-0.167523178807947	5.91337748344371	-4.9046357615894	-1.74490066225166				0.976953642384106	0.0477880794701987	0.0291390728476822	8.27390728476821	-0.252185430463576	1.09403973509934				0.917827814569536	-0.0172715231788079	-0.31194701986755	3.08741721854305	-2.93350993377483	-0.48026490066225				0.672529801324503	-0.208529801324503	-0.613721854304636	3.60291390728477	-4.8564238410596	-3.97562913907285				0.948026490066225	0.0194966887417219	0.0539337748344371	4.7117880794702	0.611920529801325	-1.45748344370861				0.751788079470199	-0.158834437086093	-0.564238410596026	10.9403973509934	-8.80238410596027	-10.834701986755			
121	2440	0.919841059602649	0.0827549668874172	-0.167523178807947	6.47337748344371	-4.0646357615894	-0.904900662251656				0.976953642384106	0.0477880794701987	0.0611390728476822	6.59390728476821	-3.05218543046358	0.25403973509934				0.933827814569536	-0.0172715231788079	-0.27994701986755	1.40741721854305	-2.37350993377483	0.0797350993377501				0.688529801324503	-0.224529801324503	-0.597721854304636	4.72291390728477	-2.8964238410596	-2.29562913907285				0.964026490066225	0.00349668874172187	0.0539337748344371	4.1517880794702	-0.508079470198675	-1.17748344370861				0.751788079470199	-0.142834437086093	-0.564238410596026	4.78039735099338	-7.40238410596027	-11.114701986755			
122	2460	0.951841059602649	0.0987549668874172	-0.183523178807947	8.15337748344371	-4.3446357615894	-1.18490066225166				0.976953642384106	0.0797880794701987	0.0131390728476822	7.99390728476821	-8.37218543046358	0.53403973509934				0.917827814569536	-0.0332715231788079	-0.27994701986755	4.76741721854305	-4.05350993377483	-0.20026490066225				0.704529801324503	-0.224529801324503	-0.613721854304636	9.20291390728477	-1.4964238410596	0.784370860927152				0.980026490066225	0.0354966887417219	0.0379337748344371	4.4317880794702	-1.34807947019868	-0.337483443708608				0.767788079470199	-0.158834437086093	-0.580238410596026	3.66039735099338	-4.60238410596027	-10.274701986755			
123	2480	0.983841059602649	0.114754966887417	-0.215523178807947	7.31337748344371	-6.8646357615894	-1.18490066225166				0.992953642384106	0.0637880794701987	-0.00286092715231785	16.6739072847682	-4.45218543046358	-1.14596026490066				0.901827814569536	0.0147284768211921	-0.27994701986755	3.36741721854305	-3.77350993377483	-1.88026490066225				0.736529801324503	-0.208529801324503	-0.629721854304636	10.0429139072848	-1.2164238410596	1.34437086092715				0.996026490066225	0.0354966887417219	0.0219337748344371	4.1517880794702	-3.02807947019868	-0.0574834437086077				0.783788079470199	-0.158834437086093	-0.612238410596026	7.02039735099338	-7.40238410596027	-12.794701986755			
124	2500	0.935841059602649	0.114754966887417	-0.215523178807947	5.63337748344371	-8.82463576158941	-0.904900662251656				0.992953642384106	0.0317880794701987	0.0291390728476822	20.3139072847682	-0.252185430463576	2.21403973509934				0.917827814569536	0.0147284768211921	-0.31194701986755	7.84741721854305	-1.81350993377483	-3.00026490066225				0.736529801324503	-0.208529801324503	-0.613721854304636	6.96291390728477	-0.3764238410596	0.224370860927152				0.980026490066225	0.0354966887417219	0.0379337748344371	4.4317880794702	-6.38807947019868	1.06251655629139				0.767788079470199	-0.158834437086093	-0.612238410596026	-0.819602649006623	-8.80238410596027	-8.87470198675497			
125	2520	0.919841059602649	0.0827549668874172	-0.199523178807947	13.4733774834437	-7.4246357615894	-1.74490066225166				1.00895364238411	-0.000211920529801304	0.109139072847682	11.0739072847682	-3.33218543046358	3.61403973509934				0.901827814569536	-0.00127152317880793	-0.31194701986755	8.12741721854305	-0.973509933774833	-1.88026490066225				0.704529801324503	-0.224529801324503	-0.597721854304636	7.24291390728477	-0.3764238410596	0.784370860927152				0.932026490066225	0.00349668874172187	0.0699337748344371	6.1117880794702	-4.42807947019868	1.34251655629139				0.719788079470199	-0.126834437086093	-0.628238410596026	-9.49960264900662	-5.44238410596027	-0.754701986754968			
126	2540	0.935841059602649	0.0507549668874172	-0.231523178807947	11.2333774834437	-6.0246357615894	-1.46490066225166				1.00895364238411	0.0317880794701987	0.0451390728476822	0.153907284768212	-8.93218543046358	1.37403973509934				0.917827814569536	-0.0172715231788079	-0.32794701986755	9.52741721854305	-0.973509933774833	-1.32026490066225				0.720529801324503	-0.240529801324503	-0.597721854304636	6.40291390728477	0.7435761589404	0.224370860927152				0.964026490066225	0.0194966887417219	0.0539337748344371	6.3917880794702	-1.90807947019868	1.06251655629139				0.735788079470199	-0.110834437086093	-0.612238410596026	-4.73960264900662	-4.60238410596027	2.88529801324503			
127	2560	0.935841059602649	0.0507549668874172	-0.231523178807947	7.59337748344371	-5.4646357615894	-0.904900662251656				0.992953642384106	0.0317880794701987	-0.0348609271523178	2.11390728476821	-8.37218543046358	1.09403973509934				0.917827814569536	-0.0332715231788079	-0.29594701986755	4.76741721854305	-0.693509933774834	-0.20026490066225				0.704529801324503	-0.256529801324503	-0.613721854304636	9.48291390728477	1.0235761589404	4.42437086092715				0.948026490066225	0.00349668874172187	0.0379337748344371	6.1117880794702	-1.90807947019868	1.90251655629139				0.751788079470199	-0.142834437086093	-0.580238410596026	1.98039735099338	-6.28238410596027	2.32529801324503			
128	2580	0.919841059602649	0.0667549668874172	-0.231523178807947	4.79337748344371	-3.2246357615894	-0.624900662251656				0.960953642384106	0.0157880794701987	-0.0348609271523178	1.55390728476821	-0.532185430463576	2.77403973509934				0.901827814569536	-0.0332715231788079	-0.27994701986755	3.36741721854305	-3.21350993377483	-1.04026490066225				0.704529801324503	-0.256529801324503	-0.597721854304636	2.48291390728477	-1.2164238410596	4.42437086092715				0.964026490066225	0.00349668874172187	0.0539337748344371	4.9917880794702	-3.02807947019868	2.46251655629139				0.767788079470199	-0.158834437086093	-0.580238410596026	2.54039735099338	-6.84238410596027	0.365298013245032			
129	2600	0.935841059602649	0.0827549668874172	-0.231523178807947	4.51337748344371	-2.6646357615894	-1.18490066225166				0.992953642384106	0.0157880794701987	0.0291390728476822	-2.36609271523179	-4.17218543046358	3.61403973509934				0.901827814569536	-0.0332715231788079	-0.26394701986755	-1.67258278145695	-3.21350993377483	-0.76026490066225				0.704529801324503	-0.272529801324503	-0.597721854304636	1.36291390728477	-0.9364238410596	6.66437086092715				0.980026490066225	-0.0125033112582781	0.0539337748344371	3.3117880794702	-2.46807947019868	1.62251655629139				0.751788079470199	-0.158834437086093	-0.596238410596026	-3.05960264900662	-5.16238410596027	-0.754701986754968			
130	2620	0.951841059602649	0.0827549668874172	-0.231523178807947	1.71337748344371	-4.0646357615894	-0.344900662251656				0.976953642384106	0.0477880794701987	0.0291390728476822	0.153907284768212	-6.69218543046358	0.25403973509934				0.933827814569536	-0.00127152317880793	-0.27994701986755	-0.552582781456954	-0.413509933774833	-0.76026490066225				0.720529801324503	-0.256529801324503	-0.613721854304636	6.68291390728477	1.5835761589404	8.90437086092715				1.01202649006623	0.00349668874172187	0.0219337748344371	0.511788079470198	-5.26807947019868	2.46251655629139				0.751788079470199	-0.158834437086093	-0.596238410596026	-3.61960264900662	-2.08238410596027	-1.31470198675497			
131	2640	0.935841059602649	0.0667549668874172	-0.215523178807947	0.0333774834437086	-3.7846357615894	-0.624900662251656				0.992953642384106	0.0477880794701987	0.0131390728476822	1.55390728476821	-3.61218543046358	0.25403973509934				0.917827814569536	-0.00127152317880793	-0.26394701986755	-0.552582781456954	-0.413509933774833	-1.04026490066225				0.736529801324503	-0.256529801324503	-0.629721854304636	8.36291390728477	2.1435761589404	9.46437086092715				0.980026490066225	0.0194966887417219	0.0219337748344371	-1.4482119205298	-5.54807947019868	2.46251655629139				0.735788079470199	-0.158834437086093	-0.580238410596026	-5.85960264900662	0.157615894039735	-1.87470198675497			
132	2660	0.919841059602649	0.0667549668874172	-0.215523178807947	0.313377483443709	-2.6646357615894	-1.18490066225166				0.976953642384106	0.0157880794701987	0.0131390728476822	-2.08609271523179	-4.73218543046358	-0.0259602649006601				0.917827814569536	-0.0172715231788079	-0.27994701986755	1.96741721854305	-2.37350993377483	-0.76026490066225				0.704529801324503	-0.240529801324503	-0.629721854304636	5.84291390728477	1.5835761589404	8.90437086092715				0.948026490066225	-0.0125033112582781	0.0219337748344371	-0.328211920529802	-7.50807947019868	1.90251655629139				0.719788079470199	-0.142834437086093	-0.580238410596026	-5.57960264900662	0.437615894039735	-0.474701986754968			
133	2680	0.935841059602649	0.0827549668874172	-0.215523178807947	1.15337748344371	-1.5446357615894	-1.18490066225166				0.992953642384106	0.0157880794701987	0.0451390728476822	-4.32609271523179	-5.57218543046358	0.81403973509934				0.901827814569536	-0.0332715231788079	-0.29594701986755	-1.39258278145695	-4.33350993377483	-0.76026490066225				0.688529801324503	-0.272529801324503	-0.613721854304636	0.242913907284768	0.1835761589404	7.78437086092715				0.948026490066225	-0.0125033112582781	0.0379337748344371	-1.1682119205298	-7.22807947019868	2.46251655629139				0.719788079470199	-0.126834437086093	-0.612238410596026	-8.37960264900662	2.11761589403974	-0.754701986754968			
134	2700	0.935841059602649	0.0827549668874172	-0.215523178807947	-1.64662251655629	-2.1046357615894	-1.74490066225166				0.992953642384106	0.0317880794701987	0.0291390728476822	-6.56609271523179	-3.89218543046358	0.25403973509934				0.901827814569536	-0.0172715231788079	-0.29594701986755	-1.39258278145695	-3.77350993377483	-0.20026490066225				0.688529801324503	-0.256529801324503	-0.597721854304636	-2.55708609271523	-1.4964238410596	6.94437086092715				0.948026490066225	0.00349668874172187	0.0219337748344371	-2.5682119205298	-4.42807947019868	1.90251655629139				0.719788079470199	-0.126834437086093	-0.612238410596026	-5.29960264900662	2.67761589403974	-2.43470198675497			
135	2720	0.935841059602649	0.0987549668874172	-0.215523178807947	-1.08662251655629	-2.1046357615894	-1.18490066225166				0.960953642384106	0.0477880794701987	0.0291390728476822	-2.92609271523179	-1.37218543046358	0.53403973509934				0.933827814569536	-0.0172715231788079	-0.27994701986755	-4.75258278145695	-2.37350993377483	-0.48026490066225				0.704529801324503	-0.256529801324503	-0.613721854304636	-1.71708609271523	-1.7764238410596	5.82437086092715				0.932026490066225	0.00349668874172187	0.0219337748344371	-3.1282119205298	-3.86807947019868	0.222516556291392				0.719788079470199	-0.0948344370860927	-0.628238410596026	-4.73960264900662	0.997615894039735	-2.43470198675497			
136	2740	0.935841059602649	0.0987549668874172	-0.215523178807947	0.313377483443709	-2.9446357615894	-0.904900662251656				0.960953642384106	0.0317880794701987	0.0291390728476822	-2.92609271523179	-1.93218543046358	1.65403973509934				0.917827814569536	-0.00127152317880793	-0.27994701986755	-2.79258278145695	-2.93350993377483	-0.20026490066225				0.704529801324503	-0.256529801324503	-0.613721854304636	-3.11708609271523	-1.2164238410596	4.98437086092715				0.932026490066225	0.0194966887417219	0.0379337748344371	-2.0082119205298	-0.508079470198675	1.06251655629139				0.735788079470199	-0.0948344370860927	-0.612238410596026	-1.93960264900662	-0.122384105960265	-2.43470198675497			
137	2760	0.935841059602649	0.0827549668874172	-0.215523178807947	-2.76662251655629	-4.0646357615894	-1.46490066225166				0.944953642384106	0.0317880794701987	0.0291390728476822	-3.48609271523179	-4.45218543046358	0.53403973509934				0.901827814569536	-0.00127152317880793	-0.26394701986755	-3.07258278145695	-4.33350993377483	-0.20026490066225				0.704529801324503	-0.256529801324503	-0.597721854304636	-5.35708609271523	-1.7764238410596	5.26437086092715				0.932026490066225	0.0194966887417219	0.00593377483443711	-0.328211920529802	1.73192052980133	0.502516556291392				0.719788079470199	-0.0948344370860927	-0.612238410596026	0.580397350993377	-2.08238410596027	-3.27470198675497			
138	2780	0.935841059602649	0.0827549668874172	-0.215523178807947	-3.04662251655629	-5.1846357615894	-0.624900662251656				0.976953642384106	0.0477880794701987	0.0611390728476822	-2.36609271523179	-5.29218543046358	-0.0259602649006601				0.901827814569536	-0.00127152317880793	-0.29594701986755	-1.67258278145695	-5.17350993377483	-0.20026490066225				0.704529801324503	-0.224529801324503	-0.581721854304636	-4.51708609271523	-2.6164238410596	3.86437086092715				0.964026490066225	0.0194966887417219	0.0219337748344371	-0.0482119205298018	0.611920529801325	0.222516556291392				0.719788079470199	-0.110834437086093	-0.612238410596026	3.66039735099338	-5.16238410596027	-3.83470198675497			
139	2800	0.919841059602649	0.0827549668874172	-0.215523178807947	-1.92662251655629	-4.9046357615894	-0.0649006622516557				0.992953642384106	0.0477880794701987	0.0131390728476822	0.993907284768212	-16.4921854304636	2.77403973509934				0.917827814569536	-0.00127152317880793	-0.31194701986755	-0.832582781456954	-5.73350993377484	-1.04026490066225				0.720529801324503	-0.224529801324503	-0.597721854304636	-1.43708609271523	-2.3364238410596	3.30437086092715				0.964026490066225	0.0194966887417219	0.0379337748344371	-0.328211920529802	-0.508079470198675	-0.0574834437086077				0.735788079470199	-0.126834437086093	-0.628238410596026	2.54039735099338	-3.20238410596026	-3.83470198675497			
140	2820	0.919841059602649	0.0827549668874172	-0.215523178807947	-2.20662251655629	-6.3046357615894	-1.18490066225166				0.992953642384106	0.0157880794701987	-0.0508609271523178	-3.20609271523179	-10.6121854304636	3.89403973509934				0.901827814569536	-0.00127152317880793	-0.31194701986755	1.12741721854305	-4.33350993377483	-1.60026490066225				0.720529801324503	-0.240529801324503	-0.597721854304636	1.08291390728477	1.3035761589404	2.74437086092715				0.964026490066225	0.00349668874172187	0.0379337748344371	1.0717880794702	0.0519205298013249	-0.0574834437086077				0.735788079470199	-0.110834437086093	-0.628238410596026	-0.259602649006623	-0.682384105960265	-3.83470198675497			
141	2840	0.935841059602649	0.0987549668874172	-0.215523178807947	-1.08662251655629	-4.0646357615894	-0.904900662251656				0.992953642384106	0.0477880794701987	-0.0348609271523178	-5.72609271523179	-10.8921854304636	1.93403973509934				0.933827814569536	0.0147284768211921	-0.32794701986755	0.00741721854304636	-2.65350993377483	-1.04026490066225				0.704529801324503	-0.256529801324503	-0.597721854304636	1.92291390728477	1.5835761589404	1.90437086092715				0.980026490066225	0.00349668874172187	0.0219337748344371	2.7517880794702	2.29192052980133	0.782516556291392				0.735788079470199	-0.110834437086093	-0.612238410596026	5.34039735099338	-2.92238410596027	-4.11470198675497			
142	2860	0.951841059602649	0.0987549668874172	-0.247523178807947	-0.526622516556291	-4.3446357615894	-1.46490066225166				0.976953642384106	0.0797880794701987	-0.0828609271523179	0.993907284768212	-5.29218543046358	-0.0259602649006601				0.901827814569536	-0.00127152317880793	-0.31194701986755	1.96741721854305	-2.93350993377483	-1.32026490066225				0.720529801324503	-0.240529801324503	-0.613721854304636	1.36291390728477	0.4635761589404	0.784370860927152				0.980026490066225	0.0354966887417219	0.0219337748344371	2.4717880794702	2.57192052980133	1.06251655629139				0.735788079470199	-0.126834437086093	-0.596238410596026	5.90039735099338	-2.36238410596027	-3.27470198675497			
143	2880	0.967841059602649	0.130754966887417	-0.263523178807947	0.593377483443709	-4.6246357615894	-2.02490066225166				1.00895364238411	0.0637880794701987	-0.0188609271523178	12.1939072847682	0.587814569536424	1.09403973509934				0.901827814569536	0.0147284768211921	-0.32794701986755	2.52741721854305	-4.61350993377483	0.35973509933775				0.720529801324503	-0.224529801324503	-0.597721854304636	1.92291390728477	0.7435761589404	-0.0556291390728476				0.980026490066225	0.0194966887417219	0.0219337748344371	3.5917880794702	1.17192052980133	0.222516556291392				0.735788079470199	-0.158834437086093	-0.612238410596026	3.94039735099338	-2.08238410596027	-1.87470198675497			
144	2900	0.935841059602649	0.114754966887417	-0.247523178807947	3.95337748344371	-7.1446357615894	-2.02490066225166				0.992953642384106	0.0157880794701987	-0.00286092715231785	12.7539072847682	-4.45218543046358	3.33403973509934				0.901827814569536	0.0147284768211921	-0.35994701986755	4.48741721854305	-4.89350993377483	1.19973509933775				0.736529801324503	-0.240529801324503	-0.581721854304636	2.48291390728477	-0.3764238410596	-0.895629139072848				0.980026490066225	-0.0125033112582781	0.0539337748344371	6.9517880794702	-1.90807947019868	1.06251655629139				0.735788079470199	-0.142834437086093	-0.628238410596026	-1.09960264900662	-1.24238410596026	0.925298013245032			
145	2920	0.903841059602649	0.0827549668874172	-0.199523178807947	7.03337748344371	-7.1446357615894	-1.74490066225166				0.976953642384106	0.0317880794701987	-0.0348609271523178	3.23390728476821	-5.85218543046358	0.81403973509934				0.885827814569536	0.0147284768211921	-0.35994701986755	7.56741721854305	-2.93350993377483	-1.32026490066225				0.720529801324503	-0.256529801324503	-0.597721854304636	6.96291390728477	-1.4964238410596	-0.895629139072848				0.980026490066225	0.00349668874172187	0.0539337748344371	4.1517880794702	-1.34807947019868	0.782516556291392				0.735788079470199	-0.126834437086093	-0.628238410596026	0.300397350993377	-1.80238410596026	1.20529801324503			
146	2940	0.919841059602649	0.0507549668874172	-0.247523178807947	7.03337748344371	-3.7846357615894	-0.344900662251656				0.976953642384106	0.0157880794701987	-0.0188609271523178	0.993907284768212	0.0278145695364242	0.53403973509934				0.885827814569536	0.0147284768211921	-0.31194701986755	4.76741721854305	-1.81350993377483	-1.04026490066225				0.720529801324503	-0.256529801324503	-0.597721854304636	3.88291390728477	-3.4564238410596	-2.29562913907285				0	0	0	0	0	0				0	0	0	0	0	0			
147	2960	0.951841059602649	0.0827549668874172	-0.279523178807947	3.95337748344371	-2.1046357615894	-1.46490066225166				1.00895364238411	0.0317880794701987	0.0291390728476822	5.47390728476821	-1.93218543046358	0.53403973509934				0.933827814569536	-0.00127152317880793	-0.31194701986755	3.64741721854305	-2.93350993377483	-0.76026490066225				0	0	0	0	0	0				0	0	0	0	0	0				0	0	0	0	0	0			
148	2980	0.935841059602649	0.0987549668874172	-0.279523178807947	2.27337748344371	-4.9046357615894	-2.58490066225166				0.992953642384106	0.0317880794701987	-0.0188609271523178	7.99390728476821	-4.45218543046358	1.09403973509934				0.917827814569536	-0.0172715231788079	-0.34394701986755	4.76741721854305	-4.61350993377483	-1.60026490066225				0	0	0	0	0	0				0.964026490066225	0.00349668874172187	0.0379337748344371	3.5917880794702	0.611920529801325	0.782516556291392				0.735788079470199	-0.142834437086093	-0.580238410596026	4.78039735099338	-3.76238410596027	1.76529801324503			
149	3000	0.919841059602649	0.0827549668874172	-0.247523178807947	4.51337748344371	-4.9046357615894	-2.30490066225166				0.960953642384106	0.0317880794701987	-0.00286092715231785	6.03390728476821	-4.45218543046358	1.09403973509934				0.885827814569536	-0.0172715231788079	-0.29594701986755	3.36741721854305	-2.37350993377483	-1.04026490066225				0.720529801324503	-0.240529801324503	-0.597721854304636	4.16291390728477	-1.2164238410596	-4.25562913907285				0.964026490066225	0.00349668874172187	0.0699337748344371	5.5517880794702	0.611920529801325	0.502516556291392				0.735788079470199	-0.142834437086093	-0.596238410596026	-0.259602649006623	-2.08238410596027	0.365298013245032			
150	3020	0.919841059602649	0.0827549668874172	-0.247523178807947	3.39337748344371	-4.9046357615894	-0.904900662251656				0.960953642384106	0.0157880794701987	-0.0188609271523178	2.67390728476821	-3.33218543046358	-0.30596026490066				0.885827814569536	-0.0172715231788079	-0.27994701986755	1.40741721854305	-2.37350993377483	-0.76026490066225				0.720529801324503	-0.240529801324503	-0.581721854304636	3.04291390728477	-1.2164238410596	-1.17562913907285				0.964026490066225	0.0194966887417219	0.0539337748344371	4.9917880794702	0.331920529801325	0.502516556291392				0.751788079470199	-0.126834437086093	-0.596238410596026	1.14039735099338	-2.08238410596027	0.365298013245032			
151	3040	0.919841059602649	0.0827549668874172	-0.215523178807947	2.83337748344371	-4.6246357615894	-0.624900662251656				0.992953642384106	0.0157880794701987	0.0131390728476822	1.55390728476821	-0.532185430463576	-0.86596026490066				0.917827814569536	-0.0172715231788079	-0.32794701986755	2.52741721854305	-3.77350993377483	-0.48026490066225				0.720529801324503	-0.256529801324503	-0.581721854304636	5.00291390728477	-0.9364238410596	2.18437086092715				0.980026490066225	-0.0125033112582781	0.0699337748344371	3.0317880794702	0.0519205298013249	0.782516556291392				0.751788079470199	-0.142834437086093	-0.596238410596026	2.26039735099338	-3.48238410596027	-1.59470198675497			
152	3060	0.951841059602649	0.0827549668874172	-0.263523178807947	1.43337748344371	-6.0246357615894	-1.74490066225166				0.992953642384106	0.0317880794701987	0.0131390728476822	2.95390728476821	-6.41218543046358	-0.0259602649006601				0.933827814569536	-0.0172715231788079	-0.31194701986755	2.52741721854305	-3.49350993377483	-2.16026490066225				0.720529801324503	-0.240529801324503	-0.597721854304636	5.84291390728477	-1.2164238410596	2.18437086092715				0.980026490066225	-0.0125033112582781	0.0699337748344371	1.0717880794702	-3.58807947019868	0.502516556291392				0.751788079470199	-0.142834437086093	-0.580238410596026	1.98039735099338	-6.00238410596027	-3.55470198675497			
153	3080	0.935841059602649	0.114754966887417	-0.247523178807947	-1.36662251655629	-6.5846357615894	-2.58490066225166				0.976953642384106	0.0637880794701987	0.0131390728476822	0.993907284768212	-4.45218543046358	-0.86596026490066				0.901827814569536	-0.00127152317880793	-0.32794701986755	1.12741721854305	-5.73350993377484	-2.72026490066225				0.720529801324503	-0.240529801324503	-0.597721854304636	3.88291390728477	-3.7364238410596	1.90437086092715				0.948026490066225	0.0194966887417219	0.0539337748344371	0.511788079470198	-4.42807947019868	0.222516556291392				0.751788079470199	-0.158834437086093	-0.580238410596026	0.860397350993377	-6.84238410596027	-3.55470198675497			
154	3100	0.967841059602649	0.0187549668874172	-0.151523178807947	0.873377483443709	-2.9446357615894	-1.74490066225166				0.992953642384106	-0.000211920529801304	0.0291390728476822	1.55390728476821	-1.09218543046358	-0.585960264900661				0.869827814569536	0.0147284768211921	-0.31194701986755	0.567417218543046	-5.17350993377483	-2.16026490066225				0.640529801324503	-0.288529801324503	-0.613721854304636	-2.27708609271523	-2.0564238410596	0.504370860927152				0.948026490066225	0.0194966887417219	0.0539337748344371	0.511788079470198	-1.90807947019868	1.34251655629139				0.735788079470199	-0.142834437086093	-0.596238410596026	-0.819602649006623	-6.56238410596027	-3.55470198675497			
155	3120	0.903841059602649	0.0987549668874172	-0.247523178807947	2.55337748344371	-5.1846357615894	-0.344900662251656				0.992953642384106	0.0317880794701987	-0.0348609271523178	4.63390728476821	-6.41218543046358	-1.14596026490066				0.901827814569536	-0.00127152317880793	-0.32794701986755	1.40741721854305	-6.57350993377483	-1.32026490066225				0.720529801324503	-0.224529801324503	-0.597721854304636	-1.99708609271523	-6.5364238410596	3.30437086092715				0.964026490066225	0.00349668874172187	0.0699337748344371	2.1917880794702	-1.34807947019868	0.782516556291392				0.735788079470199	-0.126834437086093	-0.596238410596026	0.860397350993377	-5.44238410596027	-3.83470198675497			
156	3140	0.935841059602649	0.0827549668874172	-0.279523178807947	2.55337748344371	-5.7446357615894	-0.904900662251656				1.02495364238411	0.0317880794701987	-0.0188609271523178	3.79390728476821	-7.53218543046358	-0.585960264900661				0.933827814569536	-0.0172715231788079	-0.34394701986755	3.08741721854305	-4.61350993377483	-1.04026490066225				0.720529801324503	-0.240529801324503	-0.581721854304636	1.64291390728477	-6.5364238410596	5.54437086092715				0.980026490066225	0.0194966887417219	0.0379337748344371	1.0717880794702	-5.26807947019868	-0.0574834437086077				0.735788079470199	-0.142834437086093	-0.596238410596026	0.860397350993377	-3.48238410596027	-2.71470198675497			
157	3160	0.935841059602649	0.0987549668874172	-0.295523178807947	-1.36662251655629	-9.38463576158941	-0.344900662251656				1.00895364238411	0.0637880794701987	0.0451390728476822	2.67390728476821	-12.5721854304636	-1.14596026490066				0.917827814569536	-0.00127152317880793	-0.34394701986755	0.847417218543046	-5.45350993377483	-1.32026490066225				0.720529801324503	-0.256529801324503	-0.613721854304636	2.48291390728477	-4.2964238410596	5.54437086092715				0.980026490066225	0.0194966887417219	0.0539337748344371	0.511788079470198	-4.42807947019868	1.34251655629139				0.735788079470199	-0.142834437086093	-0.612238410596026	-3.05960264900662	-4.60238410596027	-3.55470198675497			
158	3180	0.903841059602649	0.0987549668874172	-0.231523178807947	2.83337748344371	-6.5846357615894	-2.02490066225166				0.976953642384106	0.0477880794701987	-0.0668609271523178	5.19390728476821	-14.8121854304636	-0.585960264900661				0.869827814569536	-0.00127152317880793	-0.34394701986755	0.847417218543046	-5.73350993377484	-1.32026490066225				0.704529801324503	-0.256529801324503	-0.613721854304636	5.56291390728477	-1.7764238410596	6.10437086092715				0.980026490066225	0.0194966887417219	0.0219337748344371	1.0717880794702	-6.94807947019868	0.222516556291392				0.751788079470199	-0.126834437086093	-0.612238410596026	-4.73960264900662	-5.44238410596027	-4.67470198675497			
