No	Time	12-AccX	12-AccY	12-AccZ	12-GyroX	12-GyroY	12-GyroZ	13-AccX	13-AccY	13-AccZ	13-GyroX	13-GyroY	13-GyroZ	14-AccX	14-AccY	14-AccZ	14-GyroX	14-GyroY	14-GyroZ	15-AccX	15-AccY	15-AccZ	15-GyroX	15-GyroY	15-GyroZ	16-AccX	16-AccY	16-AccZ	16-GyroX	16-GyroY	16-GyroZ	17-AccX	17-AccY	17-AccZ	17-GyroX	17-GyroY	17-GyroZ
0	0	0	0	0	0	0	0				0	0	0	0	0	0				-0.218172185430464	-0.129271523178808	-0.87194701986755	1.40741721854305	0.426490066225167	-0.76026490066225				0	0	0	0	0	0				0	0	0	0	0	0				0.399788079470199	-0.238834437086093	-0.836238410596026	0.0203973509933773	1.55761589403974	-1.87470198675497			
1	20	-0.280158940397351	0.146754966887417	-0.919523178807947	-0.526622516556291	0.415364238410596	-1.18490066225166				0.960953642384106	0.0477880794701987	0.317139072847682	0.993907284768212	1.42781456953642	1.65403973509934				-0.218172185430464	-0.129271523178808	-0.88794701986755	1.40741721854305	0.426490066225167	0.0797350993377501				0.496529801324503	-0.160529801324503	-0.837721854304636	-0.877086092715232	0.1835761589404	-1.17562913907285				0.964026490066225	0.0834966887417219	0.181933774834437	0.791788079470198	-3.58807947019868	-0.0574834437086077				0.399788079470199	-0.238834437086093	-0.836238410596026	-0.259602649006623	2.11761589403974	-1.31470198675497			
2	40	-0.280158940397351	0.130754966887417	-0.919523178807947	-0.526622516556291	0.135364238410596	-0.624900662251656				0.944953642384106	0.0637880794701987	0.317139072847682	1.83390728476821	1.14781456953642	0.81403973509934				-0.218172185430464	-0.113271523178808	-0.88794701986755	-0.552582781456954	0.426490066225167	-0.76026490066225				0.480529801324503	-0.144529801324503	-0.821721854304636	-1.99708609271523	0.4635761589404	-1.73562913907285				0.948026490066225	0.0834966887417219	0.165933774834437	-1.1682119205298	2.01192052980133	-1.45748344370861				0.415788079470199	-0.222834437086093	-0.852238410596026	0.580397350993377	1.27761589403974	-0.474701986754968			
3	60	-0.280158940397351	0.130754966887417	-0.935523178807947	0.313377483443709	0.415364238410596	-0.344900662251656				0.944953642384106	0.0477880794701987	0.317139072847682	-0.406092715231788	2.54781456953642	0.53403973509934				-0.218172185430464	-0.129271523178808	-0.88794701986755	0.287417218543046	-0.133509933774833	-0.48026490066225				0.480529801324503	-0.144529801324503	-0.837721854304636	-1.15708609271523	-0.3764238410596	-1.17562913907285				0.932026490066225	0.0994966887417219	0.213933774834437	-0.0482119205298018	2.29192052980133	-2.29748344370861				0.399788079470199	-0.222834437086093	-0.836238410596026	0.860397350993377	0.437615894039735	-0.194701986754968			
4	80	-0.280158940397351	0.130754966887417	-0.935523178807947	0.313377483443709	-0.144635761589404	-1.18490066225166				0.960953642384106	0.0637880794701987	0.349139072847682	-1.24609271523179	2.54781456953642	0.81403973509934				-0.218172185430464	-0.113271523178808	-0.88794701986755	1.40741721854305	0.426490066225167	-0.76026490066225				0.480529801324503	-0.128529801324503	-0.821721854304636	0.522913907284768	0.4635761589404	-1.45562913907285				0.948026490066225	0.0834966887417219	0.165933774834437	-1.4482119205298	2.85192052980133	-0.897483443708608				0.399788079470199	-0.238834437086093	-0.836238410596026	1.42039735099338	-0.402384105960265	0.645298013245032			
5	100	-0.280158940397351	0.146754966887417	-0.919523178807947	0.313377483443709	0.135364238410596	-0.904900662251656				0.960953642384106	0.0637880794701987	0.349139072847682	-0.966092715231788	-0.812185430463576	0.53403973509934				-0.234172185430464	-0.113271523178808	-0.88794701986755	0.287417218543046	0.146490066225167	-0.76026490066225				0.496529801324503	-0.144529801324503	-0.805721854304636	-0.317086092715232	0.7435761589404	-1.45562913907285				0.948026490066225	0.0834966887417219	0.197933774834437	0.791788079470198	2.29192052980133	0.222516556291392				0.415788079470199	-0.222834437086093	-0.836238410596026	0.860397350993377	0.717615894039735	0.925298013245032			
6	120	-0.264158940397351	0.146754966887417	-0.919523178807947	-0.246622516556291	-0.144635761589404	-0.624900662251656				0.944953642384106	0.0637880794701987	0.333139072847682	0.153907284768212	-1.93218543046358	-0.30596026490066				-0.218172185430464	-0.113271523178808	-0.88794701986755	-1.39258278145695	0.706490066225167	-0.76026490066225				0.496529801324503	-0.144529801324503	-0.821721854304636	-0.877086092715232	1.0235761589404	-0.335629139072848				0.948026490066225	0.0994966887417219	0.181933774834437	0.231788079470198	1.73192052980133	0.782516556291392				0.415788079470199	-0.222834437086093	-0.836238410596026	-0.539602649006623	2.95761589403974	1.48529801324503			
7	140	-0.280158940397351	0.146754966887417	-0.919523178807947	0.593377483443709	0.415364238410596	-1.18490066225166				0.928953642384106	0.0637880794701987	0.317139072847682	0.993907284768212	-1.09218543046358	-0.0259602649006601				-0.218172185430464	-0.113271523178808	-0.88794701986755	-0.272582781456954	0.706490066225167	-0.76026490066225				0.496529801324503	-0.128529801324503	-0.805721854304636	0.802913907284768	2.1435761589404	-0.335629139072848				0.948026490066225	0.0994966887417219	0.181933774834437	-1.1682119205298	0.331920529801325	0.782516556291392				0.415788079470199	-0.222834437086093	-0.836238410596026	1.42039735099338	1.83761589403974	1.76529801324503			
8	160	-0.280158940397351	0.146754966887417	-0.919523178807947	0.593377483443709	0.135364238410596	-1.18490066225166				0.944953642384106	0.0637880794701987	0.317139072847682	0.993907284768212	0.0278145695364242	-0.30596026490066				-0.218172185430464	-0.129271523178808	-0.88794701986755	0.00741721854304636	0.426490066225167	0.0797350993377501				0.480529801324503	-0.128529801324503	-0.805721854304636	1.64291390728477	1.8635761589404	-0.895629139072848				0.932026490066225	0.0834966887417219	0.197933774834437	-1.4482119205298	0.331920529801325	0.222516556291392				0.415788079470199	-0.222834437086093	-0.836238410596026	1.14039735099338	1.27761589403974	1.76529801324503			
9	180	-0.264158940397351	0.130754966887417	-0.919523178807947	0.0333774834437086	0.415364238410596	-1.46490066225166				0.944953642384106	0.0637880794701987	0.333139072847682	0.153907284768212	0.867814569536424	-0.0259602649006601				-0.218172185430464	-0.129271523178808	-0.87194701986755	0.00741721854304636	-0.133509933774833	-0.20026490066225				0.496529801324503	-0.128529801324503	-0.805721854304636	1.36291390728477	1.0235761589404	-1.45562913907285				0.948026490066225	0.0834966887417219	0.197933774834437	-1.7282119205298	-0.508079470198675	-0.0574834437086077				0.399788079470199	-0.222834437086093	-0.820238410596026	1.70039735099338	0.437615894039735	2.32529801324503			
10	200	-0.264158940397351	0.130754966887417	-0.919523178807947	0.313377483443709	0.135364238410596	-1.74490066225166				0.944953642384106	0.0637880794701987	0.317139072847682	-0.126092715231788	-0.532185430463576	-0.585960264900661				-0.218172185430464	-0.129271523178808	-0.88794701986755	-0.272582781456954	-0.133509933774833	0.0797350993377501				0.496529801324503	-0.144529801324503	-0.805721854304636	1.36291390728477	1.0235761589404	-0.335629139072848				0.948026490066225	0.0834966887417219	0.181933774834437	-2.0082119205298	0.0519205298013249	1.62251655629139				0.399788079470199	-0.222834437086093	-0.820238410596026	0.0203973509933773	0.997615894039735	1.20529801324503			
11	220	-0.264158940397351	0.146754966887417	-0.919523178807947	-0.526622516556291	-0.424635761589404	-1.74490066225166				0.928953642384106	0.0797880794701987	0.317139072847682	-0.966092715231788	0.867814569536424	-1.98596026490066				-0.218172185430464	-0.129271523178808	-0.87194701986755	-0.832582781456954	-0.133509933774833	0.91973509933775				0.512529801324503	-0.160529801324503	-0.821721854304636	1.08291390728477	1.8635761589404	0.224370860927152				0.948026490066225	0.0834966887417219	0.181933774834437	-0.888211920529802	0.331920529801325	0.222516556291392				0.399788079470199	-0.222834437086093	-0.820238410596026	-0.259602649006623	-0.122384105960265	1.76529801324503			
12	240	-0.280158940397351	0.130754966887417	-0.919523178807947	0.0333774834437086	-0.704635761589404	-1.18490066225166				0.928953642384106	0.0637880794701987	0.301139072847682	-0.966092715231788	2.26781456953642	-0.585960264900661				-0.218172185430464	-0.113271523178808	-0.88794701986755	-0.272582781456954	-1.53350993377483	1.19973509933775				0.496529801324503	-0.144529801324503	-0.805721854304636	-0.597086092715232	2.1435761589404	1.34437086092715				0.932026490066225	0.0994966887417219	0.181933774834437	-2.5682119205298	-1.90807947019868	0.222516556291392				0.399788079470199	-0.238834437086093	-0.820238410596026	0.0203973509933773	-0.682384105960265	1.20529801324503			
13	260	-0.280158940397351	0.130754966887417	-0.919523178807947	0.313377483443709	-0.984635761589404	-0.904900662251656				0.944953642384106	0.0637880794701987	0.317139072847682	-1.24609271523179	1.42781456953642	0.25403973509934				-0.218172185430464	-0.129271523178808	-0.87194701986755	-0.272582781456954	-0.973509933774833	0.91973509933775				0.480529801324503	-0.144529801324503	-0.805721854304636	1.92291390728477	1.5835761589404	3.30437086092715				0.948026490066225	0.0834966887417219	0.197933774834437	-2.0082119205298	-0.788079470198675	1.06251655629139				0.399788079470199	-0.238834437086093	-0.820238410596026	-1.09960264900662	-0.122384105960265	0.925298013245032			
14	280	-0.280158940397351	0.130754966887417	-0.919523178807947	-0.526622516556291	-0.984635761589404	-1.18490066225166				0.944953642384106	0.0477880794701987	0.317139072847682	-2.08609271523179	0.0278145695364242	-0.30596026490066				-0.218172185430464	-0.113271523178808	-0.88794701986755	-0.272582781456954	-0.973509933774833	0.0797350993377501				0.480529801324503	-0.144529801324503	-0.805721854304636	4.16291390728477	0.1835761589404	3.30437086092715				0.932026490066225	0.0834966887417219	0.197933774834437	-2.5682119205298	-0.508079470198675	0.502516556291392				0.399788079470199	-0.222834437086093	-0.820238410596026	-1.93960264900662	1.55761589403974	1.48529801324503			
15	300	-0.280158940397351	0.130754966887417	-0.919523178807947	0.313377483443709	-1.5446357615894	-0.344900662251656				0.944953642384106	0.0477880794701987	0.317139072847682	-4.32609271523179	3.10781456953642	-1.42596026490066				-0.218172185430464	-0.113271523178808	-0.88794701986755	0.00741721854304636	-0.413509933774833	-0.48026490066225				0.480529801324503	-0.160529801324503	-0.837721854304636	2.48291390728477	-3.4564238410596	2.74437086092715				0.948026490066225	0.0834966887417219	0.181933774834437	-2.8482119205298	-1.06807947019868	-1.17748344370861				0.383788079470199	-0.222834437086093	-0.836238410596026	-0.819602649006623	0.997615894039735	0.645298013245032			
16	320	-0.280158940397351	0.146754966887417	-0.919523178807947	0.313377483443709	-0.984635761589404	0.215099337748344				0.960953642384106	0.0637880794701987	0.333139072847682	-3.76609271523179	-0.532185430463576	-0.86596026490066				-0.218172185430464	-0.113271523178808	-0.88794701986755	-0.272582781456954	-1.53350993377483	-1.32026490066225				0.480529801324503	-0.160529801324503	-0.837721854304636	0.242913907284768	3.2635761589404	3.02437086092715				0.948026490066225	0.0994966887417219	0.181933774834437	-2.5682119205298	0.331920529801325	-0.337483443708608				0.383788079470199	-0.206834437086093	-0.852238410596026	-1.93960264900662	1.83761589403974	-0.754701986754968			
17	340	-0.280158940397351	0.130754966887417	-0.935523178807947	0.0333774834437086	-0.704635761589404	-0.0649006622516557				0.960953642384106	0.0637880794701987	0.285139072847682	0.153907284768212	-5.85218543046358	0.25403973509934				-0.234172185430464	-0.113271523178808	-0.87194701986755	-0.552582781456954	-0.973509933774833	-0.48026490066225				0.464529801324503	-0.160529801324503	-0.821721854304636	-0.317086092715232	5.7835761589404	5.26437086092715				0.948026490066225	0.0834966887417219	0.149933774834437	-4.2482119205298	-0.228079470198675	-0.337483443708608				0.383788079470199	-0.222834437086093	-0.852238410596026	-0.819602649006623	2.11761589403974	-1.59470198675497			
18	360	-0.296158940397351	0.130754966887417	-0.919523178807947	-0.806622516556291	-0.424635761589404	-0.624900662251656				0.976953642384106	0.0637880794701987	0.269139072847682	0.713907284768212	-5.29218543046358	-0.0259602649006601				-0.250172185430464	-0.129271523178808	-0.88794701986755	0.567417218543046	-0.133509933774833	-1.04026490066225				0.448529801324503	-0.176529801324503	-0.837721854304636	2.48291390728477	6.6235761589404	6.94437086092715				0.964026490066225	0.0834966887417219	0.133933774834437	-4.5282119205298	0.891920529801325	-0.0574834437086077				0.383788079470199	-0.206834437086093	-0.852238410596026	-1.65960264900662	0.157615894039735	-2.99470198675497			
19	380	-0.296158940397351	0.130754966887417	-0.919523178807947	-0.526622516556291	-0.704635761589404	0.215099337748344				0.976953642384106	0.0797880794701987	0.269139072847682	1.55390728476821	-6.97218543046358	0.81403973509934				-0.234172185430464	-0.0972715231788079	-0.88794701986755	1.12741721854305	-0.413509933774833	-2.16026490066225				0.448529801324503	-0.176529801324503	-0.853721854304636	4.72291390728477	8.3035761589404	8.62437086092715				0.980026490066225	0.0834966887417219	0.133933774834437	-6.2082119205298	0.331920529801325	-0.337483443708608				0.351788079470199	-0.206834437086093	-0.884238410596026	-3.05960264900662	0.717615894039735	-3.27470198675497			
20	400	-0.312158940397351	0.146754966887417	-0.903523178807947	-1.08662251655629	-0.144635761589404	-0.344900662251656				0.960953642384106	0.0797880794701987	0.237139072847682	2.11390728476821	-11.4521854304636	1.93403973509934				-0.250172185430464	-0.0972715231788079	-0.85594701986755	1.96741721854305	-0.973509933774833	-1.32026490066225				0.448529801324503	-0.192529801324503	-0.853721854304636	6.12291390728477	7.7435761589404	8.34437086092715				0.996026490066225	0.0994966887417219	0.101933774834437	-4.8082119205298	1.17192052980133	-0.0574834437086077				0.351788079470199	-0.174834437086093	-0.900238410596026	-1.09960264900662	2.39761589403974	-4.39470198675497			
21	420	-0.312158940397351	0.130754966887417	-0.919523178807947	-3.60662251655629	0.695364238410596	0.215099337748344				0.976953642384106	0.0477880794701987	0.221139072847682	2.95390728476821	-11.7321854304636	2.49403973509934				-0.250172185430464	-0.0972715231788079	-0.87194701986755	1.40741721854305	-0.413509933774833	-1.04026490066225				0.448529801324503	-0.192529801324503	-0.885721854304636	4.16291390728477	8.5835761589404	8.90437086092715				0.996026490066225	0.0674966887417219	0.0859337748344371	-6.7682119205298	0.891920529801325	0.222516556291392				0.319788079470199	-0.206834437086093	-0.884238410596026	0.300397350993377	4.07761589403974	-4.39470198675497			
22	440	-0.312158940397351	0.130754966887417	-0.919523178807947	-4.72662251655629	0.695364238410596	0.495099337748344				0.976953642384106	0.0637880794701987	0.205139072847682	5.75390728476821	-10.0521854304636	3.33403973509934				-0.266172185430464	-0.113271523178808	-0.88794701986755	2.80741721854305	0.146490066225167	-1.60026490066225				0.432529801324503	-0.192529801324503	-0.885721854304636	2.76291390728477	5.5035761589404	8.34437086092715				0.980026490066225	0.0834966887417219	0.0699337748344371	-4.2482119205298	0.331920529801325	1.62251655629139				0.287788079470199	-0.206834437086093	-0.900238410596026	-4.45960264900662	7.71761589403974	-3.55470198675497			
23	460	-0.312158940397351	0.130754966887417	-0.935523178807947	-5.28662251655629	1.8153642384106	0.775099337748344				0.960953642384106	0.0637880794701987	0.221139072847682	2.39390728476821	-8.93218543046358	3.05403973509934				-0.250172185430464	-0.0972715231788079	-0.88794701986755	3.64741721854305	0.706490066225167	-2.16026490066225				0.416529801324503	-0.208529801324503	-0.901721854304636	-0.317086092715232	3.2635761589404	5.26437086092715				0.948026490066225	0.0674966887417219	0.0699337748344371	-3.9682119205298	2.01192052980133	1.06251655629139				0.287788079470199	-0.222834437086093	-0.900238410596026	-4.45960264900662	6.31761589403974	-1.03470198675497			
24	480	-0.296158940397351	0.114754966887417	-0.919523178807947	-6.40662251655629	1.5353642384106	1.89509933774834				0.944953642384106	0.0477880794701987	0.205139072847682	-3.48609271523179	-7.25218543046358	2.21403973509934				-0.218172185430464	-0.113271523178808	-0.88794701986755	6.16741721854305	1.26649006622517	-3.00026490066225				0.400529801324503	-0.192529801324503	-0.901721854304636	-5.63708609271523	2.1435761589404	1.90437086092715				0.948026490066225	0.0674966887417219	0.0539337748344371	-4.5282119205298	4.81192052980133	-1.17748344370861				0.271788079470199	-0.222834437086093	-0.900238410596026	-2.77960264900662	6.03761589403974	2.04529801324503			
25	500	-0.280158940397351	0.114754966887417	-0.919523178807947	-7.52662251655629	2.0953642384106	2.73509933774834				0.944953642384106	0.0477880794701987	0.221139072847682	-6.84609271523179	-3.33218543046358	3.05403973509934				-0.218172185430464	-0.129271523178808	-0.88794701986755	5.32741721854305	1.26649006622517	-3.84026490066225				0.400529801324503	-0.192529801324503	-0.901721854304636	-10.1170860927152	1.3035761589404	-1.73562913907285				0.964026490066225	0.0674966887417219	0.0539337748344371	-3.4082119205298	8.17192052980133	-1.17748344370861				0.287788079470199	-0.206834437086093	-0.884238410596026	-5.29960264900662	9.67761589403974	6.52529801324503			
26	520	-0.280158940397351	0.130754966887417	-0.935523178807947	-7.80662251655629	1.5353642384106	3.01509933774834				0.944953642384106	0.0637880794701987	0.221139072847682	-5.44609271523179	0.867814569536424	3.33403973509934				-0.234172185430464	-0.129271523178808	-0.88794701986755	5.60741721854305	1.26649006622517	-3.84026490066225				0.400529801324503	-0.208529801324503	-0.869721854304636	-10.3970860927152	2.1435761589404	-8.73562913907285				0.948026490066225	0.0674966887417219	0.0539337748344371	-2.8482119205298	11.5319205298013	-0.897483443708608				0.287788079470199	-0.206834437086093	-0.884238410596026	-2.77960264900662	13.0376158940397	7.08529801324503			
27	540	-0.280158940397351	0.146754966887417	-0.919523178807947	-8.08662251655629	1.5353642384106	4.13509933774834				0.928953642384106	0.0797880794701987	0.221139072847682	-4.60609271523179	10.1078145695364	4.17403973509934				-0.234172185430464	-0.113271523178808	-0.88794701986755	5.60741721854305	0.986490066225167	-3.56026490066225				0.384529801324503	-0.192529801324503	-0.853721854304636	-12.9170860927152	2.7035761589404	-7.89562913907285				0.932026490066225	0.0674966887417219	0.0539337748344371	-1.1682119205298	13.2119205298013	-1.45748344370861				0.271788079470199	-0.206834437086093	-0.868238410596026	-0.819602649006623	16.1176158940397	10.165298013245			
28	560	-0.264158940397351	0.162754966887417	-0.919523178807947	-7.80662251655629	1.8153642384106	5.53509933774834				0.912953642384106	0.0317880794701987	0.237139072847682	-4.60609271523179	24.9478145695364	5.57403973509934				-0.234172185430464	-0.113271523178808	-0.87194701986755	7.84741721854305	0.986490066225167	-3.00026490066225				0.384529801324503	-0.160529801324503	-0.837721854304636	-15.1570860927152	2.9835761589404	-10.9756291390728				0.916026490066225	0.0674966887417219	0.0699337748344371	-0.888211920529802	13.4919205298013	-0.337483443708608				0.287788079470199	-0.206834437086093	-0.868238410596026	1.98039735099338	17.7976158940397	13.805298013245			
29	580	-0.264158940397351	0.162754966887417	-0.919523178807947	-8.36662251655629	0.135364238410596	5.25509933774834				0.912953642384106	0.0317880794701987	0.237139072847682	-7.96609271523179	31.6678145695364	4.45403973509934				-0.202172185430464	-0.145271523178808	-0.85594701986755	8.40741721854305	-0.133509933774833	-2.72026490066225				0.368529801324503	-0.160529801324503	-0.837721854304636	-15.4370860927152	3.5435761589404	-13.2156291390728				0.900026490066225	0.0514966887417219	0.0859337748344371	-0.608211920529802	15.1719205298013	-0.0574834437086077				0.287788079470199	-0.190834437086093	-0.868238410596026	1.42039735099338	21.9976158940397	17.445298013245			
30	600	-0.264158940397351	0.162754966887417	-0.903523178807947	-10.0466225165563	0.135364238410596	4.69509933774834				0.928953642384106	0.0477880794701987	0.237139072847682	-9.64609271523179	33.3478145695364	5.01403973509934				-0.202172185430464	-0.145271523178808	-0.87194701986755	7.56741721854305	-0.413509933774833	-3.00026490066225				0.400529801324503	-0.144529801324503	-0.837721854304636	-14.8770860927152	6.6235761589404	-17.1356291390729				0.932026490066225	0.0674966887417219	0.0699337748344371	-2.0082119205298	17.9719205298013	-1.45748344370861				0.287788079470199	-0.174834437086093	-0.884238410596026	9.54039735099338	22.2776158940397	20.245298013245			
31	620	-0.264158940397351	0.162754966887417	-0.919523178807947	-10.3266225165563	-0.144635761589404	-0.0649006622516557				0.944953642384106	0.0797880794701987	0.237139072847682	-7.40609271523179	38.1078145695364	5.85403973509934				-0.234172185430464	-0.145271523178808	-0.87194701986755	6.16741721854305	-1.53350993377483	-3.00026490066225				0.400529801324503	-0.112529801324503	-0.837721854304636	-15.4370860927152	9.1435761589404	-20.2156291390728				0.932026490066225	0.0834966887417219	0.0699337748344371	-0.0482119205298018	16.0119205298013	-0.897483443708608				0.287788079470199	-0.190834437086093	-0.852238410596026	17.3803973509934	23.6776158940397	21.645298013245			
32	640	-0.280158940397351	0.178754966887417	-0.903523178807947	-10.8866225165563	-0.144635761589404	3.29509933774834				0.928953642384106	0.0477880794701987	0.285139072847682	-7.96609271523179	46.5078145695364	8.09403973509934				-0.250172185430464	-0.129271523178808	-0.87194701986755	6.44741721854305	-0.413509933774833	-1.60026490066225				0.384529801324503	-0.112529801324503	-0.821721854304636	-12.9170860927152	11.1035761589404	-22.4556291390729				0.916026490066225	0.0994966887417219	0.0859337748344371	-1.4482119205298	20.4919205298013	-0.337483443708608				0.303788079470199	-0.222834437086093	-0.820238410596026	18.2203973509934	28.7176158940397	23.605298013245			
33	660	-0.280158940397351	0.210754966887417	-0.903523178807947	-12.5666225165563	-1.2646357615894	3.01509933774834				0.896953642384106	0.0477880794701987	0.333139072847682	-15.5260927152318	51.5478145695364	8.09403973509934				-0.250172185430464	-0.145271523178808	-0.88794701986755	7.28741721854305	0.146490066225167	-1.88026490066225				0.400529801324503	-0.0805298013245033	-0.821721854304636	-8.99708609271523	15.0235761589404	-24.4156291390728				0.932026490066225	0.0994966887417219	0.101933774834437	1.0717880794702	19.6519205298013	-0.617483443708608				0.319788079470199	-0.238834437086093	-0.820238410596026	17.9403973509934	32.6376158940397	27.525298013245			
34	680	-0.296158940397351	0.210754966887417	-0.919523178807947	-14.2466225165563	-1.8246357615894	3.01509933774834				0.944953642384106	0.0797880794701987	0.333139072847682	-16.0860927152318	52.9478145695364	8.37403973509934				-0.218172185430464	-0.145271523178808	-0.87194701986755	9.24741721854305	-0.413509933774833	-1.32026490066225				0.432529801324503	-0.112529801324503	-0.853721854304636	-5.91708609271523	17.8235761589404	-27.4956291390729				0.948026490066225	0.0834966887417219	0.117933774834437	3.5917880794702	19.0919205298013	-0.617483443708608				0.335788079470199	-0.254834437086093	-0.788238410596027	19.3403973509934	36.5576158940397	32.565298013245			
35	700	-0.296158940397351	0.226754966887417	-0.919523178807947	-12.5666225165563	-0.424635761589404	4.69509933774834				0.912953642384106	0.0797880794701987	0.317139072847682	-11.8860927152318	54.0678145695364	8.65403973509934				-0.234172185430464	-0.113271523178808	-0.87194701986755	8.40741721854305	-2.09350993377483	0.35973509933775				0.448529801324503	-0.112529801324503	-0.837721854304636	-3.67708609271523	22.0235761589404	-30.0156291390729				0.916026490066225	0.0994966887417219	0.133933774834437	3.0317880794702	25.5319205298013	-2.01748344370861				0.335788079470199	-0.254834437086093	-0.788238410596027	19.6203973509934	41.3176158940397	34.525298013245			
36	720	-0.296158940397351	0.226754966887417	-0.919523178807947	-10.0466225165563	0.975364238410596	3.85509933774834				0.896953642384106	0.0477880794701987	0.413139072847682	-10.4860927152318	65.8278145695364	8.93403973509934				-0.250172185430464	-0.129271523178808	-0.90394701986755	7.84741721854305	-0.973509933774833	1.19973509933775				0.416529801324503	-0.0965298013245033	-0.821721854304636	-2.55708609271523	25.1035761589404	-33.9356291390729				0.916026490066225	0.0834966887417219	0.117933774834437	1.9117880794702	26.0919205298013	-2.57748344370861				0.319788079470199	-0.270834437086093	-0.804238410596027	22.1403973509934	46.3576158940397	37.325298013245			
37	740	-0.280158940397351	0.210754966887417	-0.903523178807947	-10.8866225165563	1.8153642384106	2.73509933774834				0.912953642384106	0.0477880794701987	0.397139072847682	-8.80609271523179	65.8278145695364	10.3340397350993				-0.234172185430464	-0.161271523178808	-0.90394701986755	9.80741721854305	0.986490066225167	0.63973509933775				0.448529801324503	-0.0645298013245033	-0.789721854304636	-0.317086092715232	29.0235761589404	-35.3356291390729				0.932026490066225	0.0834966887417219	0.149933774834437	3.8717880794702	32.5319205298013	-3.97748344370861				0.335788079470199	-0.254834437086093	-0.772238410596026	10.6603973509934	52.5176158940397	42.925298013245			
38	760	-0.296158940397351	0.210754966887417	-0.903523178807947	-11.7266225165563	0.975364238410596	2.73509933774834				0.880953642384106	0.0317880794701987	0.397139072847682	-7.68609271523179	68.6278145695364	13.1340397350993				-0.250172185430464	-0.177271523178808	-0.87194701986755	14.287417218543	0.426490066225167	-1.04026490066225				0.544529801324503	-0.0485298013245033	-0.773721854304636	-1.15708609271523	32.1035761589404	-36.1756291390729				0.932026490066225	0.0834966887417219	0.197933774834437	8.3517880794702	38.1319205298013	-3.69748344370861				0.383788079470199	-0.238834437086093	-0.740238410596026	7.86039735099338	55.8776158940397	45.725298013245			
39	780	-0.312158940397351	0.226754966887417	-0.903523178807947	-13.1266225165563	1.5353642384106	1.89509933774834				0.848953642384106	0.0637880794701987	0.461139072847682	-11.3260927152318	73.9478145695364	8.93403973509934				-0.266172185430464	-0.129271523178808	-0.85594701986755	10.087417218543	0.706490066225167	-0.48026490066225				0.576529801324503	-0.0965298013245033	-0.773721854304636	-1.15708609271523	31.2635761589404	-40.3756291390728				0.916026490066225	0.0994966887417219	0.165933774834437	8.0717880794702	36.4519205298013	-3.41748344370861				0.431788079470199	-0.206834437086093	-0.772238410596026	1.98039735099338	54.1976158940397	42.085298013245			
40	800	-0.312158940397351	0.242754966887417	-0.903523178807947	-11.7266225165563	2.6553642384106	2.73509933774834				0.880953642384106	0.0157880794701987	0.509139072847682	-15.5260927152318	77.5878145695364	13.4140397350993				-0.266172185430464	-0.113271523178808	-0.85594701986755	11.207417218543	0.426490066225167	1.19973509933775				0.560529801324503	-0.0165298013245033	-0.709721854304636	-3.67708609271523	34.0635761589404	-42.6156291390729				0.868026490066225	0.163496688741722	0.213933774834437	8.9117880794702	37.5719205298013	-4.25748344370861				0.431788079470199	-0.222834437086093	-0.724238410596026	5.06039735099338	58.6776158940397	36.205298013245			
41	820	-0.328158940397351	0.210754966887417	-0.919523178807947	-11.1666225165563	4.0553642384106	5.81509933774834				0.896953642384106	-0.000211920529801304	0.525139072847682	-25.6060927152318	78.7078145695364	9.77403973509934				-0.282172185430464	-0.145271523178808	-0.87194701986755	14.847417218543	-0.133509933774833	1.75973509933775				0.512529801324503	0.0154701986754967	-0.709721854304636	10.6029139072848	41.3435761589404	-43.1756291390729				0.900026490066225	0.147496688741722	0.277933774834437	13.6717880794702	38.9719205298013	-3.69748344370861				0.399788079470199	-0.238834437086093	-0.724238410596026	8.70039735099338	62.8776158940397	32.005298013245			
42	840	-0.312158940397351	0.194754966887417	-0.919523178807947	-11.4466225165563	5.1753642384106	5.81509933774834				0.880953642384106	0.0157880794701987	0.605139072847682	-18.6060927152318	69.7478145695364	13.6940397350993				-0.266172185430464	-0.193271523178808	-0.88794701986755	16.247417218543	0.986490066225167	0.35973509933775				0.560529801324503	-0.0325298013245033	-0.725721854304636	26.8429139072848	48.9035761589404	-44.0156291390729				0.932026490066225	0.115496688741722	0.341933774834437	21.7917880794702	41.4919205298013	-4.53748344370861				0.463788079470199	-0.254834437086093	-0.692238410596026	14.5803973509934	65.3976158940397	29.765298013245			
43	860	-0.280158940397351	0.162754966887417	-0.903523178807947	-13.1266225165563	4.8953642384106	6.09509933774834				0.864953642384106	-0.0482119205298013	0.573139072847682	-11.3260927152318	59.9478145695364	15.0940397350993				-0.218172185430464	-0.209271523178808	-0.88794701986755	18.2074172185431	5.46649006622517	-1.60026490066225				0.640529801324503	-0.0965298013245033	-0.725721854304636	26.2829139072848	53.1035761589404	-42.0556291390728				0.900026490066225	0.0834966887417219	0.341933774834437	22.0717880794702	37.8519205298013	-5.65748344370861				0.511788079470199	-0.286834437086093	-0.724238410596026	15.4203973509934	61.4776158940397	25.565298013245			
44	880	-0.280158940397351	0.194754966887417	-0.887523178807947	-14.8066225165563	3.7753642384106	7.21509933774835				0.816953642384106	-0.0322119205298013	0.573139072847682	-9.92609271523179	46.7878145695364	15.0940397350993				-0.218172185430464	-0.193271523178808	-0.85594701986755	16.247417218543	3.50649006622517	-4.68026490066225				0.688529801324503	-0.0965298013245033	-0.709721854304636	23.4829139072848	57.0235761589404	-36.4556291390729				0.916026490066225	0.115496688741722	0.309933774834437	21.5117880794702	40.6519205298013	-7.61748344370861				0.559788079470199	-0.286834437086093	-0.708238410596026	8.70039735099338	61.4776158940397	23.885298013245			
45	900	-0.280158940397351	0.210754966887417	-0.935523178807947	-16.7666225165563	3.7753642384106	7.21509933774835				0.752953642384106	0.0157880794701987	0.653139072847682	-15.8060927152318	56.5878145695364	16.4940397350993				-0.250172185430464	-0.177271523178808	-0.85594701986755	16.247417218543	0.426490066225167	-4.96026490066225				0.720529801324503	-0.0485298013245033	-0.709721854304636	28.5229139072848	59.5435761589404	-28.3356291390729				0.916026490066225	0.147496688741722	0.357933774834437	29.3517880794702	40.0919205298013	-7.33748344370861				0.559788079470199	-0.350834437086093	-0.676238410596026	17.9403973509934	63.4376158940397	21.365298013245			
46	920	-0.280158940397351	0.258754966887417	-0.935523178807947	-18.7266225165563	4.3353642384106	7.77509933774834				0.784953642384106	-0.000211920529801304	0.733139072847682	-8.80609271523179	65.8278145695364	20.1340397350993				-0.250172185430464	-0.161271523178808	-0.88794701986755	13.727417218543	0.986490066225167	-4.40026490066225				0.720529801324503	-0.0965298013245033	-0.725721854304636	29.0829139072848	47.5035761589404	-26.9356291390729				0.868026490066225	0.0994966887417219	0.421933774834437	35.2317880794702	33.3719205298013	-3.97748344370861				0.591788079470199	-0.398834437086093	-0.644238410596026	28.5803973509934	60.6376158940397	17.725298013245			
47	940	-0.264158940397351	0.274754966887417	-0.967523178807947	-15.3666225165563	5.7353642384106	10.8550993377483				0.816953642384106	-0.0642119205298013	0.653139072847682	-0.686092715231788	59.6678145695364	18.1740397350993				-0.250172185430464	-0.161271523178808	-0.90394701986755	18.2074172185431	2.94649006622517	-4.96026490066225				0.752529801324503	-0.112529801324503	-0.725721854304636	20.6829139072848	37.7035761589404	-26.3756291390728				0.900026490066225	0.0994966887417219	0.469933774834437	33.2717880794702	34.2119205298013	-5.93748344370861				0.671788079470199	-0.414834437086093	-0.644238410596026	22.9803973509934	47.7576158940397	18.845298013245			
48	960	0	0	0	0	0	0				0.784953642384106	-0.000211920529801304	0.781139072847682	-4.32609271523179	55.7478145695364	11.7340397350993				-0.250172185430464	-0.225271523178808	-0.87194701986755	21.567417218543	4.06649006622517	-4.68026490066225				0	0	0	0	0	0				0	0	0	0	0	0				0	0	0	0	0	0			
49	980	-0.264158940397351	0.194754966887417	-0.855523178807947	-13.6866225165563	8.2553642384106	12.8150993377483				0.704953642384106	-0.0482119205298013	0.781139072847682	-2.36609271523179	45.3878145695364	12.2940397350993				-0.186172185430464	-0.225271523178808	-0.87194701986755	20.727417218543	5.74649006622517	-5.52026490066225				0.720529801324503	-0.0965298013245033	-0.709721854304636	0.802913907284768	33.7835761589404	-25.8156291390729				0.868026490066225	0.0834966887417219	0.469933774834437	29.0717880794702	35.3319205298013	-10.1374834437086				0.703788079470199	-0.542834437086093	-0.580238410596026	22.7003973509934	42.1576158940397	12.965298013245			
50	1000	-0.216158940397351	0.258754966887417	-0.887523178807947	-7.24662251655629	6.8553642384106	11.4150993377483				0.736953642384106	-0.0642119205298013	0.733139072847682	5.47390728476821	51.2678145695364	15.6540397350993				-0.154172185430464	-0.225271523178808	-0.87194701986755	17.647417218543	5.74649006622517	-5.24026490066225				0.784529801324503	0.0154701986754967	-0.613721854304636	-8.71708609271523	27.0635761589404	-21.8956291390728				0.900026490066225	0.131496688741722	0.517933774834437	17.3117880794702	29.7319205298013	-11.2574834437086				0.783788079470199	-0.526834437086093	-0.548238410596027	11.5003973509934	30.6776158940397	9.88529801324503			
51	1020	-0.248158940397351	0.306754966887417	-0.903523178807947	-8.36662251655629	4.3353642384106	13.3750993377483				0.768953642384106	-0.0802119205298013	0.733139072847682	3.51390728476821	45.3878145695364	13.9740397350993				-0.218172185430464	-0.225271523178808	-0.87194701986755	14.567417218543	6.58649006622517	-5.24026490066225				0.832529801324503	0.0794701986754967	-0.661721854304636	10.3229139072848	23.1435761589404	-17.6956291390729				0.932026490066225	0.211496688741722	0.533933774834437	15.0717880794702	22.7319205298013	-11.8174834437086				0.767788079470199	-0.494834437086093	-0.564238410596026	3.38039735099338	27.8776158940397	14.645298013245			
52	1040	-0.280158940397351	0.258754966887417	-0.951523178807947	-24.6066225165563	5.7353642384106	16.1750993377483				0.736953642384106	-0.0802119205298013	0.829139072847682	-2.08609271523179	29.9878145695364	12.5740397350993				-0.250172185430464	-0.209271523178808	-0.83994701986755	0.847417218543046	30.3864900662252	-8.88026490066225				0.784529801324503	0.0154701986754967	-0.725721854304636	22.6429139072848	27.3435761589404	-20.4956291390729				0.884026490066225	0.211496688741722	0.549933774834437	16.7517880794702	14.6119205298013	-10.1374834437086				0.735788079470199	-0.526834437086093	-0.548238410596027	6.74039735099338	26.4776158940397	18.845298013245			
53	1060	-0.280158940397351	0.210754966887417	-0.903523178807947	-25.7266225165563	4.6153642384106	17.2950993377483				0.704953642384106	-0.128211920529801	0.813139072847682	-3.48609271523179	25.2278145695364	11.7340397350993				-0.202172185430464	-0.257271523178808	-0.87194701986755	8.68741721854305	25.9064900662252	-11.1202649006623				0.784529801324503	-0.0645298013245033	-0.693721854304636	5.28291390728477	17.5435761589404	-19.6556291390729				0.836026490066225	0.179496688741722	0.501933774834437	14.2317880794702	9.85192052980133	-7.33748344370861				0.719788079470199	-0.494834437086093	-0.516238410596026	17.9403973509934	19.1976158940397	17.445298013245			
54	1080	-0.296158940397351	0.274754966887417	-0.823523178807947	-8.36662251655629	5.4553642384106	11.9750993377483				0.752953642384106	-0.0482119205298013	0.813139072847682	-6.00609271523179	24.6678145695364	11.1740397350993				-0.202172185430464	-0.273271523178808	-0.90394701986755	16.807417218543	11.6264900662252	-7.20026490066225				0.816529801324503	-0.0645298013245033	-0.661721854304636	-24.1170860927152	-2.8964238410596	-14.6156291390728				0.852026490066225	0.163496688741722	0.485933774834437	12.5517880794702	16.0119205298013	-7.89748344370861				0.703788079470199	-0.494834437086093	-0.500238410596026	14.3003973509934	22.2776158940397	16.325298013245			
55	1100	-0.296158940397351	0.338754966887417	-0.903523178807947	-13.9666225165563	4.8953642384106	11.6950993377483				0.688953642384106	-0.0322119205298013	0.765139072847682	-23.3660927152318	45.6678145695364	10.6140397350993				-0.186172185430464	-0.209271523178808	-0.87194701986755	21.287417218543	18.9064900662252	-15.8802649006623				0.720529801324503	-0.0165298013245033	-0.661721854304636	-34.7570860927152	-12.4164238410596	-14.3356291390729				0.884026490066225	0.147496688741722	0.517933774834437	12.2717880794702	20.4919205298013	-10.1374834437086				0.703788079470199	-0.494834437086093	-0.516238410596026	7.58039735099338	19.1976158940397	14.645298013245			
56	1120	-0.280158940397351	0.322754966887417	-0.919523178807947	-20.6866225165563	5.1753642384106	16.1750993377483				0.736953642384106	-0.0482119205298013	0.749139072847682	-0.406092715231788	8.42781456953642	8.37403973509934				-0.154172185430464	-0.241271523178808	-0.83994701986755	23.807417218543	11.3464900662252	-8.32026490066225				0.736529801324503	0.0154701986754967	-0.677721854304636	-29.7170860927152	-11.5764238410596	-14.3356291390729				0.900026490066225	0.147496688741722	0.517933774834437	6.9517880794702	16.2919205298013	-12.3774834437086				0.735788079470199	-0.494834437086093	-0.532238410596027	8.70039735099338	20.0376158940397	9.32529801324503			
57	1140	-0.280158940397351	0.290754966887417	-0.871523178807947	-11.7266225165563	5.7353642384106	15.6150993377483				0.704953642384106	-0.000211920529801304	0.797139072847682	1.83390728476821	9.26781456953642	4.73403973509934				-0.186172185430464	-0.257271523178808	-0.88794701986755	27.447417218543	-6.57350993377483	8.19973509933775				0.784529801324503	0.0154701986754967	-0.661721854304636	-21.3170860927152	-6.8164238410596	-10.6956291390728				0.916026490066225	0.179496688741722	0.469933774834437	4.9917880794702	6.77192052980133	-10.1374834437086				0.735788079470199	-0.478834437086093	-0.580238410596026	10.6603973509934	13.3176158940397	-1.31470198675497			
58	1160	-0.296158940397351	0.338754966887417	-0.823523178807947	-8.64662251655629	7.4153642384106	17.2950993377483				0.752953642384106	-0.0162119205298013	0.797139072847682	1.27390728476821	8.98781456953643	7.25403973509934				-0.266172185430464	-0.273271523178808	-0.82394701986755	30.8074172185431	-9.93350993377483	9.03973509933775				0.768529801324503	0.0154701986754967	-0.661721854304636	-17.3970860927152	-4.5764238410596	-7.05562913907285				0.900026490066225	0.243496688741722	0.453933774834437	-0.608211920529802	7.05192052980133	-12.9374834437086				0.703788079470199	-0.478834437086093	-0.596238410596026	17.6603973509934	9.95761589403974	-3.27470198675497			
59	1180	-0.392158940397351	0.386754966887417	-1.01552317880795	-34.4066225165563	19.7353642384106	22.8950993377483				0.752953642384106	-0.0482119205298013	0.845139072847682	-1.52609271523179	1.98781456953642	8.09403973509934				-0.330172185430464	-0.321271523178808	-0.88794701986755	28.8474172185431	-1.53350993377483	6.79973509933775				0.688529801324503	0.0154701986754967	-0.645721854304636	-14.8770860927152	0.4635761589404	-4.81562913907285				0.852026490066225	0.211496688741722	0.421933774834437	0.511788079470198	8.17192052980133	-13.2174834437086				0.623788079470199	-0.542834437086093	-0.548238410596027	10.1003973509934	4.07761589403974	0.925298013245032			
60	1200	-0.392158940397351	0.418754966887417	-1.07952317880795	-30.4866225165563	23.0953642384106	23.1750993377483				0.752953642384106	-0.112211920529801	0.781139072847682	-2.36609271523179	10.3878145695364	6.97403973509934				-0.394172185430464	-0.417271523178808	-1.07994701986755	16.5274172185431	11.6264900662252	-0.20026490066225				0.672529801324503	0.0634701986754967	-0.645721854304636	-15.1570860927152	3.8235761589404	-10.4156291390728				0.836026490066225	0.195496688741722	0.469933774834437	4.9917880794702	13.2119205298013	-14.8974834437086				0.623788079470199	-0.526834437086093	-0.580238410596026	-9.21960264900662	-1.24238410596026	6.52529801324503			
61	1220	-0.168158940397351	0.466754966887417	-0.695523178807947	-26.5666225165563	28.9753642384106	17.5750993377483				0.800953642384106	-0.0962119205298013	0.925139072847682	1.27390728476821	26.0678145695364	4.73403973509934				-0.218172185430464	-0.273271523178808	-0.77594701986755	35.567417218543	44.6664900662252	-4.40026490066225				0.720529801324503	0.0794701986754967	-0.661721854304636	-20.4770860927152	8.3035761589404	-16.8556291390729				0.900026490066225	0.227496688741722	0.517933774834437	5.8317880794702	19.3719205298013	-15.1774834437086				0.639788079470199	-0.494834437086093	-0.612238410596026	-19.0196026490066	-6.00238410596027	8.20529801324503			
62	1240	-0.168158940397351	0.418754966887417	-0.951523178807947	-29.9266225165563	28.1353642384106	19.2550993377483				0.848953642384106	-0.0962119205298013	1.06913907284768	5.19390728476821	27.4678145695364	4.45403973509934				-0.282172185430464	-0.337271523178808	-0.95194701986755	-2.51258278145695	27.3064900662252	-4.40026490066225				0.784529801324503	0.111470198675497	-0.709721854304636	-13.1970860927152	20.0635761589404	-16.0156291390729				1.01202649006623	0.275496688741722	0.549933774834437	5.8317880794702	26.0919205298013	-15.4574834437086				0.655788079470199	-0.494834437086093	-0.676238410596026	-13.4196026490066	-4.88238410596027	2.88529801324503			
63	1260	-0.136158940397351	0.434754966887417	-0.951523178807947	-9.76662251655629	34.0153642384106	14.2150993377483				0.832953642384106	-0.144211920529801	1.03713907284768	15.8339072847682	24.3878145695364	4.73403973509934				-0.154172185430464	-0.353271523178808	-1.06394701986755	-10.352582781457	56.7064900662252	-15.0402649006623				0.864529801324503	0.0794701986754967	-0.757721854304636	5.00291390728477	42.1835761589404	-17.1356291390729				1.06002649006623	0.275496688741722	0.581933774834437	5.8317880794702	29.4519205298013	-14.8974834437086				0.703788079470199	-0.462834437086093	-0.724238410596026	-0.259602649006623	11.0776158940397	-4.39470198675497			
64	1280	-0.248158940397351	0.434754966887417	-0.999523178807947	-3.32662251655629	41.5753642384106	12.8150993377483				0.752953642384106	-0.144211920529801	1.00513907284768	15.5539072847682	25.5078145695364	4.73403973509934				-0.0901721854304636	-0.449271523178808	-0.93594701986755	-34.152582781457	56.9864900662252	-10.0002649006623				0.880529801324503	0.0794701986754967	-0.725721854304636	14.8029139072848	60.3835761589404	-18.2556291390728				1.06002649006623	0.275496688741722	0.549933774834437	12.2717880794702	33.6519205298013	-15.1774834437086				0.703788079470199	-0.478834437086093	-0.660238410596027	17.1003973509934	32.0776158940397	-2.43470198675497			
65	1300	-0.232158940397351	0.386754966887417	-1.03152317880795	-1.92662251655629	52.2153642384106	13.9350993377483				0.864953642384106	-0.128211920529801	1.08513907284768	13.3139072847682	31.3878145695364	9.21403973509934				-0.218172185430464	-0.353271523178808	-0.90394701986755	-31.352582781457	62.3064900662252	-13.3602649006623				0.944529801324503	0.111470198675497	-0.709721854304636	17.6029139072848	66.5435761589404	-21.3356291390729				1.02802649006623	0.291496688741722	0.613933774834437	16.7517880794702	36.7319205298013	-14.3374834437086				0.751788079470199	-0.558834437086093	-0.532238410596027	19.9003973509934	48.3176158940397	-1.31470198675497			
66	1320	-0.216158940397351	0.418754966887417	-0.951523178807947	8.99337748344371	60.0553642384106	14.2150993377483				0.864953642384106	-0.0482119205298013	1.03713907284768	22.5539072847682	7.02781456953642	9.21403973509934				-0.202172185430464	-0.257271523178808	-0.98394701986755	-19.312582781457	65.1064900662252	-19.5202649006623				1.0245298013245	0.0794701986754967	-0.709721854304636	20.4029139072848	70.7435761589404	-20.2156291390728				1.04402649006623	0.275496688741722	0.725933774834437	16.1917880794702	37.8519205298013	-14.3374834437086				0.831788079470199	-0.606834437086093	-0.580238410596026	6.46039735099338	55.0376158940397	-0.754701986754968			
67	1340	-0.232158940397351	0.402754966887417	-0.935523178807947	15.7133774834437	69.0153642384106	16.7350993377483				0.848953642384106	-0.0322119205298013	0.941139072847682	27.0339072847682	-0.252185430463576	6.69403973509934				-0.154172185430464	-0.385271523178808	-0.91994701986755	-23.232582781457	61.1864900662252	-6.08026490066225				1.0405298013245	0.0634701986754967	-0.677721854304636	17.6029139072848	72.4235761589404	-19.0956291390728				1.04402649006623	0.307496688741722	0.645933774834437	8.6317880794702	25.2519205298013	-12.6574834437086				0.911788079470199	-0.654834437086093	-0.580238410596026	14.3003973509934	57.2776158940397	-7.75470198675497			
68	1360	-0.152158940397351	0.354754966887417	-0.951523178807947	21.8733774834437	69.2953642384106	18.9750993377483				0.768953642384106	-0.112211920529801	0.877139072847682	29.8339072847682	-2.49218543046358	5.01403973509934				-0.0421721854304636	-0.241271523178808	-0.87194701986755	-37.512582781457	62.0264900662252	6.51973509933775				1.0085298013245	0.0474701986754967	-0.645721854304636	7.80291390728477	69.0635761589404	-21.6156291390729				0.996026490066225	0.307496688741722	0.581933774834437	8.3517880794702	25.8119205298013	-12.9374834437086				0.991788079470199	-0.574834437086093	-0.484238410596026	5.62039735099338	55.8776158940397	-14.194701986755			
69	1380	-0.136158940397351	0.370754966887417	-0.919523178807947	21.0333774834437	67.8953642384106	17.8550993377483				0.784953642384106	-0.112211920529801	0.893139072847682	22.8339072847682	-8.37218543046358	7.25403973509934				-0.202172185430464	-0.161271523178808	-0.95194701986755	-42.552582781457	64.5464900662252	1.19973509933775				0.960529801324503	0.111470198675497	-0.613721854304636	10.6029139072848	63.4635761589404	-17.6956291390729				0.964026490066225	0.291496688741722	0.613933774834437	11.1517880794702	26.6519205298013	-13.2174834437086				0.895788079470199	-0.574834437086093	-0.532238410596027	9.82039735099338	56.9976158940397	-13.914701986755			
70	1400	-0.088158940397351	0.354754966887417	-0.887523178807947	22.7133774834437	68.4553642384106	16.7350993377483				0.800953642384106	0.0157880794701987	0.781139072847682	31.5139072847682	-13.9721854304636	5.57403973509934				-0.122172185430464	-0.113271523178808	-0.99994701986755	1.40741721854305	59.5064900662252	-3.28026490066225				0.928529801324503	0.127470198675497	-0.613721854304636	26.2829139072848	61.2235761589404	-15.1756291390728				0.964026490066225	0.195496688741722	0.693933774834437	13.3917880794702	20.7719205298013	-10.4174834437086				0.847788079470199	-0.590834437086093	-0.548238410596027	9.82039735099338	53.3576158940397	-13.914701986755			
71	1420	0.023841059602649	0.418754966887417	-0.967523178807947	27.1933774834437	73.4953642384106	18.9750993377483				0.800953642384106	-0.000211920529801304	0.909139072847682	28.4339072847682	-18.7321854304636	0.53403973509934				-0.330172185430464	-0.353271523178808	-0.99994701986755	17.087417218543	60.9064900662252	-11.1202649006623				1.0085298013245	0.0474701986754967	-0.613721854304636	33.8429139072848	51.4235761589404	-9.29562913907285				0.964026490066225	0.259496688741722	0.629933774834437	5.5517880794702	6.21192052980133	-8.45748344370861				0.847788079470199	-0.590834437086093	-0.564238410596026	4.22039735099338	52.5176158940397	-13.354701986755			
72	1440	0.071841059602649	0.290754966887417	-0.999523178807947	31.9533774834437	80.7753642384106	19.5350993377483				0.784953642384106	-0.0482119205298013	0.957139072847682	28.9939072847682	-14.5321854304636	0.81403973509934				0.0378278145695364	-0.321271523178808	-0.99994701986755	5.32741721854305	61.1864900662252	-9.16026490066225				1.0725298013245	-0.000529801324503289	-0.693721854304636	23.4829139072848	38.5435761589404	-5.93562913907285				0.948026490066225	0.323496688741722	0.565933774834437	3.3117880794702	3.97192052980133	-8.73748344370861				0.895788079470199	-0.542834437086093	-0.532238410596027	-0.539602649006623	46.0776158940397	-16.994701986755			
73	1460	0.071841059602649	0.290754966887417	-0.983523178807947	29.4333774834437	81.6153642384106	20.3750993377483				0.784953642384106	-0.0162119205298013	0.957139072847682	27.5939072847682	-14.2521854304636	4.17403973509934				-0.0101721854304636	-0.257271523178808	-0.95194701986755	17.3674172185431	68.4664900662252	-16.7202649006623				1.0565298013245	0.0154701986754967	-0.693721854304636	6.96291390728477	32.9435761589404	-10.9756291390728				0.932026490066225	0.323496688741722	0.581933774834437	6.1117880794702	6.77192052980133	-10.6974834437086				0.911788079470199	-0.526834437086093	-0.516238410596026	-6.13960264900662	45.2376158940397	-14.194701986755			
74	1480	0.087841059602649	0.306754966887417	-0.999523178807947	38.9533774834437	78.8153642384106	22.6150993377483				0.800953642384106	0.0797880794701987	0.925139072847682	17.7939072847682	-14.5321854304636	0.53403973509934				-0.0261721854304636	-0.401271523178808	-0.90394701986755	49.0074172185431	56.1464900662252	-13.9202649006623				1.0245298013245	0.0794701986754967	-0.645721854304636	0.242913907284768	21.1835761589404	-15.4556291390728				0.932026490066225	0.355496688741722	0.581933774834437	7.5117880794702	6.21192052980133	-14.6174834437086				0.895788079470199	-0.526834437086093	-0.516238410596026	-15.0996026490066	39.0776158940397	-12.234701986755			
75	1500	0.119841059602649	0.386754966887417	-0.967523178807947	40.9133774834437	82.7353642384106	22.0550993377483				0.768953642384106	-0.0162119205298013	0.909139072847682	22.5539072847682	-7.81218543046358	5.29403973509934				0.293827814569536	-0.177271523178808	-0.95194701986755	21.287417218543	69.5864900662252	-24.2802649006623				0.976529801324503	0.143470198675497	-0.581721854304636	-0.877086092715232	7.7435761589404	-16.2956291390729				0.916026490066225	0.355496688741722	0.613933774834437	8.0717880794702	4.25192052980133	-15.7374834437086				0.879788079470199	-0.494834437086093	-0.516238410596026	-15.6596026490066	33.1976158940397	-8.59470198675497			
76	1520	0.215841059602649	0.290754966887417	-0.951523178807947	44.5533774834437	88.3353642384106	20.9350993377483				0.768953642384106	-0.128211920529801	0.909139072847682	14.7139072847682	-7.25218543046358	6.69403973509934				0.245827814569536	-0.0812715231788079	-0.87194701986755	-33.592582781457	84.4264900662252	-5.80026490066225				0.976529801324503	0.127470198675497	-0.549721854304636	-3.95708609271523	-1.7764238410596	-15.1756291390728				0.884026490066225	0.339496688741722	0.613933774834437	7.7917880794702	3.41192052980132	-13.4974834437086				0.927788079470199	-0.494834437086093	-0.516238410596026	-14.2596026490066	32.3576158940397	-5.23470198675497			
77	1540	0.295841059602649	0.242754966887417	-0.999523178807947	34.4733774834437	90.8553642384106	20.9350993377483				0.816953642384106	0.0637880794701987	0.877139072847682	16.3939072847682	-11.4521854304636	-1.98596026490066				0.277827814569536	-0.241271523178808	-0.91994701986755	-2.79258278145695	81.0664900662252	-16.1602649006623				0.944529801324503	0.0954701986754967	-0.549721854304636	-8.71708609271523	-0.0964238410596001	-18.2556291390728				0.900026490066225	0.307496688741722	0.597933774834437	6.3917880794702	1.73192052980133	-12.0974834437086				0.991788079470199	-0.510834437086093	-0.516238410596026	-9.77960264900662	31.5176158940397	-4.11470198675497			
78	1560	0.263841059602649	0.290754966887417	-0.903523178807947	35.3133774834437	92.8153642384106	20.0950993377483				0.816953642384106	-0.0482119205298013	0.861139072847682	17.2339072847682	-2.49218543046358	6.69403973509934				0.261827814569536	-0.257271523178808	-0.90394701986755	6.44741721854305	84.9864900662252	-12.8002649006623				0.880529801324503	0.127470198675497	-0.485721854304636	-3.39708609271523	4.6635761589404	-19.6556291390729				0.900026490066225	0.339496688741722	0.581933774834437	4.9917880794702	4.25192052980133	-10.9774834437086				1.0077880794702	-0.526834437086093	-0.484238410596026	-7.25960264900662	21.1576158940397	-4.39470198675497			
79	1580	0.247841059602649	0.274754966887417	-0.951523178807947	40.0733774834437	98.1353642384106	20.9350993377483				0.752953642384106	-0.0482119205298013	0.829139072847682	7.99390728476821	4.22781456953642	-3.94596026490066				0.293827814569536	-0.273271523178808	-0.90394701986755	-1.67258278145695	86.9464900662252	-12.5202649006623				0.864529801324503	0.191470198675497	-0.421721854304636	3.88291390728477	14.7435761589404	-16.8556291390729				0.852026490066225	0.371496688741722	0.613933774834437	6.3917880794702	6.77192052980133	-9.29748344370861				0.927788079470199	-0.494834437086093	-0.500238410596026	-11.1796026490066	12.4776158940397	-3.27470198675497			
80	1600	0.295841059602649	0.210754966887417	-0.903523178807947	46.7933774834437	95.8953642384106	20.6550993377483				0.864953642384106	-0.000211920529801304	0.893139072847682	9.39390728476821	-1.09218543046358	-11.2259602649007				0.325827814569536	-0.273271523178808	-0.91994701986755	-3.63258278145695	89.7464900662252	-12.5202649006623				0.960529801324503	0.239470198675497	-0.389721854304636	12.2829139072848	22.3035761589404	-10.9756291390728				0.836026490066225	0.355496688741722	0.677933774834437	10.0317880794702	8.45192052980133	-6.21748344370861				0.911788079470199	-0.542834437086093	-0.372238410596026	-27.4196026490066	-6.56238410596027	-12.234701986755			
81	1620	0.295841059602649	0.146754966887417	-0.855523178807947	40.6333774834437	97.0153642384106	18.9750993377483				0.864953642384106	-0.0162119205298013	0.797139072847682	6.31390728476821	-29.3721854304636	-9.54596026490066				0.309827814569536	-0.241271523178808	-0.83994701986755	-3.35258278145695	94.2264900662252	-13.9202649006623				0.976529801324503	0.191470198675497	-0.453721854304636	24.6029139072848	26.2235761589404	-6.77562913907285				0.916026490066225	0.323496688741722	0.677933774834437	0.791788079470198	3.13192052980133	-3.97748344370861				0.895788079470199	-0.558834437086093	-0.420238410596026	-63.8196026490066	-16.0823841059603	-18.394701986755			
82	1640	0.359841059602649	0.194754966887417	-0.855523178807947	25.5133774834437	100.095364238411	16.1750993377483				0.832953642384106	0.0477880794701987	0.765139072847682	10.7939072847682	-11.7321854304636	-13.7459602649007				0.245827814569536	-0.241271523178808	-0.83994701986755	-3.35258278145695	98.1464900662252	-16.7202649006623				1.0405298013245	0.111470198675497	-0.533721854304636	24.0429139072848	22.5835761589404	-7.05562913907285				0.948026490066225	0.339496688741722	0.549933774834437	0.511788079470198	-1.62807947019868	-1.17748344370861				0.927788079470199	-0.606834437086093	-0.468238410596026	-66.6196026490066	-15.2423841059603	-28.754701986755			
83	1660	0.407841059602649	0.258754966887417	-0.871523178807947	28.5933774834437	99.8153642384106	10.5750993377483				0.880953642384106	0.0157880794701987	0.813139072847682	18.6339072847682	-6.69218543046358	-3.38596026490066				0.229827814569536	-0.257271523178808	-0.75994701986755	0.847417218543046	102.346490066225	-13.3602649006623				1.1205298013245	0.0634701986754967	-0.565721854304636	15.0829139072848	11.3835761589404	-11.8156291390728				0.916026490066225	0.355496688741722	0.629933774834437	-3.6882119205298	-1.34807947019868	-2.85748344370861				0.991788079470199	-0.542834437086093	-0.484238410596026	-44.4996026490066	-6.56238410596027	-25.394701986755			
84	1680	0.423841059602649	0.162754966887417	-0.823523178807947	39.2333774834437	100.095364238411	7.77509933774834				0.832953642384106	0.0317880794701987	0.813139072847682	13.5939072847682	-13.6921854304636	-8.42596026490066				0.341827814569536	-0.225271523178808	-0.79194701986755	-9.23258278145695	104.866490066225	-11.4002649006623				1.0725298013245	0.127470198675497	-0.517721854304636	8.36291390728477	0.7435761589404	-13.4956291390728				0.868026490066225	0.355496688741722	0.629933774834437	-0.888211920529802	-3.02807947019868	-2.57748344370861				0.895788079470199	-0.414834437086093	-0.452238410596026	-27.9796026490066	-7.40238410596027	-9.15470198675497			
85	1700	0.423841059602649	0.0667549668874172	-0.887523178807947	46.7933774834437	99.5353642384106	6.37509933774834				0.752953642384106	0.0477880794701987	0.797139072847682	14.9939072847682	-16.4921854304636	-7.58596026490066				0.613827814569536	-0.177271523178808	-0.85594701986755	-12.032582781457	103.746490066225	-11.6802649006622				0.976529801324503	0.143470198675497	-0.485721854304636	7.24291390728477	-11.5764238410596	-10.6956291390728				0.836026490066225	0.355496688741722	0.629933774834437	0.511788079470198	-10.0280794701987	-1.45748344370861				0.879788079470199	-0.318834437086093	-0.340238410596026	-38.6196026490066	-1.52238410596026	2.32529801324503			
86	1720	0.455841059602649	0.0187549668874172	-0.743523178807947	46.2333774834437	102.335364238411	3.01509933774834				0.864953642384106	-0.000211920529801304	0.813139072847682	9.39390728476821	-3.61218543046358	-3.94596026490066				0.485827814569536	-0.161271523178808	-0.75994701986755	-8.11258278145695	105.986490066225	-16.4402649006623				0.896529801324503	0.127470198675497	-0.453721854304636	4.72291390728477	-14.3764238410596	-5.09562913907285				0.868026490066225	0.387496688741722	0.613933774834437	-7.0482119205298	-15.9080794701987	-2.01748344370861				0.879788079470199	-0.366834437086093	-0.324238410596026	-46.7396026490066	1.83761589403974	-13.914701986755			
87	1740	0.471841059602649	0.0187549668874172	-0.695523178807947	33.0733774834437	107.375364238411	2.17509933774834				0.816953642384106	-0.0162119205298013	0.797139072847682	9.11390728476821	-16.7721854304636	-2.54596026490066				0.485827814569536	-0.177271523178808	-0.71194701986755	-3.91258278145695	109.066490066225	-19.2402649006623				0.944529801324503	0.207470198675497	-0.389721854304636	6.68291390728477	-4.8564238410596	-0.0556291390728476				0.868026490066225	0.339496688741722	0.645933774834437	-7.6082119205298	-18.1480794701987	-1.73748344370861				0.927788079470199	-0.334834437086093	-0.404238410596026	-52.0596026490066	18.0776158940397	-38.834701986755			
88	1760	0.567841059602649	0.0347549668874172	-0.647523178807947	26.0733774834437	113.255364238411	2.45509933774835				0.736953642384106	0.0957880794701987	0.749139072847682	11.6339072847682	-22.6521854304636	-5.62596026490066				0.485827814569536	-0.161271523178808	-0.64794701986755	-8.39258278145695	113.266490066225	-17.5602649006623				0.944529801324503	0.207470198675497	-0.309721854304636	15.3629139072848	3.2635761589404	3.58437086092715				0.852026490066225	0.323496688741722	0.645933774834437	-7.3282119205298	-21.5080794701987	3.30251655629139				1.0237880794702	-0.302834437086093	-0.516238410596026	-34.1396026490066	32.6376158940397	-44.434701986755			
89	1780	0.599841059602649	0.0507549668874172	-0.599523178807947	27.4733774834437	119.415364238411	2.17509933774834				0.784953642384106	0.111788079470199	0.669139072847682	17.2339072847682	-26.8521854304636	-7.02596026490066				0.501827814569536	-0.113271523178808	-0.61594701986755	-12.312582781457	116.906490066225	-17.0002649006623				0.976529801324503	0.207470198675497	-0.325721854304636	24.6029139072848	6.6235761589404	9.74437086092715				0.788026490066225	0.339496688741722	0.645933774834437	-0.608211920529802	-31.8680794701987	8.06251655629139				1.0557880794702	-0.350834437086093	-0.500238410596026	-12.0196026490066	18.0776158940397	-35.474701986755			
90	1800	0.663841059602649	0.00275496688741723	-0.599523178807947	33.6333774834437	126.415364238411	3.57509933774835				0.736953642384106	0.127788079470199	0.813139072847682	9.95390728476821	-17.6121854304636	-13.1859602649007				0.565827814569536	-0.0652715231788079	-0.51994701986755	-4.75258278145695	116.066490066225	-14.2002649006623				0.960529801324503	0.223470198675497	-0.357721854304636	33.2829139072848	4.1035761589404	15.6243708609272				0.804026490066225	0.467496688741722	0.597933774834437	-13.4882119205298	-38.8680794701987	10.5825165562914				1.0717880794702	-0.430834437086093	-0.532238410596027	11.2203973509934	-1.52238410596026	-21.194701986755			
91	1820	0.743841059602649	0.0507549668874172	-0.551523178807947	22.4333774834437	130.055364238411	1.89509933774834				0.752953642384106	0.0317880794701987	0.749139072847682	30.3939072847682	-23.7721854304636	-14.5859602649007				0.677827814569536	-0.0812715231788079	-0.48794701986755	2.80741721854305	121.946490066225	-12.5202649006623				0.864529801324503	0.335470198675497	-0.357721854304636	39.4429139072848	3.2635761589404	15.6243708609272				0.772026490066225	0.371496688741722	0.581933774834437	2.4717880794702	-38.5880794701987	17.0225165562914				1.0237880794702	-0.542834437086093	-0.468238410596026	16.2603973509934	-16.0823841059603	1.20529801324503			
92	1840	0.759841059602649	0.0667549668874172	-0.551523178807947	27.1933774834437	130.895364238411	-5.94490066225166				0.656953642384106	0.0157880794701987	0.749139072847682	36.2739072847682	-36.3721854304636	-12.0659602649007				0.613827814569536	-0.145271523178808	-0.51994701986755	14.567417218543	123.906490066225	-12.8002649006623				0.800529801324503	0.287470198675497	-0.261721854304636	27.6829139072848	-5.1364238410596	18.7043708609272				0.708026490066225	0.371496688741722	0.661933774834437	-14.6082119205298	-38.8680794701987	19.5425165562914				0.911788079470199	-0.510834437086093	-0.404238410596026	-6.41960264900662	-46.8823841059603	26.685298013245			
93	1860	0.823841059602649	0.0507549668874172	-0.567523178807947	24.3933774834437	130.335364238411	-11.8249006622517				0.576953642384106	-0.0642119205298013	0.749139072847682	30.9539072847682	-51.2121854304636	-1.98596026490066				0.885827814569536	-0.161271523178808	-0.35994701986755	16.247417218543	132.306490066225	-16.1602649006623				0.800529801324503	0.207470198675497	-0.261721854304636	47.8429139072848	-2.3364238410596	17.0243708609272				0.628026490066225	0.275496688741722	0.533933774834437	-0.608211920529802	-45.8680794701987	21.2225165562914				0.719788079470199	-0.302834437086093	-0.340238410596026	33.3403973509934	-65.6423841059603	42.365298013245			
94	1880	0.871841059602649	0.0987549668874172	-0.407523178807947	15.9933774834437	134.815364238411	-15.4649006622517				0.544953642384106	0.0317880794701987	0.765139072847682	14.1539072847682	-44.4921854304636	-3.94596026490066				0.821827814569536	-0.225271523178808	-0.37594701986755	15.407417218543	126.706490066225	-19.2402649006623				0.800529801324503	0.191470198675497	-0.245721854304636	50.9229139072848	-5.9764238410596	11.4243708609272				0.660026490066225	0.339496688741722	0.533933774834437	-14.3282119205298	-52.5880794701987	27.9425165562914				0.703788079470199	-0.158834437086093	-0.292238410596026	22.4203973509934	-41.8423841059603	39.285298013245			
95	1900	0.823841059602649	0.0827549668874172	-0.263523178807947	25.5133774834437	145.455364238411	-17.7049006622517				0.592953642384106	0.0157880794701987	0.701139072847682	7.99390728476821	-43.0921854304636	1.37403973509934				0.805827814569536	-0.209271523178808	-0.35994701986755	20.1674172185431	130.906490066225	-18.6802649006623				0.784529801324503	0.191470198675497	-0.245721854304636	28.2429139072848	-20.2564238410596	6.10437086092715				0.676026490066225	0.323496688741722	0.437933774834437	-7.8882119205298	-55.9480794701987	29.9025165562914				0.639788079470199	-0.174834437086093	-0.404238410596026	34.1803973509934	-13.8423841059603	52.165298013245			
96	1920	0.855841059602649	-0.0612450331125828	-0.263523178807947	41.1933774834437	147.695364238411	-24.4249006622517				0.576953642384106	0.0797880794701987	0.557139072847682	19.7539072847682	-64.3721854304636	2.77403973509934				0.821827814569536	-0.209271523178808	-0.32794701986755	20.727417218543	127.266490066225	-17.8402649006623				0.768529801324503	0.143470198675497	-0.213721854304636	15.6429139072848	-26.9764238410596	5.54437086092715				0.612026490066225	0.243496688741722	0.453933774834437	1.0717880794702	-57.0680794701987	33.2625165562914				0.623788079470199	-0.478834437086093	-0.0842384105960265	-31.3396026490066	9.95761589403974	10.725298013245			
97	1940	0.903841059602649	-0.125245033112583	-0.279523178807947	35.5933774834437	150.215364238411	-28.0649006622517				0.544953642384106	0.0637880794701987	0.557139072847682	32.3539072847682	-76.1321854304636	9.21403973509934				0.869827814569536	-0.225271523178808	-0.26394701986755	17.927417218543	123.066490066225	-17.2802649006623				0	0	0	0	0	0				0.612026490066225	0.227496688741722	0.357933774834437	8.9117880794702	-50.3480794701987	32.4225165562914				0.735788079470199	-0.286834437086093	-0.484238410596026	-32.7396026490066	-42.9623841059603	2.04529801324503			
98	1960	0	0	0	0	0	0				0	0	0	0	0	0				0	0	0	0	0	0				0.640529801324503	0.0634701986754967	-0.229721854304636	42.5229139072848	-15.4964238410596	18.7043708609272				0.548026490066225	0.227496688741722	0.389933774834437	9.7517880794702	-51.1880794701987	31.8625165562914				0.511788079470199	-0.350834437086093	-0.180238410596026	63.0203973509934	-58.9223841059603	5.12529801324503			
99	1980	0.727841059602649	0.00275496688741723	-0.295523178807947	28.5933774834437	151.895364238411	-18.5449006622517				0.464953642384106	-0.0322119205298013	0.509139072847682	23.6739072847682	-68.8521854304636	18.4540397350993				1.06182781456954	-0.177271523178808	-0.21594701986755	15.687417218543	115.786490066225	-16.1602649006623				0.528529801324503	0.0314701986754967	-0.309721854304636	39.1629139072848	-25.5764238410596	20.9443708609272				0.468026490066225	0.195496688741722	0.357933774834437	6.1117880794702	-59.0280794701987	30.7425165562914				0.463788079470199	-0.270834437086093	-0.228238410596026	-15.3796026490066	-47.7223841059603	12.965298013245			
100	2000	0.695841059602649	0.0187549668874172	-0.247523178807947	35.3133774834437	152.735364238411	-15.1849006622517				0.448953642384106	-0.000211920529801304	0.477139072847682	-4.60609271523179	-73.0521854304636	16.4940397350993				0.757827814569536	-0.257271523178808	-0.16794701986755	14.007417218543	107.386490066225	-17.8402649006623				0.464529801324503	0.0474701986754967	-0.357721854304636	29.6429139072848	-32.2964238410596	24.3043708609272				0.468026490066225	0.147496688741722	0.341933774834437	12.5517880794702	-56.7880794701987	31.0225165562914				0.447788079470199	-0.302834437086093	-0.180238410596026	8.70039735099338	-49.1223841059603	21.925298013245			
101	2020	0.679841059602649	-0.0132450331125828	-0.071523178807947	59.6733774834437	144.335364238411	-14.9049006622517				0.448953642384106	0.0797880794701987	0.525139072847682	-11.0460927152318	-68.5721854304636	17.0540397350993				0.741827814569536	-0.257271523178808	-0.15194701986755	-10.072582781457	103.186490066225	-13.3602649006623				0.480529801324503	0.0314701986754967	-0.277721854304636	20.4029139072848	-35.6564238410596	27.9443708609272				0.500026490066225	0.0834966887417219	0.325933774834437	6.1117880794702	-49.7880794701987	30.7425165562914				0.495788079470199	-0.302834437086093	-0.148238410596026	3.66039735099338	-53.6023841059603	19.685298013245			
102	2040	0.743841059602649	0.00275496688741723	-0.103523178807947	40.0733774834437	158.895364238411	-12.3849006622517				0.464953642384106	-0.0322119205298013	0.477139072847682	-0.126092715231788	-68.8521854304636	26.5740397350993				0.741827814569536	-0.225271523178808	-0.16794701986755	-14.552582781457	99.2664900662252	-7.20026490066225				0.480529801324503	-0.000529801324503289	-0.245721854304636	18.1629139072848	-38.1764238410596	29.6243708609272				0.500026490066225	0.163496688741722	0.293933774834437	-6.7682119205298	-53.1480794701987	29.9025165562914				0.527788079470199	-0.302834437086093	-0.164238410596026	-33.2996026490066	-42.9623841059603	18.285298013245			
103	2060	0.823841059602649	0.0187549668874172	-0.039523178807947	14.0333774834437	147.415364238411	-3.98490066225166				0.464953642384106	-0.0162119205298013	0.397139072847682	-3.76609271523179	-61.8521854304636	25.4540397350993				0.821827814569536	-0.241271523178808	-0.0719470198675496	-19.312582781457	84.9864900662252	-8.04026490066225				0.496529801324503	-0.0805298013245033	-0.341721854304636	14.8029139072848	-42.3764238410596	32.4243708609272				0.500026490066225	0.115496688741722	0.213933774834437	-0.328211920529802	-55.1080794701987	32.4225165562914				0.495788079470199	-0.238834437086093	-0.228238410596026	-38.6196026490066	-41.8423841059603	22.205298013245			
104	2080	0.839841059602649	0.0347549668874172	-0.039523178807947	21.5933774834437	114.935364238411	-3.70490066225166				0.384953642384106	0.111788079470199	0.413139072847682	-16.0860927152318	-57.0921854304636	16.7740397350993				0.789827814569536	-0.225271523178808	-0.0719470198675496	-20.992582781457	69.3064900662252	-9.44026490066225				0.464529801324503	-0.0965298013245033	-0.341721854304636	5.00291390728477	-42.0964238410596	31.8643708609272				0.500026490066225	0.0674966887417219	0.197933774834437	0.791788079470198	-46.1480794701987	30.1825165562914				0.415788079470199	-0.238834437086093	-0.196238410596026	-24.8996026490066	-39.0423841059603	21.085298013245			
105	2100	0.887841059602649	0.194754966887417	-0.119523178807947	18.2333774834437	88.8953642384106	-7.06490066225166				0.480953642384106	0.0957880794701987	0.493139072847682	-26.1660927152318	-38.8921854304636	14.2540397350993				0.821827814569536	-0.177271523178808	-0.0559470198675496	-31.912582781457	52.7864900662252	-4.40026490066225				0.432529801324503	-0.0165298013245033	-0.341721854304636	-15.4370860927152	-42.3764238410596	30.1843708609272				0.516026490066225	0.0994966887417219	0.245933774834437	-9.8482119205298	-46.1480794701987	25.9825165562914				0.367788079470199	-0.206834437086093	-0.212238410596026	-16.4996026490066	-29.5223841059603	4.28529801324503			
106	2120	1.01584105960265	0.210754966887417	-0.295523178807947	9.83337748344371	63.6953642384106	-9.86490066225166				0.528953642384106	0.127788079470199	0.525139072847682	-20.5660927152318	-31.0521854304636	12.2940397350993				0.885827814569536	-0.113271523178808	-0.0879470198675496	-22.112582781457	33.4664900662252	0.35973509933775				0.432529801324503	-0.000529801324503289	-0.373721854304636	-12.9170860927152	-40.6964238410596	30.1843708609272				0.548026490066225	0.147496688741722	0.261933774834437	-16.0082119205298	-45.8680794701987	25.7025165562914				0.383788079470199	-0.158834437086093	-0.212238410596026	-8.37960264900662	-35.1223841059603	-6.63470198675497			
107	2140	1.20784105960265	0.0827549668874172	-0.375523178807947	-3.04662251655629	37.9353642384106	-2.58490066225166				0.560953642384106	-0.0162119205298013	0.509139072847682	-17.7660927152318	-25.7321854304636	18.4540397350993				0.997827814569536	-0.0972715231788079	-0.0719470198675496	-7.83258278145695	15.8264900662252	2.03973509933775				0.480529801324503	-0.0485298013245033	-0.437721854304636	6.96291390728477	-29.7764238410596	23.4643708609272				0.612026490066225	0.147496688741722	0.149933774834437	-14.3282119205298	-34.1080794701987	21.2225165562914				0.399788079470199	-0.158834437086093	-0.372238410596026	-17.6196026490066	-10.7623841059603	-6.35470198675497			
108	2160	1.22384105960265	0.00275496688741723	-0.423523178807947	-14.8066225165563	4.8953642384106	2.17509933774834				0.720953642384106	0.127788079470199	0.573139072847682	-21.9660927152318	-10.0521854304636	6.97403973509934				1.06182781456954	-0.0812715231788079	-0.0239470198675496	0.847417218543046	-7.69350993377483	1.19973509933775				0.592529801324503	-0.0805298013245033	-0.501721854304636	14.8029139072848	-13.8164238410596	17.3043708609272				0.724026490066225	0.115496688741722	0.197933774834437	-9.5682119205298	-19.5480794701987	17.3025165562914				0.447788079470199	-0.254834437086093	-0.500238410596026	10.3803973509934	11.3576158940397	-1.87470198675497			
109	2180	1.01584105960265	0.0347549668874172	-0.215523178807947	-16.2066225165563	-18.0646357615894	4.41509933774834				0.864953642384106	0.143788079470199	0.605139072847682	-11.6060927152318	-2.77218543046358	6.69403973509934				1.04582781456954	-0.0492715231788079	-0.0559470198675496	17.3674172185431	-20.2935099337748	0.63973509933775				0.704529801324503	-0.144529801324503	-0.485721854304636	9.48291390728477	-5.9764238410596	18.4243708609272				0.788026490066225	0.131496688741722	0.277933774834437	-10.6882119205298	-14.7880794701987	16.4625165562914				0.559788079470199	-0.318834437086093	-0.516238410596026	19.6203973509934	7.99761589403974	-1.87470198675497			
110	2200	0.903841059602649	-0.0292450331125828	0.056476821192053	1.99337748344371	-17.2246357615894	5.25509933774834				0.944953642384106	0.0317880794701987	0.605139072847682	-7.40609271523179	-7.53218543046358	11.1740397350993				0.965827814569536	-0.0812715231788079	-0.10394701986755	21.567417218543	-21.1335099337748	-1.32026490066225				0.752529801324503	-0.192529801324503	-0.645721854304636	4.72291390728477	-5.4164238410596	12.8243708609272				0.884026490066225	0.147496688741722	0.213933774834437	-15.7282119205298	-2.74807947019868	12.2625165562914				0.655788079470199	-0.318834437086093	-0.628238410596026	-6.41960264900662	19.4776158940397	4.56529801324503			
111	2220	0.919841059602649	-0.0612450331125828	0.280476821192053	8.71337748344371	-6.3046357615894	2.45509933774835				0.960953642384106	-0.112211920529801	0.509139072847682	-8.52609271523179	-20.1321854304636	12.0140397350993				0.965827814569536	-0.145271523178808	-0.15194701986755	12.607417218543	-14.4135099337748	2.03973509933775				0.864529801324503	-0.176529801324503	-0.661721854304636	10.6029139072848	14.4635761589404	11.4243708609272				1.01202649006623	0.0834966887417219	0.197933774834437	-12.6482119205298	10.9719205298013	8.62251655629139				0.703788079470199	-0.350834437086093	-0.692238410596026	-1.09960264900662	26.7576158940397	9.04529801324503			
112	2240	0.935841059602649	-0.0452450331125828	0.360476821192053	-0.806622516556291	-5.1846357615894	3.85509933774834				0.928953642384106	-0.0322119205298013	0.413139072847682	-20.0060927152318	-22.6521854304636	4.73403973509934				0.917827814569536	-0.225271523178808	-0.18394701986755	-4.75258278145695	-7.13350993377484	1.75973509933775				0.864529801324503	-0.192529801324503	-0.629721854304636	16.2029139072848	16.4235761589404	11.7043708609272				1.04402649006623	0.00349668874172187	0.213933774834437	-9.5682119205298	3.97192052980133	9.18251655629139				0.719788079470199	-0.398834437086093	-0.644238410596026	6.74039735099338	19.4776158940397	2.60529801324503			
113	2260	0.999841059602649	0.0667549668874172	0.120476821192053	-10.6066225165563	3.4953642384106	2.45509933774835				0.896953642384106	-0.000211920529801304	0.365139072847682	-22.2460927152318	-15.9321854304636	3.61403973509934				0.885827814569536	-0.193271523178808	-0.15194701986755	-13.992582781457	-0.693509933774834	0.63973509933775				0.832529801324503	-0.192529801324503	-0.629721854304636	-6.47708609271523	10.8235761589404	10.5843708609272				0.980026490066225	0.0514966887417219	0.229933774834437	-15.7282119205298	-2.74807947019868	10.0225165562914				0.735788079470199	-0.366834437086093	-0.628238410596026	-0.539602649006623	10.7976158940397	-8.03470198675497			
114	2280	0.983841059602649	0.130754966887417	-0.039523178807947	-25.7266225165563	6.0153642384106	0.495099337748344				0.928953642384106	-0.000211920529801304	0.381139072847682	-22.2460927152318	-7.81218543046358	8.65403973509934				0.917827814569536	-0.177271523178808	-0.10394701986755	-9.51258278145695	2.10649006622517	-1.04026490066225				0.800529801324503	-0.128529801324503	-0.597721854304636	-21.5970860927152	-1.2164238410596	10.0243708609272				0.980026490066225	0.0994966887417219	0.165933774834437	-21.8882119205298	-9.46807947019868	10.5825165562914				0.719788079470199	-0.350834437086093	-0.692238410596026	3.66039735099338	3.51761589403974	-11.114701986755			
115	2300	0.967841059602649	0.0987549668874172	-0.071523178807947	-19.5666225165563	3.2153642384106	0.215099337748344				0.880953642384106	0.0317880794701987	0.397139072847682	-13.8460927152318	-10.6121854304636	8.37403973509934				0.901827814569536	-0.177271523178808	-0.10394701986755	-1.67258278145695	-1.81350993377483	-1.04026490066225				0.768529801324503	-0.144529801324503	-0.549721854304636	-11.5170860927152	-4.8564238410596	13.6643708609272				0.932026490066225	0.0994966887417219	0.165933774834437	-17.4082119205298	-6.38807947019868	11.1425165562914				0.639788079470199	-0.366834437086093	-0.724238410596026	6.18039735099338	-2.08238410596027	-0.474701986754968			
116	2320	0.983841059602649	0.0507549668874172	-0.119523178807947	-3.32662251655629	0.975364238410596	-0.624900662251656				0.880953642384106	0.0317880794701987	0.381139072847682	-12.1660927152318	-1.37218543046358	7.25403973509934				0.933827814569536	-0.161271523178808	-0.13594701986755	3.36741721854305	-6.29350993377483	-0.48026490066225				0.704529801324503	-0.192529801324503	-0.533721854304636	-11.2370860927152	-6.5364238410596	15.9043708609272				0.868026490066225	0.0834966887417219	0.197933774834437	-12.9282119205298	-0.788079470198675	12.2625165562914				0.591788079470199	-0.446834437086093	-0.708238410596026	3.94039735099338	-10.7623841059603	12.405298013245			
117	2340	1.01584105960265	0.00275496688741723	-0.183523178807947	8.15337748344371	-2.1046357615894	-1.18490066225166				0.896953642384106	0.0477880794701987	0.445139072847682	-7.40609271523179	1.70781456953642	6.41403973509934				0.949827814569536	-0.129271523178808	-0.13594701986755	4.48741721854305	-3.49350993377483	-0.20026490066225				0.704529801324503	-0.176529801324503	-0.517721854304636	-22.9970860927152	-3.1764238410596	15.3443708609272				0.868026490066225	0.0354966887417219	0.213933774834437	-11.5282119205298	6.77192052980133	11.7025165562914				0.575788079470199	-0.446834437086093	-0.660238410596027	-7.25960264900662	-16.0823841059603	23.045298013245			
118	2360	1.03184105960265	-0.0132450331125828	-0.199523178807947	8.15337748344371	-11.6246357615894	0.495099337748344				0.928953642384106	-0.0482119205298013	0.445139072847682	-3.48609271523179	0.867814569536424	8.09403973509934				0.933827814569536	-0.113271523178808	-0.18394701986755	0.00741721854304636	0.986490066225167	-0.20026490066225				0.752529801324503	-0.128529801324503	-0.501721854304636	-18.2370860927152	6.3435761589404	14.7843708609272				0.932026490066225	0.0354966887417219	0.229933774834437	-8.4482119205298	10.4119205298013	11.4225165562914				0.559788079470199	-0.382834437086093	-0.628238410596026	-12.5796026490066	-14.1223841059603	26.685298013245			
119	2380	0.999841059602649	-0.0132450331125828	-0.103523178807947	-0.806622516556291	-19.1846357615894	4.13509933774834				0.928953642384106	-0.0642119205298013	0.381139072847682	-4.88609271523179	-3.61218543046358	5.29403973509934				0.885827814569536	-0.145271523178808	-0.18394701986755	-1.39258278145695	3.50649006622517	-1.60026490066225				0.768529801324503	-0.128529801324503	-0.501721854304636	5.28291390728477	16.7035761589404	16.1843708609272				0.932026490066225	0.0194966887417219	0.181933774834437	-6.7682119205298	9.57192052980133	10.0225165562914				0.559788079470199	-0.318834437086093	-0.580238410596026	-10.6196026490066	-9.92238410596027	23.885298013245			
120	2400	0.871841059602649	0.0347549668874172	-0.039523178807947	-7.52662251655629	-14.4246357615894	3.85509933774834				0.912953642384106	-0.0322119205298013	0.349139072847682	-10.7660927152318	-7.25218543046358	4.17403973509934				0.901827814569536	-0.161271523178808	-0.16794701986755	-1.67258278145695	6.02649006622517	-3.56026490066225				0.800529801324503	-0.160529801324503	-0.501721854304636	20.4029139072848	24.8235761589404	14.7843708609272				0.948026490066225	-0.0125033112582781	0.229933774834437	-2.0082119205298	10.1319205298013	7.50251655629139				0.543788079470199	-0.350834437086093	-0.564238410596026	4.78039735099338	-9.08238410596027	20.245298013245			
121	2420	0.903841059602649	0.00275496688741723	0.040476821192053	-9.20662251655629	-3.5046357615894	0.215099337748344				0.928953642384106	-0.0162119205298013	0.365139072847682	-10.2060927152318	-3.33218543046358	4.17403973509934				0.933827814569536	-0.145271523178808	-0.15194701986755	6.44741721854305	6.30649006622517	-5.80026490066225				0.816529801324503	-0.160529801324503	-0.549721854304636	16.4829139072848	23.9835761589404	11.4243708609272				0.948026490066225	0.00349668874172187	0.245933774834437	-5.9282119205298	3.97192052980133	6.94251655629139				0.591788079470199	-0.398834437086093	-0.564238410596026	11.5003973509934	-6.56238410596027	13.245298013245			
122	2440	0.983841059602649	0.0187549668874172	-0.00752317880794696	-10.8866225165563	3.4953642384106	-2.30490066225166				0.976953642384106	-0.0642119205298013	0.365139072847682	-7.96609271523179	-4.17218543046358	3.61403973509934				0.949827814569536	-0.161271523178808	-0.18394701986755	7.28741721854305	5.74649006622517	-4.96026490066225				0.848529801324503	-0.176529801324503	-0.565721854304636	8.08291390728477	15.0235761589404	8.06437086092715				0.964026490066225	0.0194966887417219	0.213933774834437	-5.0882119205298	2.85192052980133	7.22251655629139				0.623788079470199	-0.430834437086093	-0.580238410596026	8.14039735099338	1.27761589403974	6.80529801324503			
123	2460	0.999841059602649	0.0667549668874172	-0.055523178807947	-8.64662251655629	2.0953642384106	-2.02490066225166				0.960953642384106	-0.0322119205298013	0.365139072847682	-5.72609271523179	-7.25218543046358	2.49403973509934				0.933827814569536	-0.193271523178808	-0.19994701986755	0.00741721854304636	6.30649006622517	-3.84026490066225				0.864529801324503	-0.176529801324503	-0.565721854304636	5.84291390728477	9.7035761589404	4.70437086092715				0.980026490066225	0.0194966887417219	0.245933774834437	-7.3282119205298	0.891920529801325	7.22251655629139				0.591788079470199	-0.446834437086093	-0.580238410596026	7.02039735099338	4.91761589403974	4.84529801324503			
124	2480	0.967841059602649	0.0667549668874172	-0.087523178807947	-7.52662251655629	-0.984635761589404	-0.624900662251656				0.912953642384106	0.0157880794701987	0.397139072847682	-5.72609271523179	-6.41218543046358	-0.30596026490066				0.901827814569536	-0.177271523178808	-0.18394701986755	-8.67258278145695	9.10649006622517	-2.16026490066225				0.864529801324503	-0.208529801324503	-0.549721854304636	2.48291390728477	6.0635761589404	1.90437086092715				0.964026490066225	0.0194966887417219	0.213933774834437	-3.1282119205298	0.611920529801325	5.26251655629139				0.607788079470199	-0.446834437086093	-0.596238410596026	1.70039735099338	6.87761589403974	6.24529801324503			
125	2500	0.967841059602649	0.0347549668874172	-0.087523178807947	-5.56662251655629	-2.3846357615894	-0.344900662251656				0.912953642384106	-0.000211920529801304	0.381139072847682	-2.92609271523179	-0.812185430463576	0.25403973509934				0.933827814569536	-0.145271523178808	-0.18394701986755	-10.352582781457	7.98649006622517	-3.28026490066225				0.832529801324503	-0.192529801324503	-0.549721854304636	-3.95708609271523	4.3835761589404	2.18437086092715				0.932026490066225	0.0354966887417219	0.245933774834437	-3.9682119205298	-1.06807947019868	3.02251655629139				0.623788079470199	-0.430834437086093	-0.628238410596026	0.300397350993377	5.19761589403974	4.84529801324503			
126	2520	0.951841059602649	0.0347549668874172	-0.071523178807947	-2.48662251655629	-0.424635761589404	-1.74490066225166				0.912953642384106	-0.0162119205298013	0.397139072847682	2.67390728476821	0.867814569536424	1.93403973509934				0.965827814569536	-0.129271523178808	-0.18394701986755	-4.75258278145695	7.42649006622517	-3.56026490066225				0.816529801324503	-0.160529801324503	-0.517721854304636	-5.91708609271523	2.7035761589404	1.06437086092715				0.916026490066225	0.0354966887417219	0.245933774834437	-4.8082119205298	-2.74807947019868	2.74251655629139				0.607788079470199	-0.382834437086093	-0.628238410596026	0.860397350993377	2.95761589403974	4.00529801324503			
127	2540	0.983841059602649	0.0347549668874172	-0.087523178807947	0.0333774834437086	-0.424635761589404	-2.58490066225166				0.928953642384106	-0.0322119205298013	0.413139072847682	3.51390728476821	0.307814569536424	2.49403973509934				0.965827814569536	-0.129271523178808	-0.19994701986755	1.96741721854305	4.62649006622517	-4.12026490066225				0.816529801324503	-0.144529801324503	-0.517721854304636	0.522913907284768	3.8235761589404	1.34437086092715				0.932026490066225	0.0354966887417219	0.277933774834437	-1.4482119205298	2.01192052980133	0.502516556291392				0.591788079470199	-0.398834437086093	-0.596238410596026	3.94039735099338	2.39761589403974	2.88529801324503			
128	2560	0.983841059602649	0.0187549668874172	-0.103523178807947	-0.246622516556291	-4.3446357615894	-0.904900662251656				0.912953642384106	-0.0162119205298013	0.429139072847682	-0.406092715231788	2.82781456953642	-0.30596026490066				0.949827814569536	-0.145271523178808	-0.19994701986755	6.16741721854305	2.94649006622517	-4.96026490066225				0.832529801324503	-0.160529801324503	-0.517721854304636	5.00291390728477	4.9435761589404	1.06437086092715				0.948026490066225	0.0514966887417219	0.245933774834437	-0.608211920529802	2.85192052980133	-0.337483443708608				0.607788079470199	-0.430834437086093	-0.596238410596026	5.06039735099338	0.997615894039735	1.20529801324503			
129	2580	0.983841059602649	0.00275496688741723	-0.103523178807947	-3.04662251655629	-7.7046357615894	0.775099337748344				0.928953642384106	-0.0322119205298013	0.461139072847682	-4.04609271523179	-3.89218543046358	-0.86596026490066				0.965827814569536	-0.145271523178808	-0.19994701986755	7.00741721854305	0.426490066225167	-4.40026490066225				0.832529801324503	-0.176529801324503	-0.517721854304636	3.60291390728477	4.9435761589404	0.784370860927152				0.964026490066225	0.0194966887417219	0.229933774834437	2.1917880794702	0.611920529801325	-0.0574834437086077				0.623788079470199	-0.430834437086093	-0.596238410596026	-1.37960264900662	-1.80238410596026	0.645298013245032			
130	2600	0.935841059602649	0.00275496688741723	-0.039523178807947	-1.64662251655629	-5.4646357615894	-0.904900662251656				0.960953642384106	-0.0642119205298013	0.397139072847682	-5.72609271523179	-3.61218543046358	-1.14596026490066				0.981827814569536	-0.161271523178808	-0.18394701986755	7.00741721854305	1.54649006622517	-3.28026490066225				0.832529801324503	-0.176529801324503	-0.533721854304636	0.802913907284768	-0.0964238410596001	0.784370860927152				0.964026490066225	0.0194966887417219	0.245933774834437	-0.328211920529802	-1.06807947019868	-2.01748344370861				0.639788079470199	-0.414834437086093	-0.612238410596026	-3.61960264900662	-1.80238410596026	-3.55470198675497			
131	2620	0.935841059602649	0.0507549668874172	-0.00752317880794696	0.0333774834437086	1.8153642384106	-1.74490066225166				0.960953642384106	-0.0482119205298013	0.381139072847682	-6.56609271523179	-2.77218543046358	-2.82596026490066				0.981827814569536	-0.177271523178808	-0.16794701986755	2.24741721854305	-0.413509933774833	-3.28026490066225				0.816529801324503	-0.160529801324503	-0.549721854304636	-0.0370860927152318	-3.1764238410596	0.224370860927152				0.964026490066225	0.0194966887417219	0.245933774834437	0.511788079470198	-3.02807947019868	-1.17748344370861				0.639788079470199	-0.398834437086093	-0.612238410596026	0.580397350993377	-2.08238410596027	-8.31470198675497			
132	2640	0.983841059602649	0.0347549668874172	-0.039523178807947	-1.08662251655629	6.5753642384106	-2.86490066225166				0.928953642384106	-0.0322119205298013	0.413139072847682	-6.00609271523179	-1.37218543046358	-1.98596026490066				0.949827814569536	-0.177271523178808	-0.16794701986755	-2.23258278145695	-4.05350993377483	-3.00026490066225				0.816529801324503	-0.160529801324503	-0.565721854304636	0.242913907284768	-4.8564238410596	1.06437086092715				0.948026490066225	0.0354966887417219	0.245933774834437	0.511788079470198	-1.62807947019868	-1.45748344370861				0.623788079470199	-0.414834437086093	-0.596238410596026	4.78039735099338	0.157615894039735	-13.074701986755			
133	2660	0.999841059602649	0.0507549668874172	-0.103523178807947	-5.00662251655629	3.4953642384106	-3.70490066225166				0.944953642384106	-0.0322119205298013	0.429139072847682	-2.36609271523179	-4.73218543046358	-2.26596026490066				0.949827814569536	-0.145271523178808	-0.16794701986755	-3.91258278145695	-4.33350993377483	-3.28026490066225				0.800529801324503	-0.176529801324503	-0.565721854304636	-0.877086092715232	-6.5364238410596	0.784370860927152				0.948026490066225	0.0354966887417219	0.229933774834437	1.0717880794702	-1.90807947019868	-2.85748344370861				0.639788079470199	-0.446834437086093	-0.580238410596026	5.62039735099338	1.55761589403974	-13.354701986755			
134	2680	0.999841059602649	0.0347549668874172	-0.135523178807947	-5.84662251655629	-2.1046357615894	-2.58490066225166				0.928953642384106	-0.0162119205298013	0.413139072847682	-0.966092715231788	-7.25218543046358	-2.54596026490066				0.949827814569536	-0.129271523178808	-0.16794701986755	-5.31258278145695	-4.05350993377483	-1.88026490066225				0.800529801324503	-0.192529801324503	-0.549721854304636	-4.79708609271523	-7.9364238410596	1.34437086092715				0.948026490066225	0.0354966887417219	0.213933774834437	0.511788079470198	-2.46807947019868	-3.69748344370861				0.623788079470199	-0.446834437086093	-0.580238410596026	-0.819602649006623	2.39761589403974	-9.71470198675497			
135	2700	0.951841059602649	0.0187549668874172	-0.119523178807947	-5.56662251655629	-5.1846357615894	-0.344900662251656				0.928953642384106	-0.000211920529801304	0.365139072847682	-4.04609271523179	-4.45218543046358	-4.78596026490066				0.949827814569536	-0.113271523178808	-0.15194701986755	-1.67258278145695	-3.21350993377483	-1.88026490066225				0.768529801324503	-0.176529801324503	-0.565721854304636	-8.71708609271523	-9.6164238410596	1.90437086092715				0.948026490066225	0.0194966887417219	0.229933774834437	-1.1682119205298	-4.14807947019868	-3.97748344370861				0.623788079470199	-0.446834437086093	-0.580238410596026	-6.41960264900662	2.11761589403974	-4.67470198675497			
136	2720	0.935841059602649	0.0347549668874172	-0.039523178807947	-4.44662251655629	-0.704635761589404	-0.904900662251656				0.912953642384106	-0.0162119205298013	0.365139072847682	-5.16609271523179	1.70781456953642	-5.62596026490066				0.933827814569536	-0.0972715231788079	-0.15194701986755	-3.63258278145695	-2.93350993377483	-2.44026490066225				0.768529801324503	-0.160529801324503	-0.565721854304636	-8.15708609271523	-10.1764238410596	2.74437086092715				0.932026490066225	0.0354966887417219	0.245933774834437	-2.8482119205298	-4.14807947019868	-3.41748344370861				0.639788079470199	-0.414834437086093	-0.580238410596026	-10.8996026490066	2.95761589403974	-4.39470198675497			
137	2740	0.967841059602649	0.0347549668874172	-0.039523178807947	-2.20662251655629	4.8953642384106	-1.46490066225166				0.928953642384106	-0.0162119205298013	0.397139072847682	-1.52609271523179	3.94781456953642	-5.34596026490066				0.933827814569536	-0.0812715231788079	-0.15194701986755	-3.07258278145695	-0.973509933774833	-3.56026490066225				0.752529801324503	-0.144529801324503	-0.565721854304636	-8.99708609271523	-11.2964238410596	1.90437086092715				0.932026490066225	0.0514966887417219	0.245933774834437	-3.4082119205298	-4.14807947019868	-3.97748344370861				0.655788079470199	-0.382834437086093	-0.580238410596026	-11.4596026490066	6.31761589403974	-5.79470198675497			
138	2760	0.983841059602649	0.0667549668874172	-0.055523178807947	-2.48662251655629	4.0553642384106	-2.58490066225166				0.928953642384106	-0.0162119205298013	0.413139072847682	1.83390728476821	1.42781456953642	-4.78596026490066				0.949827814569536	-0.0972715231788079	-0.16794701986755	-2.23258278145695	-0.133509933774833	-3.84026490066225				0.784529801324503	-0.128529801324503	-0.565721854304636	-7.59708609271523	-11.5764238410596	1.62437086092715				0.948026490066225	0.0674966887417219	0.245933774834437	-4.5282119205298	-3.30807947019868	-4.53748344370861				0.671788079470199	-0.366834437086093	-0.596238410596026	-6.97960264900662	4.91761589403974	-9.43470198675497			
139	2780	0.983841059602649	0.0667549668874172	-0.087523178807947	-3.32662251655629	-0.144635761589404	-3.14490066225166				0.944953642384106	-0.000211920529801304	0.429139072847682	0.993907284768212	0.587814569536424	-5.34596026490066				0.949827814569536	-0.113271523178808	-0.16794701986755	1.96741721854305	0.146490066225167	-4.12026490066225				0.784529801324503	-0.128529801324503	-0.565721854304636	-7.87708609271523	-11.0164238410596	1.06437086092715				0.948026490066225	0.0514966887417219	0.229933774834437	-6.2082119205298	-3.58807947019868	-4.53748344370861				0.671788079470199	-0.366834437086093	-0.612238410596026	-3.89960264900662	2.67761589403974	-12.514701986755			
140	2800	0.967841059602649	0.0507549668874172	-0.087523178807947	-4.44662251655629	-2.9446357615894	-2.30490066225166				0.928953642384106	-0.0162119205298013	0.413139072847682	-0.686092715231788	-1.37218543046358	-5.62596026490066				0.949827814569536	-0.129271523178808	-0.16794701986755	1.96741721854305	-0.413509933774833	-4.12026490066225				0.800529801324503	-0.112529801324503	-0.565721854304636	-7.59708609271523	-12.9764238410596	-0.335629139072848				0.948026490066225	0.0674966887417219	0.229933774834437	-3.6882119205298	-4.70807947019868	-4.25748344370861				0.671788079470199	-0.366834437086093	-0.628238410596026	-4.17960264900662	-0.682384105960265	-13.634701986755			
141	2820	0.951841059602649	0.0347549668874172	-0.055523178807947	-4.16662251655629	-1.5446357615894	-1.18490066225166				0.912953642384106	0.0157880794701987	0.429139072847682	-3.76609271523179	2.26781456953642	-6.46596026490066				0.981827814569536	-0.145271523178808	-0.15194701986755	0.287417218543046	-1.25350993377483	-4.12026490066225				0.816529801324503	-0.0965298013245033	-0.581721854304636	-6.19708609271523	-15.4964238410596	-0.0556291390728476				0.932026490066225	0.0994966887417219	0.245933774834437	-2.0082119205298	-1.62807947019868	-3.97748344370861				0.671788079470199	-0.366834437086093	-0.628238410596026	-3.33960264900662	-1.52238410596026	-13.634701986755			
142	2840	0.967841059602649	0.0347549668874172	-0.023523178807947	-2.20662251655629	2.9353642384106	-1.46490066225166				0.928953642384106	0.0317880794701987	0.445139072847682	-0.686092715231788	4.78781456953642	-4.78596026490066				0.997827814569536	-0.129271523178808	-0.16794701986755	1.96741721854305	-2.37350993377483	-4.12026490066225				0.800529801324503	-0.128529801324503	-0.549721854304636	-8.43708609271523	-15.7764238410596	-1.45562913907285				0.932026490066225	0.0994966887417219	0.229933774834437	-1.4482119205298	-5.26807947019868	-3.97748344370861				0.671788079470199	-0.350834437086093	-0.612238410596026	-1.65960264900662	-2.64238410596027	-13.634701986755			
143	2860	0.999841059602649	0.0507549668874172	-0.039523178807947	-0.806622516556291	2.9353642384106	-1.18490066225166				0.944953642384106	0.0317880794701987	0.429139072847682	3.23390728476821	1.14781456953642	-3.66596026490066				0.965827814569536	-0.129271523178808	-0.15194701986755	0.567417218543046	-3.49350993377483	-2.72026490066225				0.768529801324503	-0.112529801324503	-0.565721854304636	-11.7970860927152	-14.9364238410596	-2.85562913907285				0.932026490066225	0.0994966887417219	0.245933774834437	-2.5682119205298	0.891920529801325	-5.93748344370861				0.655788079470199	-0.366834437086093	-0.596238410596026	1.14039735099338	-4.32238410596027	-12.514701986755			
144	2880	0.983841059602649	0.0827549668874172	-0.055523178807947	-1.08662251655629	-2.6646357615894	-1.74490066225166				0.896953642384106	0.0157880794701987	0.413139072847682	3.23390728476821	0.587814569536424	-3.38596026490066				0.949827814569536	-0.113271523178808	-0.15194701986755	1.68741721854305	-3.49350993377483	-1.04026490066225				0.736529801324503	-0.0965298013245033	-0.565721854304636	-7.87708609271523	-10.1764238410596	-3.41562913907285				0.932026490066225	0.0994966887417219	0.213933774834437	-3.4082119205298	0.611920529801325	-6.21748344370861				0.655788079470199	-0.366834437086093	-0.596238410596026	-1.37960264900662	-5.44238410596027	-10.834701986755			
145	2900	0.951841059602649	0.0827549668874172	-0.087523178807947	-1.64662251655629	-5.7446357615894	-1.18490066225166				0.896953642384106	-0.000211920529801304	0.429139072847682	-0.406092715231788	-0.812185430463576	-1.98596026490066				0.949827814569536	-0.129271523178808	-0.15194701986755	1.40741721854305	-3.77350993377483	-0.20026490066225				0.752529801324503	-0.0965298013245033	-0.565721854304636	-4.79708609271523	-5.9764238410596	-4.25562913907285				0.948026490066225	0.0834966887417219	0.229933774834437	0.231788079470198	1.45192052980132	-6.21748344370861				0.655788079470199	-0.350834437086093	-0.580238410596026	-3.05960264900662	-4.88238410596027	-9.43470198675497			
146	2920	0.935841059602649	0.0507549668874172	-0.071523178807947	-1.92662251655629	-5.1846357615894	-1.18490066225166				0.928953642384106	-0.000211920529801304	0.413139072847682	-4.60609271523179	-0.812185430463576	-1.70596026490066				0.965827814569536	-0.113271523178808	-0.15194701986755	1.12741721854305	-5.17350993377483	-1.04026490066225				0.752529801324503	-0.0805298013245033	-0.565721854304636	-3.39708609271523	-5.6964238410596	-4.25562913907285				0.932026490066225	0.0834966887417219	0.245933774834437	1.0717880794702	-0.228079470198675	-5.93748344370861				0.671788079470199	-0.334834437086093	-0.564238410596026	-1.37960264900662	-3.76238410596027	-10.274701986755			
147	2940	0.967841059602649	0.0507549668874172	-0.023523178807947	-2.76662251655629	-0.144635761589404	-0.904900662251656				0.928953642384106	-0.000211920529801304	0.397139072847682	-1.80609271523179	0.587814569536424	-1.98596026490066				0.949827814569536	-0.113271523178808	-0.15194701986755	2.80741721854305	-5.17350993377483	-1.60026490066225				0.752529801324503	-0.0805298013245033	-0.565721854304636	-1.71708609271523	-5.1364238410596	-4.53562913907285				0.948026490066225	0.0994966887417219	0.229933774834437	-0.888211920529802	-1.34807947019868	-5.93748344370861				0.703788079470199	-0.334834437086093	-0.596238410596026	5.90039735099338	-2.64238410596027	-13.074701986755			
148	2960	0.967841059602649	0.0347549668874172	-0.00752317880794696	-1.64662251655629	3.7753642384106	-1.18490066225166				0.944953642384106	-0.000211920529801304	0.413139072847682	2.11390728476821	-1.09218543046358	-0.585960264900661				0.933827814569536	-0.113271523178808	-0.15194701986755	1.68741721854305	-3.49350993377483	-1.60026490066225				0.752529801324503	-0.0965298013245033	-0.597721854304636	1.08291390728477	-4.2964238410596	-3.41562913907285				0.948026490066225	0.0994966887417219	0.229933774834437	-0.0482119205298018	0.0519205298013249	-4.81748344370861				0.719788079470199	-0.382834437086093	-0.612238410596026	9.54039735099338	-2.92238410596027	-13.634701986755			
149	2980	0	0	0	0	0	0				0	0	0	0	0	0				0	0	0	0	0	0				0.736529801324503	-0.112529801324503	-0.597721854304636	0.242913907284768	-2.3364238410596	-3.69562913907285				0.948026490066225	0.0674966887417219	0.229933774834437	1.0717880794702	-0.788079470198675	-3.69748344370861				0.719788079470199	-0.398834437086093	-0.612238410596026	4.78039735099338	-3.76238410596027	-10.274701986755			
150	3000	0	0	0	0	0	0				0.912953642384106	0.0157880794701987	0.445139072847682	-0.406092715231788	1.14781456953642	-2.26596026490066				0.933827814569536	-0.0972715231788079	-0.15194701986755	-2.79258278145695	0.426490066225167	-1.88026490066225				0.736529801324503	-0.0965298013245033	-0.581721854304636	-4.23708609271523	-2.0564238410596	-5.09562913907285				0.932026490066225	0.0834966887417219	0.213933774834437	-0.888211920529802	-1.34807947019868	-2.29748344370861				0.687788079470199	-0.382834437086093	-0.596238410596026	0.0203973509933773	-3.48238410596027	-4.95470198675497			
151	3020	0.967841059602649	0.0347549668874172	-0.119523178807947	-1.08662251655629	-2.9446357615894	-1.74490066225166				0.912953642384106	0.0157880794701987	0.413139072847682	0.153907284768212	0.307814569536424	-2.54596026490066				0.933827814569536	-0.0812715231788079	-0.16794701986755	-0.272582781456954	1.54649006622517	-3.00026490066225				0.752529801324503	-0.0805298013245033	-0.565721854304636	-4.51708609271523	-3.1764238410596	-3.13562913907285				0.932026490066225	0.0994966887417219	0.229933774834437	-0.608211920529802	-1.62807947019868	-0.897483443708608				0.671788079470199	-0.366834437086093	-0.580238410596026	-2.21960264900662	-2.92238410596027	-2.71470198675497			
152	3040	0.951841059602649	0.0347549668874172	-0.071523178807947	-0.246622516556291	-2.1046357615894	-1.18490066225166				0.928953642384106	0.0157880794701987	0.413139072847682	2.95390728476821	0.587814569536424	-1.42596026490066				0.933827814569536	-0.0812715231788079	-0.13594701986755	1.40741721854305	3.78649006622517	-3.84026490066225				0.752529801324503	-0.0805298013245033	-0.565721854304636	-1.71708609271523	-2.8964238410596	-0.335629139072848				0.932026490066225	0.0994966887417219	0.245933774834437	0.231788079470198	-1.34807947019868	-0.337483443708608				0.671788079470199	-0.350834437086093	-0.596238410596026	-1.37960264900662	-2.92238410596027	-1.59470198675497			
153	3060	0.951841059602649	0.0507549668874172	-0.00752317880794696	1.99337748344371	0.975364238410596	-2.02490066225166				0.944953642384106	-0.000211920529801304	0.413139072847682	1.55390728476821	-1.65218543046358	-1.42596026490066				0.949827814569536	-0.113271523178808	-0.15194701986755	3.08741721854305	2.38649006622517	-4.12026490066225				0.768529801324503	-0.0965298013245033	-0.565721854304636	2.20291390728477	-1.7764238410596	0.504370860927152				0.948026490066225	0.0834966887417219	0.245933774834437	0.791788079470198	-1.62807947019868	-0.337483443708608				0.687788079470199	-0.350834437086093	-0.596238410596026	0.860397350993377	-3.20238410596026	-3.27470198675497			
154	3080	0.967841059602649	0.0507549668874172	-0.00752317880794696	3.95337748344371	3.2153642384106	-0.904900662251656				0.928953642384106	-0.000211920529801304	0.397139072847682	-0.406092715231788	-3.33218543046358	-0.86596026490066				0.949827814569536	-0.129271523178808	-0.15194701986755	3.64741721854305	2.10649006622517	-4.12026490066225				0.768529801324503	-0.0965298013245033	-0.581721854304636	2.76291390728477	-0.6564238410596	0.504370860927152				0.948026490066225	0.0674966887417219	0.229933774834437	-0.888211920529802	-3.86807947019868	-0.337483443708608				0.687788079470199	-0.350834437086093	-0.596238410596026	0.300397350993377	-3.20238410596026	-4.11470198675497			
155	3100	0.983841059602649	0.0347549668874172	-0.071523178807947	1.71337748344371	1.5353642384106	-1.74490066225166				0.912953642384106	-0.000211920529801304	0.413139072847682	-1.80609271523179	-1.65218543046358	-1.14596026490066				0.949827814569536	-0.129271523178808	-0.16794701986755	1.40741721854305	3.78649006622517	-4.68026490066225				0.784529801324503	-0.0965298013245033	-0.581721854304636	3.88291390728477	-1.2164238410596	-0.335629139072848				0.948026490066225	0.0674966887417219	0.245933774834437	0.511788079470198	-1.06807947019868	-0.617483443708608				0.687788079470199	-0.350834437086093	-0.612238410596026	-1.09960264900662	-3.20238410596026	-5.79470198675497			
156	3120	0.999841059602649	0.0507549668874172	-0.103523178807947	-2.48662251655629	-0.984635761589404	-2.02490066225166				0.928953642384106	0.0157880794701987	0.429139072847682	-1.24609271523179	-0.252185430463576	-0.86596026490066				0.949827814569536	-0.129271523178808	-0.15194701986755	-2.23258278145695	5.46649006622517	-4.40026490066225				0.768529801324503	-0.112529801324503	-0.597721854304636	2.48291390728477	-2.6164238410596	0.504370860927152				0.932026490066225	0.0834966887417219	0.229933774834437	0.231788079470198	-2.46807947019868	-0.0574834437086077				0.671788079470199	-0.334834437086093	-0.596238410596026	0.580397350993377	-4.04238410596027	-7.47470198675497			
157	3140	0.967841059602649	0.0347549668874172	-0.071523178807947	-2.20662251655629	-3.5046357615894	-1.74490066225166				0.928953642384106	0.0157880794701987	0.429139072847682	0.433907284768212	-2.21218543046358	-0.86596026490066				0.965827814569536	-0.113271523178808	-0.15194701986755	-2.79258278145695	5.18649006622517	-4.12026490066225				0.752529801324503	-0.112529801324503	-0.597721854304636	-0.0370860927152318	-4.2964238410596	-0.335629139072848				0.948026490066225	0.0834966887417219	0.213933774834437	2.7517880794702	-1.90807947019868	0.782516556291392				0.655788079470199	-0.334834437086093	-0.612238410596026	3.66039735099338	-3.20238410596026	-9.71470198675497			
158	3160	0.951841059602649	0.0347549668874172	-0.055523178807947	-0.526622516556291	-2.1046357615894	-0.904900662251656				0.928953642384106	0.0157880794701987	0.413139072847682	-1.24609271523179	-3.05218543046358	-0.86596026490066				0.981827814569536	-0.129271523178808	-0.15194701986755	-1.67258278145695	2.94649006622517	-2.72026490066225				0.736529801324503	-0.0965298013245033	-0.581721854304636	-1.43708609271523	-5.6964238410596	-0.895629139072848				0.948026490066225	0.0834966887417219	0.213933774834437	1.0717880794702	-1.62807947019868	0.222516556291392				0.655788079470199	-0.366834437086093	-0.612238410596026	5.62039735099338	-2.36238410596027	-8.87470198675497			
159	3180	0.967841059602649	0.0507549668874172	-0.039523178807947	0.313377483443709	2.0953642384106	-1.46490066225166				0.928953642384106	0.0157880794701987	0.397139072847682	-3.48609271523179	-0.252185430463576	-1.70596026490066				0.965827814569536	-0.129271523178808	-0.16794701986755	-0.832582781456954	2.94649006622517	-2.44026490066225				0.752529801324503	-0.112529801324503	-0.597721854304636	-1.43708609271523	-4.5764238410596	-1.73562913907285				0.932026490066225	0.0834966887417219	0.213933774834437	1.3517880794702	-3.30807947019868	-1.17748344370861				0.639788079470199	-0.382834437086093	-0.596238410596026	2.26039735099338	-3.48238410596027	-6.07470198675497			
160	3200	0.967841059602649	0.0507549668874172	-0.039523178807947	-0.526622516556291	1.2553642384106	-2.58490066225166				0.928953642384106	-0.000211920529801304	0.413139072847682	-4.04609271523179	0.587814569536424	-0.86596026490066				0.949827814569536	-0.113271523178808	-0.16794701986755	-4.75258278145695	2.66649006622517	-1.32026490066225				0.752529801324503	-0.112529801324503	-0.597721854304636	1.64291390728477	-2.0564238410596	-1.17562913907285				0.948026490066225	0.0834966887417219	0.213933774834437	1.9117880794702	-2.46807947019868	-0.617483443708608				0.671788079470199	-0.366834437086093	-0.580238410596026	-2.49960264900662	-2.36238410596027	-1.87470198675497			
161	3220	0.967841059602649	0.0507549668874172	-0.071523178807947	-2.48662251655629	-0.424635761589404	-2.02490066225166				0.928953642384106	0.0157880794701987	0.429139072847682	-3.76609271523179	0.0278145695364242	-0.585960264900661				0.965827814569536	-0.129271523178808	-0.16794701986755	-4.75258278145695	2.38649006622517	-0.76026490066225				0.752529801324503	-0.112529801324503	-0.581721854304636	3.60291390728477	-0.9364238410596	-0.895629139072848				0.948026490066225	0.0834966887417219	0.213933774834437	1.3517880794702	-2.18807947019868	-0.0574834437086077				0.687788079470199	-0.350834437086093	-0.580238410596026	-1.65960264900662	-0.962384105960265	-1.31470198675497			
162	3240	0.967841059602649	0.0507549668874172	-0.087523178807947	-5.00662251655629	-2.1046357615894	-2.58490066225166				0.928953642384106	-0.000211920529801304	0.413139072847682	-1.52609271523179	-2.21218543046358	-0.30596026490066				0.965827814569536	-0.0972715231788079	-0.15194701986755	-3.63258278145695	0.146490066225167	-0.76026490066225				0.752529801324503	-0.112529801324503	-0.597721854304636	2.76291390728477	-1.2164238410596	-0.335629139072848				0.948026490066225	0.0834966887417219	0.229933774834437	0.511788079470198	-3.86807947019868	-0.617483443708608				0.687788079470199	-0.350834437086093	-0.580238410596026	1.70039735099338	1.27761589403974	-1.87470198675497			
163	3260	0.967841059602649	0.0187549668874172	-0.087523178807947	-4.16662251655629	-2.6646357615894	-1.46490066225166				0.928953642384106	0.0157880794701987	0.397139072847682	-3.20609271523179	-1.37218543046358	-0.86596026490066				0.949827814569536	-0.0972715231788079	-0.16794701986755	-2.79258278145695	-0.693509933774834	-1.04026490066225				0.752529801324503	-0.112529801324503	-0.597721854304636	0.802913907284768	-2.8964238410596	0.504370860927152				0.932026490066225	0.0834966887417219	0.229933774834437	-0.328211920529802	-4.70807947019868	-0.0574834437086077				0.671788079470199	-0.366834437086093	-0.580238410596026	1.42039735099338	1.83761589403974	-3.55470198675497			
164	3280	0.951841059602649	0.0347549668874172	-0.055523178807947	-2.48662251655629	-1.5446357615894	-0.344900662251656				0.928953642384106	-0.000211920529801304	0.413139072847682	-6.00609271523179	0.867814569536424	-1.14596026490066				0.949827814569536	-0.0972715231788079	-0.18394701986755	-2.79258278145695	-2.09350993377483	-1.88026490066225				0.752529801324503	-0.128529801324503	-0.613721854304636	0.802913907284768	-3.7364238410596	0.504370860927152				0.932026490066225	0.0674966887417219	0.229933774834437	-0.0482119205298018	-2.74807947019868	0.222516556291392				0.671788079470199	-0.366834437086093	-0.580238410596026	-1.37960264900662	1.83761589403974	-3.27470198675497			
165	3300	0.951841059602649	0.0347549668874172	-0.055523178807947	-2.20662251655629	0.695364238410596	-1.18490066225166				0.928953642384106	0.0157880794701987	0.429139072847682	-5.44609271523179	-1.09218543046358	-1.98596026490066				0.949827814569536	-0.0812715231788079	-0.16794701986755	-2.23258278145695	-2.09350993377483	-1.88026490066225				0.752529801324503	-0.112529801324503	-0.613721854304636	-1.99708609271523	-4.5764238410596	-0.335629139072848				0.932026490066225	0.0674966887417219	0.245933774834437	-0.328211920529802	-1.06807947019868	-0.337483443708608				0.671788079470199	-0.350834437086093	-0.596238410596026	-3.33960264900662	0.437615894039735	-4.95470198675497			
166	3320	0.967841059602649	0.0667549668874172	-0.055523178807947	-3.04662251655629	-0.144635761589404	-1.46490066225166				0.928953642384106	0.0157880794701987	0.413139072847682	-3.48609271523179	-2.77218543046358	-1.70596026490066				0.949827814569536	-0.0812715231788079	-0.16794701986755	-3.07258278145695	-1.25350993377483	-1.88026490066225				0.768529801324503	-0.112529801324503	-0.597721854304636	-4.79708609271523	-5.1364238410596	-1.17562913907285				0.948026490066225	0.0834966887417219	0.229933774834437	-2.5682119205298	-0.788079470198675	-0.897483443708608				0.671788079470199	-0.334834437086093	-0.596238410596026	-0.819602649006623	0.997615894039735	-6.07470198675497			
167	3340	0.967841059602649	0.0667549668874172	-0.071523178807947	-2.20662251655629	-1.2646357615894	-1.74490066225166				0.928953642384106	0.0157880794701987	0.413139072847682	-3.20609271523179	-2.49218543046358	-0.585960264900661				0.949827814569536	-0.0812715231788079	-0.16794701986755	-2.79258278145695	-0.973509933774833	-2.44026490066225				0.768529801324503	-0.0965298013245033	-0.581721854304636	-4.23708609271523	-4.5764238410596	-0.335629139072848				0.948026490066225	0.0994966887417219	0.213933774834437	-2.0082119205298	-1.62807947019868	-0.617483443708608				0.687788079470199	-0.350834437086093	-0.596238410596026	1.42039735099338	0.717615894039735	-8.59470198675497			
168	3360	0.967841059602649	0.0507549668874172	-0.087523178807947	-1.36662251655629	-2.6646357615894	-2.30490066225166				0.928953642384106	0.0157880794701987	0.397139072847682	-1.80609271523179	-3.05218543046358	-0.585960264900661				0.949827814569536	-0.0972715231788079	-0.16794701986755	-0.272582781456954	-1.53350993377483	-2.72026490066225				0.768529801324503	-0.0805298013245033	-0.565721854304636	-2.55708609271523	-4.2964238410596	-0.615629139072848				0.932026490066225	0.0834966887417219	0.245933774834437	2.7517880794702	-1.62807947019868	-0.617483443708608				0.671788079470199	-0.366834437086093	-0.596238410596026	1.70039735099338	1.55761589403974	-7.75470198675497			
169	3380	0.967841059602649	0.0507549668874172	-0.071523178807947	-0.526622516556291	-1.5446357615894	-2.02490066225166				0.928953642384106	0.0157880794701987	0.381139072847682	-0.966092715231788	-2.49218543046358	-1.70596026490066				0.965827814569536	-0.0972715231788079	-0.16794701986755	2.80741721854305	-1.53350993377483	-3.00026490066225				0.768529801324503	-0.0805298013245033	-0.565721854304636	0.242913907284768	-3.7364238410596	-0.615629139072848				0.948026490066225	0.0994966887417219	0.197933774834437	-0.608211920529802	-5.26807947019868	-0.617483443708608				0.655788079470199	-0.366834437086093	-0.612238410596026	-1.65960264900662	1.83761589403974	-6.07470198675497			
170	3400	0.967841059602649	0.0507549668874172	-0.071523178807947	1.43337748344371	-0.984635761589404	-1.74490066225166				0.928953642384106	0.0157880794701987	0.413139072847682	0.993907284768212	-2.77218543046358	-1.14596026490066				0.965827814569536	-0.0972715231788079	-0.16794701986755	1.12741721854305	-0.973509933774833	-1.60026490066225				0.784529801324503	-0.0805298013245033	-0.597721854304636	3.04291390728477	-3.7364238410596	-2.85562913907285				0.932026490066225	0.0994966887417219	0.245933774834437	-0.328211920529802	-0.228079470198675	-1.17748344370861				0.671788079470199	-0.334834437086093	-0.596238410596026	-3.05960264900662	0.157615894039735	-2.71470198675497			
171	3420	0.967841059602649	0.0507549668874172	-0.055523178807947	1.15337748344371	-1.2646357615894	-1.46490066225166				0.928953642384106	0.0157880794701987	0.397139072847682	1.55390728476821	-2.77218543046358	-1.14596026490066				0.965827814569536	-0.113271523178808	-0.16794701986755	-0.832582781456954	-2.65350993377483	-1.32026490066225				0.768529801324503	-0.0965298013245033	-0.597721854304636	4.44291390728477	-3.1764238410596	-3.69562913907285				0.948026490066225	0.0994966887417219	0.229933774834437	0.791788079470198	-1.06807947019868	-2.29748344370861				0.671788079470199	-0.334834437086093	-0.612238410596026	-0.819602649006623	-1.24238410596026	-2.71470198675497			
172	3440	0.967841059602649	0.0507549668874172	-0.071523178807947	-0.246622516556291	-2.3846357615894	-1.74490066225166				0.928953642384106	0.0317880794701987	0.413139072847682	2.11390728476821	-4.17218543046358	-1.70596026490066				0.965827814569536	-0.0972715231788079	-0.16794701986755	-1.67258278145695	-2.37350993377483	-0.20026490066225				0.768529801324503	-0.0965298013245033	-0.613721854304636	3.04291390728477	-2.8964238410596	-4.81562913907285				0.964026490066225	0.0834966887417219	0.213933774834437	1.6317880794702	-2.74807947019868	-2.29748344370861				0.671788079470199	-0.318834437086093	-0.628238410596026	0.300397350993377	-1.80238410596026	-5.23470198675497			
173	3460	0.951841059602649	0.0667549668874172	-0.071523178807947	0.593377483443709	-2.3846357615894	-0.904900662251656				0.928953642384106	0.0157880794701987	0.397139072847682	2.39390728476821	-6.13218543046358	-1.70596026490066				0.949827814569536	-0.0972715231788079	-0.15194701986755	0.00741721854304636	-1.53350993377483	-1.04026490066225				0.768529801324503	-0.0965298013245033	-0.597721854304636	-0.317086092715232	-2.6164238410596	-6.49562913907285				0.948026490066225	0.0994966887417219	0.213933774834437	4.4317880794702	-1.90807947019868	-2.01748344370861				0.687788079470199	-0.318834437086093	-0.612238410596026	0.300397350993377	-1.52238410596026	-6.63470198675497			
174	3480	0.967841059602649	0.0667549668874172	-0.071523178807947	0.873377483443709	-1.2646357615894	-2.02490066225166				0.944953642384106	0.0157880794701987	0.381139072847682	2.67390728476821	-5.01218543046358	-0.30596026490066				0.965827814569536	-0.0972715231788079	-0.15194701986755	0.567417218543046	-1.25350993377483	-0.76026490066225				0.752529801324503	-0.0645298013245033	-0.597721854304636	-0.317086092715232	-3.7364238410596	-6.21562913907285				0.948026490066225	0.115496688741722	0.213933774834437	4.1517880794702	-1.34807947019868	-2.57748344370861				0.671788079470199	-0.318834437086093	-0.596238410596026	-0.539602649006623	-2.64238410596027	-7.19470198675497			
175	3500	0.967841059602649	0.0507549668874172	-0.071523178807947	1.15337748344371	-0.424635761589404	-1.18490066225166				0.928953642384106	0.0157880794701987	0.413139072847682	4.35390728476821	-4.45218543046358	-0.30596026490066				0.949827814569536	-0.0812715231788079	-0.15194701986755	0.00741721854304636	-2.65350993377483	-0.48026490066225				0.736529801324503	-0.0805298013245033	-0.597721854304636	2.20291390728477	-3.4564238410596	-5.65562913907285				0.932026490066225	0.0994966887417219	0.213933774834437	4.4317880794702	-2.46807947019868	-2.29748344370861				0.671788079470199	-0.318834437086093	-0.596238410596026	0.580397350993377	-2.36238410596027	-7.75470198675497			
176	3520	0.967841059602649	0.0507549668874172	-0.087523178807947	1.43337748344371	-0.704635761589404	-0.904900662251656				0.928953642384106	0.0317880794701987	0.413139072847682	4.35390728476821	-5.85218543046358	0.25403973509934				0.949827814569536	-0.0812715231788079	-0.16794701986755	1.12741721854305	-1.25350993377483	-0.48026490066225				0.736529801324503	-0.112529801324503	-0.597721854304636	5.28291390728477	-1.7764238410596	-4.25562913907285				0.932026490066225	0.0994966887417219	0.213933774834437	5.8317880794702	-1.62807947019868	-2.57748344370861				0.687788079470199	-0.302834437086093	-0.596238410596026	1.14039735099338	-1.52238410596026	-7.47470198675497			
177	3540	0.951841059602649	0.0667549668874172	-0.087523178807947	1.43337748344371	-1.8246357615894	-1.46490066225166				0.912953642384106	0.0317880794701987	0.397139072847682	3.23390728476821	-6.41218543046358	0.81403973509934				0.949827814569536	-0.0972715231788079	-0.15194701986755	0.00741721854304636	-0.133509933774833	-0.48026490066225				0.736529801324503	-0.0965298013245033	-0.613721854304636	3.88291390728477	-1.7764238410596	-4.25562913907285				0.932026490066225	0.0994966887417219	0.213933774834437	6.1117880794702	-0.508079470198675	-2.57748344370861				0.687788079470199	-0.302834437086093	-0.596238410596026	1.98039735099338	-1.80238410596026	-9.99470198675497			
178	3560	0.951841059602649	0.0507549668874172	-0.071523178807947	1.71337748344371	-1.5446357615894	-1.74490066225166				0.928953642384106	0.0157880794701987	0.381139072847682	3.23390728476821	-7.81218543046358	0.25403973509934				0.949827814569536	-0.0972715231788079	-0.16794701986755	-0.552582781456954	-0.973509933774833	-0.48026490066225				0.736529801324503	-0.112529801324503	-0.629721854304636	4.44291390728477	-2.6164238410596	-2.01562913907285				0.948026490066225	0.0994966887417219	0.197933774834437	4.7117880794702	-1.06807947019868	-2.29748344370861				0.671788079470199	-0.318834437086093	-0.596238410596026	3.94039735099338	-3.48238410596027	-11.674701986755			
