No	Time	12-AccX	12-AccY	12-AccZ	12-GyroX	12-GyroY	12-GyroZ	13-AccX	13-AccY	13-AccZ	13-GyroX	13-GyroY	13-GyroZ	14-AccX	14-AccY	14-AccZ	14-GyroX	14-GyroY	14-GyroZ	15-AccX	15-AccY	15-AccZ	15-GyroX	15-GyroY	15-GyroZ	16-AccX	16-AccY	16-AccZ	16-GyroX	16-GyroY	16-GyroZ	17-AccX	17-AccY	17-AccZ	17-GyroX	17-GyroY	17-GyroZ
0	0	-0.200158940397351	0.146754966887417	-0.935523178807947	-0.526622516556291	0.415364238410596	-1.74490066225166				0.992953642384106	0.0957880794701987	0.0771390728476822	0.433907284768212	-5.57218543046358	-0.585960264900661				-0.202172185430464	-0.145271523178808	-0.90394701986755	-0.552582781456954	0.706490066225167	0.35973509933775				0	0	0	0	0	0				0	0	0	0	0	0				0.303788079470199	-0.222834437086093	-0.852238410596026	1.70039735099338	0.437615894039735	-4.67470198675497			
1	20	-0.200158940397351	0.162754966887417	-0.935523178807947	-0.526622516556291	0.415364238410596	-1.46490066225166				0.976953642384106	0.0957880794701987	0.0611390728476822	0.713907284768212	-3.89218543046358	-0.0259602649006601				-0.202172185430464	-0.145271523178808	-0.88794701986755	-0.272582781456954	-0.133509933774833	-0.20026490066225				0.304529801324503	-0.0805298013245033	-0.933721854304636	-0.0370860927152318	-1.7764238410596	-1.17562913907285				0.948026490066225	0.131496688741722	0.133933774834437	2.4717880794702	-1.34807947019868	0.222516556291392				0.319788079470199	-0.238834437086093	-0.868238410596026	0.580397350993377	0.437615894039735	-4.39470198675497			
2	40	-0.200158940397351	0.162754966887417	-0.935523178807947	-0.806622516556291	0.135364238410596	-1.46490066225166				0.976953642384106	0.0957880794701987	0.0771390728476822	2.39390728476821	-2.21218543046358	-0.0259602649006601				-0.202172185430464	-0.129271523178808	-0.88794701986755	-1.11258278145695	1.26649006622517	0.63973509933775				0.288529801324503	-0.0805298013245033	-0.901721854304636	-0.0370860927152318	-1.4964238410596	-0.335629139072848				0.948026490066225	0.131496688741722	0.117933774834437	2.1917880794702	-1.62807947019868	-0.617483443708608				0.319788079470199	-0.222834437086093	-0.868238410596026	-0.259602649006623	-0.402384105960265	-3.83470198675497			
3	60	-0.200158940397351	0.162754966887417	-0.935523178807947	-0.246622516556291	-0.704635761589404	-1.18490066225166				0.976953642384106	0.0957880794701987	0.0771390728476822	3.23390728476821	-4.17218543046358	0.53403973509934				-0.202172185430464	-0.129271523178808	-0.88794701986755	-1.11258278145695	-0.693509933774834	0.0797350993377501				0.288529801324503	-0.0645298013245033	-0.901721854304636	0.802913907284768	0.1835761589404	-1.17562913907285				0.964026490066225	0.115496688741722	0.133933774834437	1.6317880794702	-1.06807947019868	-0.0574834437086077				0.319788079470199	-0.206834437086093	-0.884238410596026	0.860397350993377	-1.24238410596026	-3.55470198675497			
4	80	-0.216158940397351	0.146754966887417	-0.935523178807947	1.71337748344371	-0.144635761589404	-1.18490066225166				0.992953642384106	0.0957880794701987	0.0771390728476822	3.23390728476821	-6.69218543046358	0.81403973509934				-0.202172185430464	-0.113271523178808	-0.88794701986755	0.00741721854304636	0.426490066225167	-0.20026490066225				0.288529801324503	-0.0645298013245033	-0.917721854304636	1.92291390728477	1.3035761589404	-0.615629139072848				0.948026490066225	0.115496688741722	0.117933774834437	0.511788079470198	-1.62807947019868	0.222516556291392				0.319788079470199	-0.222834437086093	-0.884238410596026	0.300397350993377	-1.80238410596026	-3.83470198675497			
5	100	-0.216158940397351	0.146754966887417	-0.935523178807947	0.593377483443709	-0.144635761589404	-1.18490066225166				0.976953642384106	0.0957880794701987	0.0611390728476822	2.11390728476821	-5.01218543046358	0.25403973509934				-0.202172185430464	-0.129271523178808	-0.90394701986755	0.287417218543046	-0.133509933774833	-0.48026490066225				0.288529801324503	-0.0805298013245033	-0.917721854304636	3.04291390728477	1.5835761589404	-0.615629139072848				0.948026490066225	0.115496688741722	0.133933774834437	2.4717880794702	-1.62807947019868	-0.337483443708608				0.319788079470199	-0.222834437086093	-0.868238410596026	0.860397350993377	-1.52238410596026	-2.15470198675497			
6	120	-0.200158940397351	0.146754966887417	-0.903523178807947	-0.246622516556291	0.135364238410596	-0.624900662251656				0.992953642384106	0.0957880794701987	0.0451390728476822	1.55390728476821	-1.37218543046358	-0.0259602649006601				-0.202172185430464	-0.129271523178808	-0.88794701986755	-0.552582781456954	0.986490066225167	0.35973509933775				0.304529801324503	-0.0805298013245033	-0.917721854304636	2.76291390728477	0.7435761589404	-1.45562913907285				0.948026490066225	0.115496688741722	0.133933774834437	1.9117880794702	-1.34807947019868	0.502516556291392				0.303788079470199	-0.222834437086093	-0.868238410596026	0.0203973509933773	-1.80238410596026	-1.03470198675497			
7	140	-0.184158940397351	0.162754966887417	-0.951523178807947	0.0333774834437086	-0.704635761589404	-0.624900662251656				0.976953642384106	0.0957880794701987	0.0611390728476822	2.11390728476821	-0.252185430463576	-0.0259602649006601				-0.202172185430464	-0.129271523178808	-0.88794701986755	0.287417218543046	-0.413509933774833	-0.20026490066225				0.288529801324503	-0.0645298013245033	-0.917721854304636	1.08291390728477	0.4635761589404	-1.17562913907285				0.948026490066225	0.115496688741722	0.133933774834437	1.0717880794702	-1.34807947019868	0.782516556291392				0.319788079470199	-0.206834437086093	-0.868238410596026	-0.819602649006623	-2.36238410596027	-1.31470198675497			
8	160	-0.200158940397351	0.146754966887417	-0.935523178807947	0.313377483443709	-0.704635761589404	-0.904900662251656				0.960953642384106	0.0957880794701987	0.0611390728476822	2.11390728476821	-0.812185430463576	0.53403973509934				-0.186172185430464	-0.129271523178808	-0.88794701986755	0.287417218543046	-0.133509933774833	-0.76026490066225				0.288529801324503	-0.0645298013245033	-0.901721854304636	1.64291390728477	1.3035761589404	-2.29562913907285				0.948026490066225	0.115496688741722	0.117933774834437	1.6317880794702	-0.508079470198675	0.502516556291392				0.319788079470199	-0.222834437086093	-0.868238410596026	1.98039735099338	-2.08238410596027	-1.59470198675497			
9	180	-0.200158940397351	0.146754966887417	-0.935523178807947	1.15337748344371	-0.424635761589404	-0.624900662251656				0.976953642384106	0.0957880794701987	0.0611390728476822	3.79390728476821	-0.532185430463576	1.65403973509934				-0.202172185430464	-0.145271523178808	-0.88794701986755	-0.272582781456954	-0.693509933774834	-1.04026490066225				0.288529801324503	-0.0645298013245033	-0.901721854304636	3.60291390728477	1.5835761589404	-2.29562913907285				0.948026490066225	0.115496688741722	0.117933774834437	1.9117880794702	-1.90807947019868	0.222516556291392				0.303788079470199	-0.206834437086093	-0.868238410596026	1.98039735099338	-1.24238410596026	-2.71470198675497			
10	200	-0.200158940397351	0.162754966887417	-0.935523178807947	0.593377483443709	0.135364238410596	-1.18490066225166				0.992953642384106	0.0797880794701987	0.0771390728476822	3.51390728476821	-0.252185430463576	1.93403973509934				-0.202172185430464	-0.129271523178808	-0.90394701986755	0.567417218543046	-0.413509933774833	-0.20026490066225				0.304529801324503	-0.0805298013245033	-0.917721854304636	3.60291390728477	1.5835761589404	-2.57562913907285				0.932026490066225	0.115496688741722	0.149933774834437	4.9917880794702	2.57192052980133	1.06251655629139				0.303788079470199	-0.206834437086093	-0.868238410596026	2.54039735099338	-1.52238410596026	-3.55470198675497			
11	220	-0.200158940397351	0.146754966887417	-0.935523178807947	0.313377483443709	-0.144635761589404	-1.74490066225166				0.992953642384106	0.0957880794701987	0.0611390728476822	1.27390728476821	-1.09218543046358	0.81403973509934				-0.186172185430464	-0.129271523178808	-0.88794701986755	0.287417218543046	-0.413509933774833	-0.48026490066225				0.320529801324503	-0.0805298013245033	-0.917721854304636	3.04291390728477	-0.0964238410596001	-2.57562913907285				0.948026490066225	0.131496688741722	0.117933774834437	2.4717880794702	-0.788079470198675	0.502516556291392				0.319788079470199	-0.206834437086093	-0.868238410596026	1.70039735099338	-0.962384105960265	-4.39470198675497			
12	240	-0.200158940397351	0.162754966887417	-0.935523178807947	-1.36662251655629	-0.984635761589404	-0.904900662251656				0.976953642384106	0.0957880794701987	0.0611390728476822	-0.126092715231788	-0.252185430463576	1.37403973509934				-0.202172185430464	-0.129271523178808	-0.87194701986755	1.12741721854305	0.706490066225167	-0.48026490066225				0.320529801324503	-0.0805298013245033	-0.933721854304636	2.48291390728477	-1.2164238410596	-2.57562913907285				0.948026490066225	0.115496688741722	0.133933774834437	2.1917880794702	0.891920529801325	0.222516556291392				0.303788079470199	-0.222834437086093	-0.852238410596026	0.580397350993377	-0.962384105960265	-4.67470198675497			
13	260	-0.200158940397351	0.146754966887417	-0.935523178807947	1.43337748344371	-0.984635761589404	-0.624900662251656				0.976953642384106	0.111788079470199	0.0771390728476822	0.993907284768212	0.307814569536424	1.65403973509934				-0.202172185430464	-0.129271523178808	-0.88794701986755	0.567417218543046	-0.693509933774834	-0.20026490066225				0.304529801324503	-0.0805298013245033	-0.917721854304636	1.36291390728477	-1.4964238410596	-3.13562913907285				0.948026490066225	0.115496688741722	0.133933774834437	2.1917880794702	1.45192052980132	0.222516556291392				0.319788079470199	-0.238834437086093	-0.868238410596026	0.860397350993377	-1.24238410596026	-4.95470198675497			
14	280	-0.200158940397351	0.146754966887417	-0.935523178807947	1.43337748344371	-1.2646357615894	-0.904900662251656				0.992953642384106	0.0957880794701987	0.0771390728476822	4.07390728476821	-0.812185430463576	1.65403973509934				-0.202172185430464	-0.129271523178808	-0.88794701986755	1.12741721854305	-0.413509933774833	0.63973509933775				0.304529801324503	-0.0965298013245033	-0.917721854304636	-0.317086092715232	-0.9364238410596	-5.37562913907285				0.964026490066225	0.115496688741722	0.117933774834437	1.9117880794702	0.891920529801325	-1.17748344370861				0.319788079470199	-0.222834437086093	-0.836238410596026	0.860397350993377	0.157615894039735	-4.95470198675497			
15	300	-0.200158940397351	0.162754966887417	-0.935523178807947	-0.246622516556291	0.135364238410596	-1.74490066225166				0.992953642384106	0.0957880794701987	0.0451390728476822	4.07390728476821	-1.93218543046358	2.49403973509934				-0.202172185430464	-0.145271523178808	-0.90394701986755	1.12741721854305	0.426490066225167	-0.20026490066225				0.288529801324503	-0.0805298013245033	-0.917721854304636	-0.0370860927152318	-1.2164238410596	-2.85562913907285				0.948026490066225	0.115496688741722	0.133933774834437	4.7117880794702	0.891920529801325	-0.0574834437086077				0.319788079470199	-0.222834437086093	-0.852238410596026	-0.259602649006623	1.55761589403974	-3.27470198675497			
16	320	-0.216158940397351	0.162754966887417	-0.919523178807947	0.313377483443709	-0.424635761589404	-0.624900662251656				0.976953642384106	0.0957880794701987	0.0451390728476822	5.19390728476821	-3.33218543046358	2.77403973509934				-0.202172185430464	-0.129271523178808	-0.87194701986755	1.96741721854305	0.706490066225167	-0.20026490066225				0.288529801324503	-0.0645298013245033	-0.933721854304636	1.64291390728477	-0.6564238410596	-2.01562913907285				0.964026490066225	0.131496688741722	0.133933774834437	2.7517880794702	0.891920529801325	-0.0574834437086077				0.319788079470199	-0.222834437086093	-0.868238410596026	0.580397350993377	1.83761589403974	-3.83470198675497			
17	340	-0.200158940397351	0.146754966887417	-0.919523178807947	1.99337748344371	-0.424635761589404	-0.904900662251656				0.992953642384106	0.0957880794701987	0.0611390728476822	7.71390728476821	-5.29218543046358	3.05403973509934				-0.202172185430464	-0.113271523178808	-0.88794701986755	2.52741721854305	0.146490066225167	0.0797350993377501				0.304529801324503	-0.0805298013245033	-0.933721854304636	3.04291390728477	0.4635761589404	-1.45562913907285				0.964026490066225	0.131496688741722	0.117933774834437	1.6317880794702	-1.06807947019868	-0.0574834437086077				0.319788079470199	-0.222834437086093	-0.884238410596026	0.0203973509933773	0.437615894039735	-3.83470198675497			
18	360	-0.232158940397351	0.162754966887417	-0.935523178807947	0.313377483443709	-0.424635761589404	-1.18490066225166				0.992953642384106	0.0957880794701987	0.0291390728476822	8.27390728476821	-6.69218543046358	3.05403973509934				-0.218172185430464	-0.129271523178808	-0.90394701986755	3.36741721854305	0.706490066225167	-0.48026490066225				0.304529801324503	-0.0965298013245033	-0.933721854304636	1.92291390728477	-0.0964238410596001	-1.17562913907285				0.964026490066225	0.115496688741722	0.117933774834437	2.7517880794702	-0.508079470198675	-0.897483443708608				0.335788079470199	-0.222834437086093	-0.884238410596026	0.300397350993377	-0.682384105960265	-2.99470198675497			
19	380	-0.216158940397351	0.146754966887417	-0.935523178807947	0.0333774834437086	-0.144635761589404	-0.624900662251656				0.976953642384106	0.0957880794701987	0.0451390728476822	6.03390728476821	-5.85218543046358	2.49403973509934				-0.218172185430464	-0.113271523178808	-0.90394701986755	2.80741721854305	0.426490066225167	-0.76026490066225				0.304529801324503	-0.0965298013245033	-0.933721854304636	-0.597086092715232	-2.3364238410596	-0.895629139072848				0.964026490066225	0.131496688741722	0.117933774834437	2.4717880794702	-1.62807947019868	-0.0574834437086077				0.319788079470199	-0.238834437086093	-0.868238410596026	-0.819602649006623	-0.682384105960265	-1.59470198675497			
20	400	-0.216158940397351	0.130754966887417	-0.935523178807947	1.71337748344371	0.415364238410596	0.495099337748344				1.00895364238411	0.0797880794701987	0.0451390728476822	3.79390728476821	-9.21218543046358	2.77403973509934				-0.202172185430464	-0.129271523178808	-0.87194701986755	5.32741721854305	1.82649006622517	-0.20026490066225				0.288529801324503	-0.0965298013245033	-0.917721854304636	1.36291390728477	-2.6164238410596	0.224370860927152				0.964026490066225	0.115496688741722	0.101933774834437	1.6317880794702	-2.74807947019868	-0.0574834437086077				0.319788079470199	-0.222834437086093	-0.868238410596026	-3.05960264900662	0.717615894039735	-0.754701986754968			
21	420	-0.200158940397351	0.114754966887417	-0.951523178807947	0.593377483443709	0.135364238410596	0.775099337748344				0.992953642384106	0.0477880794701987	0.0291390728476822	3.23390728476821	-17.6121854304636	3.05403973509934				-0.202172185430464	-0.145271523178808	-0.90394701986755	4.76741721854305	0.706490066225167	-1.32026490066225				0.256529801324503	-0.0965298013245033	-0.917721854304636	1.08291390728477	-2.6164238410596	-0.615629139072848				0.948026490066225	0.0994966887417219	0.117933774834437	-0.328211920529802	-3.02807947019868	-0.337483443708608				0.287788079470199	-0.206834437086093	-0.868238410596026	-4.73960264900662	0.997615894039735	0.645298013245032			
22	440	-0.200158940397351	0.114754966887417	-0.935523178807947	-0.246622516556291	-0.704635761589404	1.33509933774834				0.992953642384106	0.0637880794701987	0.0131390728476822	1.83390728476821	-18.4521854304636	2.77403973509934				-0.186172185430464	-0.161271523178808	-0.88794701986755	4.76741721854305	-0.413509933774833	-3.00026490066225				0.256529801324503	-0.112529801324503	-0.933721854304636	0.802913907284768	-2.6164238410596	0.504370860927152				0.948026490066225	0.0834966887417219	0.101933774834437	-2.0082119205298	-2.74807947019868	-1.17748344370861				0.287788079470199	-0.190834437086093	-0.884238410596026	-1.37960264900662	0.717615894039735	-1.59470198675497			
23	460	-0.200158940397351	0.114754966887417	-0.951523178807947	-1.08662251655629	-0.144635761589404	1.89509933774834				0.992953642384106	0.0797880794701987	0.0291390728476822	3.51390728476821	-19.5721854304636	2.49403973509934				-0.186172185430464	-0.145271523178808	-0.90394701986755	3.92741721854305	0.986490066225167	-3.56026490066225				0.272529801324503	-0.112529801324503	-0.917721854304636	1.36291390728477	-3.1764238410596	0.784370860927152				0.980026490066225	0.0674966887417219	0.0859337748344371	-4.5282119205298	-4.14807947019868	-1.17748344370861				0.287788079470199	-0.206834437086093	-0.900238410596026	1.14039735099338	1.55761589403974	-2.43470198675497			
24	480	-0.216158940397351	0.146754966887417	-0.967523178807947	-1.08662251655629	-0.424635761589404	3.01509933774834				1.07295364238411	0.0797880794701987	0.0611390728476822	4.63390728476821	-42.5321854304636	4.45403973509934				-0.186172185430464	-0.145271523178808	-0.88794701986755	5.32741721854305	1.82649006622517	-3.28026490066225				0.272529801324503	-0.0965298013245033	-0.917721854304636	1.08291390728477	-4.0164238410596	1.90437086092715				0.964026490066225	0.115496688741722	0.0859337748344371	-5.9282119205298	-3.58807947019868	-0.617483443708608				0.303788079470199	-0.206834437086093	-0.900238410596026	-1.37960264900662	2.95761589403974	-2.15470198675497			
25	500	-0.200158940397351	0.130754966887417	-0.967523178807947	1.15337748344371	0.135364238410596	4.69509933774834				0.912953642384106	0.0957880794701987	0.0131390728476822	0.993907284768212	-53.4521854304636	2.49403973509934				-0.186172185430464	-0.161271523178808	-0.88794701986755	5.88741721854305	0.706490066225167	-3.00026490066225				0.256529801324503	-0.0805298013245033	-0.933721854304636	2.20291390728477	-2.8964238410596	2.74437086092715				0.948026490066225	0.131496688741722	0.0539337748344371	-3.4082119205298	-4.42807947019868	0.782516556291392				0.287788079470199	-0.222834437086093	-0.884238410596026	-2.77960264900662	2.67761589403974	1.20529801324503			
26	520	-0.200158940397351	0.114754966887417	-0.951523178807947	1.71337748344371	1.2553642384106	5.53509933774834				0.912953642384106	0.0317880794701987	-0.0508609271523178	0.153907284768212	-24.8921854304636	2.77403973509934				-0.202172185430464	-0.161271523178808	-0.87194701986755	3.92741721854305	0.426490066225167	-2.16026490066225				0.256529801324503	-0.0965298013245033	-0.933721854304636	3.32291390728477	0.4635761589404	1.90437086092715				0.916026490066225	0.131496688741722	0.101933774834437	0.231788079470198	0.331920529801325	1.90251655629139				0.271788079470199	-0.190834437086093	-0.884238410596026	-3.61960264900662	2.67761589403974	5.12529801324503			
27	540	-0.216158940397351	0.114754966887417	-0.951523178807947	0.313377483443709	2.3753642384106	4.41509933774834				0.992953642384106	0.0477880794701987	-0.0508609271523178	-3.20609271523179	-1.37218543046358	3.61403973509934				-0.202172185430464	-0.193271523178808	-0.88794701986755	2.24741721854305	1.26649006622517	-1.60026490066225				0.240529801324503	-0.112529801324503	-0.933721854304636	0.522913907284768	2.7035761589404	0.504370860927152				0.932026490066225	0.115496688741722	0.101933774834437	0.231788079470198	5.37192052980133	1.34251655629139				0.271788079470199	-0.190834437086093	-0.884238410596026	-1.09960264900662	2.95761589403974	7.08529801324503			
28	560	-0.232158940397351	0.146754966887417	-0.935523178807947	-2.76662251655629	2.3753642384106	4.41509933774834				1.00895364238411	0.0317880794701987	-0.0668609271523178	-2.08609271523179	-4.45218543046358	5.85403973509934				-0.202172185430464	-0.209271523178808	-0.90394701986755	2.24741721854305	1.54649006622517	-1.88026490066225				0.240529801324503	-0.112529801324503	-0.933721854304636	-3.95708609271523	5.2235761589404	-0.0556291390728476				0.948026490066225	0.0834966887417219	0.117933774834437	1.3517880794702	9.01192052980133	1.06251655629139				0.303788079470199	-0.206834437086093	-0.868238410596026	2.26039735099338	4.63761589403974	7.64529801324503			
29	580	-0.248158940397351	0.146754966887417	-0.919523178807947	-2.48662251655629	3.2153642384106	4.69509933774834				0.960953642384106	0.0477880794701987	-0.0668609271523178	-2.64609271523179	-0.532185430463576	4.45403973509934				-0.202172185430464	-0.177271523178808	-0.88794701986755	0.00741721854304636	0.706490066225167	-0.76026490066225				0.256529801324503	-0.0965298013245033	-0.917721854304636	-5.07708609271523	9.1435761589404	0.784370860927152				0.964026490066225	0.0834966887417219	0.101933774834437	-0.888211920529802	10.1319205298013	0.782516556291392				0.319788079470199	-0.222834437086093	-0.852238410596026	6.74039735099338	7.15761589403974	6.24529801324503			
30	600	-0.232158940397351	0.130754966887417	-0.919523178807947	-1.92662251655629	3.7753642384106	4.69509933774834				0.976953642384106	0.0477880794701987	-0.0828609271523179	-2.64609271523179	-0.812185430463576	5.01403973509934				-0.202172185430464	-0.177271523178808	-0.83994701986755	1.68741721854305	1.26649006622517	1.47973509933775				0.256529801324503	-0.112529801324503	-0.917721854304636	-1.71708609271523	10.8235761589404	2.18437086092715				0.980026490066225	0.0834966887417219	0.117933774834437	-1.7282119205298	10.4119205298013	1.34251655629139				0.335788079470199	-0.222834437086093	-0.852238410596026	5.06039735099338	10.2376158940397	5.96529801324503			
31	620	-0.200158940397351	0.114754966887417	-0.935523178807947	-3.88662251655629	2.9353642384106	6.37509933774834				0.976953642384106	0.0637880794701987	-0.0828609271523179	-3.76609271523179	-3.05218543046358	4.17403973509934				-0.218172185430464	-0.177271523178808	-0.87194701986755	1.68741721854305	0.986490066225167	3.99973509933775				0.256529801324503	-0.112529801324503	-0.933721854304636	2.48291390728477	9.9835761589404	2.74437086092715				0.980026490066225	0.0514966887417219	0.117933774834437	-3.9682119205298	7.89192052980133	0.222516556291392				0.319788079470199	-0.238834437086093	-0.868238410596026	4.22039735099338	11.3576158940397	4.00529801324503			
32	640	-0.200158940397351	0.114754966887417	-0.951523178807947	-5.28662251655629	2.3753642384106	8.61509933774835				0.944953642384106	0.0797880794701987	-0.0988609271523179	-4.88609271523179	-5.01218543046358	3.33403973509934				-0.218172185430464	-0.177271523178808	-0.87194701986755	-1.11258278145695	-0.693509933774834	6.51973509933775				0.272529801324503	-0.128529801324503	-0.933721854304636	2.76291390728477	9.4235761589404	4.14437086092715				0.964026490066225	0.0674966887417219	0.101933774834437	-7.6082119205298	3.69192052980133	1.34251655629139				0.319788079470199	-0.222834437086093	-0.884238410596026	2.82039735099338	11.0776158940397	3.16529801324503			
33	660	-0.216158940397351	0.130754966887417	-0.935523178807947	-8.08662251655629	2.3753642384106	9.45509933774835				0.928953642384106	0.0957880794701987	-0.0988609271523179	-3.76609271523179	1.14781456953642	2.21403973509934				-0.218172185430464	-0.129271523178808	-0.90394701986755	0.287417218543046	0.986490066225167	5.95973509933775				0.272529801324503	-0.128529801324503	-0.933721854304636	-0.0370860927152318	8.5835761589404	4.14437086092715				0.964026490066225	0.0834966887417219	0.0699337748344371	-8.7282119205298	3.13192052980133	0.502516556291392				0.271788079470199	-0.222834437086093	-0.884238410596026	1.42039735099338	10.7976158940397	4.84529801324503			
34	680	-0.216158940397351	0.146754966887417	-0.935523178807947	-9.20662251655629	2.3753642384106	9.45509933774835				0.992953642384106	0.0797880794701987	-0.0828609271523179	-1.80609271523179	10.1078145695364	2.77403973509934				-0.202172185430464	-0.113271523178808	-0.90394701986755	2.24741721854305	0.986490066225167	6.51973509933775				0.256529801324503	-0.128529801324503	-0.933721854304636	-2.83708609271523	8.0235761589404	2.74437086092715				0.948026490066225	0.0994966887417219	0.0859337748344371	-8.7282119205298	2.85192052980133	-0.617483443708608				0.271788079470199	-0.190834437086093	-0.900238410596026	0.0203973509933773	11.3576158940397	5.68529801324503			
35	700	-0.184158940397351	0.178754966887417	-0.983523178807947	-9.20662251655629	2.6553642384106	10.5750993377483				0.992953642384106	0.0477880794701987	-0.0508609271523178	-2.92609271523179	14.3078145695364	2.77403973509934				-0.170172185430464	-0.145271523178808	-0.88794701986755	5.04741721854305	1.82649006622517	5.11973509933775				0.272529801324503	-0.112529801324503	-0.933721854304636	-3.39708609271523	8.0235761589404	1.90437086092715				0.964026490066225	0.115496688741722	0.0859337748344371	-7.8882119205298	5.37192052980133	-0.897483443708608				0.239788079470199	-0.174834437086093	-0.900238410596026	1.42039735099338	12.7576158940397	6.80529801324503			
36	720	-0.120158940397351	0.194754966887417	-0.951523178807947	-11.4466225165563	0.415364238410596	11.6950993377483				0.928953642384106	0.0637880794701987	-0.0668609271523178	-3.76609271523179	12.6278145695364	3.89403973509934				-0.154172185430464	-0.145271523178808	-0.87194701986755	3.92741721854305	1.26649006622517	3.15973509933775				0.272529801324503	-0.112529801324503	-0.949721854304636	-3.95708609271523	11.3835761589404	-0.0556291390728476				0.964026490066225	0.115496688741722	0.0699337748344371	-5.9282119205298	9.29192052980133	-0.337483443708608				0.239788079470199	-0.174834437086093	-0.916238410596027	4.50039735099338	13.5976158940397	7.36529801324503			
37	740	-0.136158940397351	0.178754966887417	-0.951523178807947	-8.64662251655629	-0.704635761589404	8.33509933774834				0.944953642384106	0.0957880794701987	-0.0508609271523178	0.153907284768212	18.2278145695364	3.61403973509934				-0.202172185430464	-0.129271523178808	-0.88794701986755	0.567417218543046	0.706490066225167	2.03973509933775				0.272529801324503	-0.112529801324503	-0.933721854304636	-3.95708609271523	14.7435761589404	-1.45562913907285				0.980026490066225	0.0994966887417219	0.0539337748344371	-4.8082119205298	9.57192052980133	-1.17748344370861				0.239788079470199	-0.190834437086093	-0.900238410596026	7.02039735099338	13.8776158940397	7.36529801324503			
38	760	-0.184158940397351	0.210754966887417	-0.935523178807947	-6.12662251655629	-0.424635761589404	8.61509933774835				1.04095364238411	0.0957880794701987	-0.0188609271523178	6.03390728476821	18.2278145695364	3.05403973509934				-0.218172185430464	-0.129271523178808	-0.90394701986755	3.92741721854305	-0.693509933774834	0.91973509933775				0.272529801324503	-0.112529801324503	-0.933721854304636	-3.95708609271523	16.7035761589404	-3.41562913907285				0.964026490066225	0.115496688741722	0.0539337748344371	-3.6882119205298	7.61192052980133	-0.0574834437086077				0.239788079470199	-0.174834437086093	-0.900238410596026	3.94039735099338	14.1576158940397	7.64529801324503			
39	780	-0.216158940397351	0.194754966887417	-0.887523178807947	-4.16662251655629	1.2553642384106	8.89509933774834				1.00895364238411	0.0477880794701987	-0.00286092715231785	3.51390728476821	-16.7721854304636	4.73403973509934				-0.218172185430464	-0.129271523178808	-0.88794701986755	9.24741721854305	-0.693509933774834	-0.20026490066225				0.256529801324503	-0.0965298013245033	-0.917721854304636	-3.39708609271523	19.5035761589404	-5.37562913907285				0.932026490066225	0.131496688741722	0.0539337748344371	0.791788079470198	11.8119205298013	1.06251655629139				0.239788079470199	-0.174834437086093	-0.916238410596027	2.82039735099338	17.7976158940397	9.04529801324503			
40	800	-0.232158940397351	0.194754966887417	-0.919523178807947	-3.88662251655629	2.3753642384106	9.17509933774834				0.896953642384106	0.0797880794701987	-0.0828609271523179	4.35390728476821	3.66781456953642	4.17403973509934				-0.234172185430464	-0.129271523178808	-0.87194701986755	12.327417218543	1.26649006622517	0.0797350993377501				0.240529801324503	-0.0965298013245033	-0.917721854304636	-3.39708609271523	20.3435761589404	-7.05562913907285				0.932026490066225	0.0994966887417219	0.0379337748344371	2.7517880794702	11.2519205298013	0.782516556291392				0.223788079470199	-0.142834437086093	-0.916238410596027	8.70039735099338	19.4776158940397	11.845298013245			
41	820	-0.216158940397351	0.178754966887417	-0.903523178807947	-6.96662251655629	0.695364238410596	9.73509933774834				0.960953642384106	0.0797880794701987	-0.0828609271523179	3.51390728476821	20.7478145695364	3.89403973509934				-0.234172185430464	-0.129271523178808	-0.88794701986755	11.767417218543	-0.133509933774833	0.91973509933775				0.240529801324503	-0.128529801324503	-0.933721854304636	-4.79708609271523	21.4635761589404	-10.1356291390728				0.916026490066225	0.0994966887417219	0.0539337748344371	3.5917880794702	19.0919205298013	-1.45748344370861				0.223788079470199	-0.158834437086093	-0.900238410596026	12.6203973509934	18.3576158940397	14.085298013245			
42	840	-0.200158940397351	0.178754966887417	-0.919523178807947	-7.80662251655629	0.135364238410596	10.8550993377483				0.960953642384106	0.111788079470199	-0.0508609271523178	4.35390728476821	19.3478145695364	4.17403973509934				-0.218172185430464	-0.161271523178808	-0.87194701986755	11.487417218543	0.706490066225167	0.91973509933775				0.240529801324503	-0.112529801324503	-0.949721854304636	-7.31708609271523	22.3035761589404	-12.9356291390728				0.932026490066225	0.115496688741722	0.0379337748344371	3.8717880794702	21.6119205298013	-1.45748344370861				0.271788079470199	-0.174834437086093	-0.900238410596026	10.6603973509934	15.2776158940397	18.005298013245			
43	860	-0.232158940397351	0.178754966887417	-0.903523178807947	-8.08662251655629	1.8153642384106	10.2950993377483				0.944953642384106	0.0477880794701987	-0.0668609271523178	6.03390728476821	20.1878145695364	8.09403973509934				-0.234172185430464	-0.145271523178808	-0.87194701986755	12.047417218543	0.426490066225167	-0.48026490066225				0.224529801324503	-0.0965298013245033	-0.949721854304636	-8.15708609271523	22.3035761589404	-13.7756291390728				0.964026490066225	0.0994966887417219	0.0539337748344371	5.8317880794702	24.1319205298013	-2.57748344370861				0.271788079470199	-0.190834437086093	-0.884238410596026	8.42039735099338	16.1176158940397	18.845298013245			
44	880	-0.264158940397351	0.194754966887417	-0.903523178807947	-11.1666225165563	2.6553642384106	10.5750993377483				0.976953642384106	0.0477880794701987	-0.0828609271523179	-0.126092715231788	31.1078145695364	7.25403973509934				-0.250172185430464	-0.145271523178808	-0.88794701986755	14.567417218543	1.82649006622517	-1.88026490066225				0.240529801324503	-0.112529801324503	-0.933721854304636	-7.03708609271523	23.1435761589404	-14.8956291390728				0.964026490066225	0.0674966887417219	0.0539337748344371	6.9517880794702	22.7319205298013	-0.897483443708608				0.271788079470199	-0.174834437086093	-0.900238410596026	8.14039735099338	21.9976158940397	18.005298013245			
45	900	-0.264158940397351	0.226754966887417	-0.935523178807947	-15.3666225165563	2.6553642384106	9.17509933774834				0.976953642384106	0.0797880794701987	-0.0348609271523178	-5.44609271523179	47.6278145695364	5.01403973509934				-0.234172185430464	-0.161271523178808	-0.91994701986755	17.087417218543	0.986490066225167	-2.72026490066225				0.240529801324503	-0.112529801324503	-0.933721854304636	-4.23708609271523	24.8235761589404	-15.1756291390728				0.980026490066225	0.0674966887417219	0.0699337748344371	3.8717880794702	24.6919205298013	-0.617483443708608				0.303788079470199	-0.158834437086093	-0.916238410596027	14.0203973509934	27.0376158940397	14.925298013245			
46	920	-0.136158940397351	0.258754966887417	-0.983523178807947	-16.2066225165563	4.8953642384106	8.33509933774834				0.960953642384106	0.0637880794701987	0.0291390728476822	-3.48609271523179	56.5878145695364	9.21403973509934				-0.218172185430464	-0.145271523178808	-0.88794701986755	17.3674172185431	4.06649006622517	-2.72026490066225				0.240529801324503	-0.128529801324503	-0.949721854304636	-2.27708609271523	26.5035761589404	-16.5756291390728				0.964026490066225	0.0994966887417219	0.0859337748344371	1.3517880794702	24.9719205298013	-1.73748344370861				0.319788079470199	-0.174834437086093	-0.868238410596026	15.7003973509934	26.7576158940397	15.205298013245			
47	940	-0.104158940397351	0.274754966887417	-0.983523178807947	-17.3266225165563	5.7353642384106	9.45509933774835				0.944953642384106	0.0797880794701987	-0.0348609271523178	-0.966092715231788	59.3878145695364	8.93403973509934				-0.170172185430464	-0.145271523178808	-0.88794701986755	16.5274172185431	3.78649006622517	-2.44026490066225				0.240529801324503	-0.128529801324503	-0.965721854304636	-3.95708609271523	28.7435761589404	-16.8556291390729				0.916026490066225	0.115496688741722	0.117933774834437	1.0717880794702	28.8919205298013	-4.25748344370861				0.335788079470199	-0.206834437086093	-0.884238410596026	19.3403973509934	26.4776158940397	14.645298013245			
48	960	-0.184158940397351	0.290754966887417	-0.967523178807947	-12.0066225165563	7.1353642384106	7.21509933774835				0	0	0	0	0	0				-0.170172185430464	-0.177271523178808	-0.88794701986755	19.607417218543	5.46649006622517	-3.28026490066225				0	0	0	0	0	0				0.980026490066225	0.0834966887417219	0.165933774834437	1.6317880794702	34.7719205298013	-4.81748344370861				0.367788079470199	-0.254834437086093	-0.884238410596026	26.0603973509934	27.3176158940397	13.525298013245			
49	980	-0.200158940397351	0.322754966887417	-0.999523178807947	-11.1666225165563	9.0953642384106	2.73509933774834				0.944953642384106	0.0637880794701987	0.0931390728476822	-10.4860927152318	65.8278145695364	3.89403973509934				-0.218172185430464	-0.177271523178808	-0.91994701986755	21.8474172185431	6.86649006622517	-3.56026490066225				0.352529801324503	-0.0645298013245033	-0.917721854304636	-8.71708609271523	26.7835761589404	-12.6556291390728				1.02802649006623	0.0994966887417219	0.165933774834437	-2.2882119205298	32.5319205298013	-2.57748344370861				0.399788079470199	-0.286834437086093	-0.900238410596026	26.9003973509934	24.7976158940397	12.405298013245			
50	1000	-0.184158940397351	0.306754966887417	-0.951523178807947	-5.84662251655629	11.8953642384106	3.85509933774834				0.960953642384106	0.0957880794701987	0.109139072847682	-6.84609271523179	80.6678145695364	5.57403973509934				-0.266172185430464	-0.225271523178808	-0.88794701986755	22.967417218543	8.26649006622517	-4.40026490066225				0.384529801324503	-0.0485298013245033	-0.917721854304636	-5.35708609271523	28.4635761589404	-10.4156291390728				0.964026490066225	0.131496688741722	0.133933774834437	-5.9282119205298	25.8119205298013	-0.897483443708608				0.431788079470199	-0.254834437086093	-0.900238410596026	22.7003973509934	24.2376158940397	13.805298013245			
51	1020	-0.200158940397351	0.258754966887417	-0.967523178807947	-5.00662251655629	17.4953642384106	3.85509933774834				0.992953642384106	0.0317880794701987	0.205139072847682	-6.84609271523179	95.2278145695364	7.81403973509934				-0.282172185430464	-0.257271523178808	-0.91994701986755	26.0474172185431	8.26649006622517	-3.84026490066225				0.352529801324503	-0.0645298013245033	-0.885721854304636	-6.75708609271523	26.7835761589404	-9.85562913907285				0.884026490066225	0.147496688741722	0.149933774834437	-1.1682119205298	28.3319205298013	1.34251655629139				0.399788079470199	-0.254834437086093	-0.852238410596026	29.9803973509934	18.0776158940397	16.885298013245			
52	1040	-0.168158940397351	0.162754966887417	-0.967523178807947	-17.8866225165563	21.9753642384106	2.17509933774834				1.05695364238411	0.0317880794701987	0.237139072847682	-13.2860927152318	91.0278145695364	6.69403973509934				-0.218172185430464	-0.257271523178808	-0.90394701986755	22.407417218543	13.5864900662252	-6.08026490066225				0.352529801324503	-0.0645298013245033	-0.885721854304636	-9.83708609271523	24.2635761589404	-10.4156291390728				0.868026490066225	0.147496688741722	0.197933774834437	2.1917880794702	36.7319205298013	1.06251655629139				0.351788079470199	-0.302834437086093	-0.836238410596026	34.1803973509934	10.7976158940397	23.605298013245			
53	1060	-0.184158940397351	0.242754966887417	-0.935523178807947	-14.2466225165563	14.6953642384106	0.775099337748344				1.00895364238411	0.0157880794701987	0.253139072847682	-12.1660927152318	75.6278145695364	7.25403973509934				-0.170172185430464	-0.257271523178808	-0.90394701986755	15.407417218543	14.9864900662252	-5.80026490066225				0.384529801324503	-0.0485298013245033	-0.901721854304636	-13.1970860927152	22.5835761589404	-11.5356291390728				0.916026490066225	0.131496688741722	0.277933774834437	2.1917880794702	45.4119205298013	-1.45748344370861				0.351788079470199	-0.350834437086093	-0.804238410596027	27.4603973509934	9.11761589403974	32.565298013245			
54	1080	-0.184158940397351	0.258754966887417	-0.919523178807947	-11.4466225165563	18.8953642384106	-0.0649006622516557				0.928953642384106	0.111788079470199	0.237139072847682	1.55390728476821	66.1078145695364	6.41403973509934				-0.154172185430464	-0.209271523178808	-0.90394701986755	15.687417218543	14.9864900662252	-8.04026490066225				0.464529801324503	-0.0325298013245033	-0.901721854304636	-14.0370860927152	22.5835761589404	-10.4156291390728				0.996026490066225	0.115496688741722	0.293933774834437	-1.7282119205298	44.5719205298013	-2.01748344370861				0.399788079470199	-0.350834437086093	-0.820238410596026	18.2203973509934	13.8776158940397	35.085298013245			
55	1100	-0.152158940397351	0.226754966887417	-0.983523178807947	-14.5266225165563	29.2553642384106	3.29509933774834				0.960953642384106	0.0317880794701987	0.269139072847682	11.6339072847682	80.3878145695364	8.37403973509934				-0.186172185430464	-0.241271523178808	-0.88794701986755	4.76741721854305	16.1064900662252	-5.24026490066225				0.496529801324503	-0.0325298013245033	-0.869721854304636	-15.4370860927152	22.3035761589404	-7.61562913907285				0.980026490066225	0.0994966887417219	0.245933774834437	-0.608211920529802	38.1319205298013	0.782516556291392				0.447788079470199	-0.350834437086093	-0.804238410596027	25.7803973509934	10.2376158940397	31.445298013245			
56	1120	-0.216158940397351	0.290754966887417	-1.04752317880795	-13.1266225165563	28.6953642384106	4.97509933774835				1.00895364238411	-0.0322119205298013	0.365139072847682	0.153907284768212	90.4678145695364	5.57403973509934				-0.186172185430464	-0.257271523178808	-0.93594701986755	11.207417218543	18.6264900662252	-6.08026490066225				0.480529801324503	-0.0165298013245033	-0.869721854304636	-15.9970860927152	17.5435761589404	-6.21562913907285				0.932026490066225	0.115496688741722	0.293933774834437	1.6317880794702	38.4119205298013	1.34251655629139				0.431788079470199	-0.382834437086093	-0.772238410596026	20.7403973509934	10.7976158940397	27.805298013245			
57	1140	-0.248158940397351	0.322754966887417	-0.967523178807947	-15.9266225165563	31.7753642384106	3.01509933774834				1.05695364238411	-0.128211920529801	0.541139072847682	-20.8460927152318	98.3078145695364	3.89403973509934				-0.138172185430464	-0.321271523178808	-0.93594701986755	11.767417218543	21.9864900662252	-6.64026490066225				0.480529801324503	-0.000529801324503289	-0.853721854304636	-12.0770860927152	16.7035761589404	-3.97562913907285				0.948026490066225	0.147496688741722	0.405933774834437	4.4317880794702	42.3319205298013	1.62251655629139				0.399788079470199	-0.398834437086093	-0.788238410596027	23.5403973509934	19.4776158940397	25.565298013245			
58	1160	-0.040158940397351	0.242754966887417	-0.919523178807947	-3.04662251655629	37.0953642384106	2.45509933774835				1.08895364238411	-0.0482119205298013	0.669139072847682	-20.8460927152318	98.8678145695364	3.61403973509934				-0.186172185430464	-0.321271523178808	-0.93594701986755	4.20741721854305	25.3464900662252	-9.44026490066225				0.544529801324503	-0.0485298013245033	-0.901721854304636	-7.03708609271523	23.9835761589404	-5.65562913907285				0.932026490066225	0.0674966887417219	0.485933774834437	6.6717880794702	47.6519205298013	1.62251655629139				0.399788079470199	-0.462834437086093	-0.772238410596026	31.9403973509934	27.3176158940397	25.565298013245			
59	1180	0.007841059602649	0.146754966887417	-1.07952317880795	-5.56662251655629	37.0953642384106	3.57509933774835				1.02495364238411	0.0957880794701987	0.653139072847682	2.67390728476821	78.7078145695364	-0.0259602649006601				-0.154172185430464	-0.241271523178808	-0.91994701986755	-2.79258278145695	30.1064900662252	-10.8402649006623				0.576529801324503	-0.0485298013245033	-0.901721854304636	-14.0370860927152	30.7035761589404	-7.33562913907285				0.948026490066225	0.0194966887417219	0.533933774834437	4.4317880794702	56.6119205298013	-0.337483443708608				0.479788079470199	-0.494834437086093	-0.708238410596026	20.4603973509934	35.1576158940397	24.445298013245			
60	1200	0.039841059602649	0.226754966887417	-1.06352317880795	-15.0866225165563	35.1353642384106	6.09509933774834				0.880953642384106	0.111788079470199	0.557139072847682	16.1139072847682	75.6278145695364	-1.42596026490066				-0.106172185430464	-0.209271523178808	-0.95194701986755	4.48741721854305	32.6264900662252	-15.0402649006623				0.624529801324503	0.0154701986754967	-0.853721854304636	-20.4770860927152	32.6635761589404	-4.81562913907285				0.964026490066225	0.115496688741722	0.501933774834437	-2.0082119205298	57.7319205298013	-3.13748344370861				0.527788079470199	-0.494834437086093	-0.708238410596026	13.7403973509934	32.9176158940397	18.005298013245			
61	1220	0.007841059602649	0.274754966887417	-0.983523178807947	-4.44662251655629	38.7753642384106	6.65509933774834				0.912953642384106	0.0317880794701987	0.653139072847682	18.0739072847682	90.1878145695364	4.45403973509934				-0.0581721854304636	-0.241271523178808	-0.93594701986755	12.607417218543	35.7064900662252	-20.0802649006623				0.704529801324503	0.0634701986754967	-0.853721854304636	-17.1170860927152	31.2635761589404	-2.57562913907285				0.900026490066225	0.211496688741722	0.549933774834437	2.7517880794702	56.6119205298013	-4.25748344370861				0.511788079470199	-0.494834437086093	-0.676238410596026	19.0603973509934	34.3176158940397	8.48529801324503			
62	1240	-0.024158940397351	0.194754966887417	-0.919523178807947	-6.40662251655629	41.5753642384106	6.09509933774834				0.992953642384106	-0.0642119205298013	0.717139072847682	20.5939072847682	71.4278145695364	12.8540397350993				-0.0421721854304636	-0.289271523178808	-0.90394701986755	6.16741721854305	32.6264900662252	-22.6002649006623				0.784529801324503	0.0634701986754967	-0.853721854304636	-12.3570860927152	29.0235761589404	-3.69562913907285				0.836026490066225	0.227496688741722	0.549933774834437	5.5517880794702	47.9319205298013	-5.37748344370861				0.543788079470199	-0.510834437086093	-0.660238410596027	24.9403973509934	41.0376158940397	1.76529801324503			
63	1260	0.039841059602649	0.274754966887417	-0.951523178807947	-17.6066225165563	43.5353642384106	9.73509933774834				0.912953642384106	0.0637880794701987	0.605139072847682	26.7539072847682	37.5478145695364	12.0140397350993				-0.0421721854304636	-0.225271523178808	-0.88794701986755	3.64741721854305	38.7864900662252	-25.4002649006623				0.816529801324503	0.0954701986754967	-0.837721854304636	-17.3970860927152	27.9035761589404	-7.61562913907285				0.900026490066225	0.195496688741722	0.613933774834437	15.3517880794702	59.1319205298013	-8.45748344370861				0.543788079470199	-0.542834437086093	-0.660238410596027	36.1403973509934	40.4776158940397	0.365298013245032			
64	1280	-0.024158940397351	0.322754966887417	-1.01552317880795	-17.3266225165563	45.2153642384106	12.5350993377483				0.864953642384106	0.0797880794701987	0.669139072847682	27.0339072847682	33.9078145695364	11.1740397350993				-0.0101721854304636	-0.209271523178808	-0.93594701986755	3.36741721854305	39.3464900662252	-25.6802649006623				0.800529801324503	0.111470198675497	-0.837721854304636	-21.5970860927152	27.3435761589404	-10.6956291390728				0.948026490066225	0.131496688741722	0.693933774834437	15.0717880794702	52.6919205298013	-10.1374834437086				0.543788079470199	-0.574834437086093	-0.660238410596027	31.9403973509934	40.7576158940397	-4.11470198675497			
65	1300	-0.088158940397351	0.322754966887417	-0.919523178807947	-13.9666225165563	44.9353642384106	13.6550993377483				0.880953642384106	0.0157880794701987	0.669139072847682	17.7939072847682	40.3478145695364	10.8940397350993				0.00582781456953642	-0.209271523178808	-0.95194701986755	1.40741721854305	38.5064900662252	-28.4802649006623				0.784529801324503	0.111470198675497	-0.805721854304636	-24.6770860927152	25.6635761589404	-13.4956291390728				0.884026490066225	0.163496688741722	0.629933774834437	7.7917880794702	34.2119205298013	-10.4174834437086				0.543788079470199	-0.590834437086093	-0.644238410596026	18.5003973509934	40.4776158940397	-8.31470198675497			
66	1320	-0.072158940397351	0.338754966887417	-0.887523178807947	-6.96662251655629	42.1353642384106	16.7350993377483				0.928953642384106	0.0477880794701987	0.701139072847682	12.7539072847682	38.6678145695364	7.25403973509934				0.0378278145695364	-0.161271523178808	-0.95194701986755	5.88741721854305	41.3064900662252	-27.6402649006623				0.752529801324503	0.111470198675497	-0.805721854304636	-24.3970860927152	23.4235761589404	-18.5356291390728				0.820026490066225	0.163496688741722	0.629933774834437	15.0717880794702	31.9719205298013	-13.2174834437086				0.543788079470199	-0.590834437086093	-0.548238410596027	26.0603973509934	30.1176158940397	-10.834701986755			
67	1340	-0.008158940397351	0.226754966887417	-0.983523178807947	-1.64662251655629	44.0953642384106	23.7350993377483				0.944953642384106	0.0957880794701987	0.717139072847682	8.55390728476821	26.9078145695364	1.09403973509934				0.0378278145695364	-0.209271523178808	-0.91994701986755	11.207417218543	43.8264900662252	-24.2802649006623				0.688529801324503	0.111470198675497	-0.869721854304636	-24.3970860927152	24.2635761589404	-23.5756291390728				0.868026490066225	0.179496688741722	0.709933774834437	16.7517880794702	38.6919205298013	-18.8174834437086				0.559788079470199	-0.622834437086093	-0.628238410596026	14.3003973509934	23.3976158940397	-10.554701986755			
68	1360	0.023841059602649	0.306754966887417	-0.983523178807947	-8.36662251655629	47.1753642384106	31.2950993377483				0.944953642384106	0.111788079470199	0.637139072847682	13.0339072847682	7.58781456953643	-1.98596026490066				0.0858278145695364	-0.225271523178808	-0.85594701986755	14.567417218543	47.1864900662252	-19.2402649006623				0.624529801324503	0.0794701986754967	-0.901721854304636	-18.7970860927152	23.9835761589404	-23.0156291390729				0.964026490066225	0.163496688741722	0.645933774834437	15.9117880794702	30.0119205298013	-22.1774834437086				0.623788079470199	-0.606834437086093	-0.676238410596026	7.58039735099338	26.7576158940397	-7.47470198675497			
69	1380	-0.008158940397351	0.434754966887417	-0.903523178807947	-6.68662251655629	46.0553642384106	37.1750993377484				0.944953642384106	0.0157880794701987	0.621139072847682	15.8339072847682	5.34781456953642	-3.66596026490066				0.101827814569536	-0.289271523178808	-0.96794701986755	18.767417218543	49.7064900662252	-14.2002649006623				0.672529801324503	0.0634701986754967	-0.917721854304636	-16.8370860927152	23.4235761589404	-21.0556291390728				0.932026490066225	0.195496688741722	0.597933774834437	11.4317880794702	28.3319205298013	-24.6974834437086				0.687788079470199	-0.526834437086093	-0.708238410596026	-4.17960264900662	23.9576158940397	-9.99470198675497			
70	1400	0.039841059602649	0.370754966887417	-1.01552317880795	-0.806622516556291	49.4153642384106	42.7750993377484				0.928953642384106	0.0637880794701987	0.685139072847682	6.59390728476821	11.7878145695364	-12.6259602649007				0.133827814569536	-0.337271523178808	-0.91994701986755	13.447417218543	52.5064900662252	-6.92026490066225				0.640529801324503	0.111470198675497	-0.917721854304636	-21.5970860927152	20.9035761589404	-18.5356291390728				0.948026490066225	0.211496688741722	0.613933774834437	7.2317880794702	24.9719205298013	-25.5374834437086				0.671788079470199	-0.526834437086093	-0.660238410596027	8.14039735099338	19.7576158940397	-19.514701986755			
71	1420	0.039841059602649	0.418754966887417	-0.951523178807947	-2.48662251655629	54.7353642384106	42.7750993377484				0.992953642384106	-0.000211920529801304	0.717139072847682	8.55390728476821	11.2278145695364	-12.0659602649007				0.133827814569536	-0.305271523178808	-0.90394701986755	16.247417218543	56.4264900662252	-1.32026490066225				0.592529801324503	0.111470198675497	-0.917721854304636	-26.3570860927152	17.8235761589404	-16.2956291390729				0.948026490066225	0.195496688741722	0.581933774834437	7.5117880794702	22.1719205298013	-25.5374834437086				0.607788079470199	-0.542834437086093	-0.660238410596027	0.300397350993377	25.0776158940397	-24.834701986755			
72	1440	0.039841059602649	0.386754966887417	-0.919523178807947	0.593377483443709	59.2153642384106	43.0550993377484				0.992953642384106	0.0317880794701987	0.637139072847682	6.87390728476821	5.34781456953642	-15.9859602649007				0.0858278145695364	-0.321271523178808	-0.91994701986755	19.607417218543	59.7864900662252	2.59973509933775				0.576529801324503	0.111470198675497	-0.869721854304636	-29.1570860927152	18.1035761589404	-14.8956291390728				0.916026490066225	0.211496688741722	0.597933774834437	7.2317880794702	21.8919205298013	-26.0974834437086				0.623788079470199	-0.542834437086093	-0.644238410596026	-6.13960264900662	32.3576158940397	-23.154701986755			
73	1460	0.119841059602649	0.338754966887417	-0.983523178807947	8.15337748344371	64.2553642384106	46.4150993377484				0.976953642384106	0.159788079470199	0.621139072847682	9.95390728476821	-5.01218543046358	-22.4259602649007				0.0538278145695364	-0.305271523178808	-0.88794701986755	14.287417218543	63.9864900662252	9.87973509933775				0.592529801324503	0.159470198675497	-0.821721854304636	-31.6770860927152	21.7435761589404	-12.9356291390728				0.916026490066225	0.195496688741722	0.645933774834437	4.4317880794702	22.7319205298013	-27.7774834437086				0.671788079470199	-0.574834437086093	-0.644238410596026	-14.5396026490066	35.9976158940397	-21.194701986755			
74	1480	0.215841059602649	0.386754966887417	-0.983523178807947	10.1133774834437	60.3353642384106	46.1350993377484				0.944953642384106	0.159788079470199	0.701139072847682	20.0339072847682	1.98781456953642	-23.5459602649007				0.149827814569536	-0.305271523178808	-0.95194701986755	7.84741721854305	67.9064900662252	14.3597350993378				0.592529801324503	0.159470198675497	-0.821721854304636	-28.3170860927152	27.6235761589404	-10.1356291390728				0.916026490066225	0.243496688741722	0.629933774834437	-4.2482119205298	19.9319205298013	-27.7774834437086				0.719788079470199	-0.558834437086093	-0.676238410596026	-22.9396026490066	40.1976158940397	-22.874701986755			
75	1500	0.231841059602649	0.402754966887417	-0.903523178807947	16.8333774834437	69.2953642384106	43.8950993377483				0.976953642384106	0.0957880794701987	0.701139072847682	17.5139072847682	10.1078145695364	-24.3859602649007				0.117827814569536	-0.241271523178808	-0.98394701986755	-1.11258278145695	68.4664900662252	10.7197350993378				0.608529801324503	0.143470198675497	-0.837721854304636	-19.0770860927152	35.1835761589404	-8.45562913907285				0.948026490066225	0.259496688741722	0.581933774834437	-9.2882119205298	20.2119205298013	-29.1774834437086				0.767788079470199	-0.494834437086093	-0.708238410596026	-29.9396026490066	44.1176158940397	-23.154701986755			
76	1520	0.247841059602649	0.258754966887417	-0.999523178807947	28.5933774834437	76.0153642384106	41.3750993377484				0.992953642384106	0.0157880794701987	0.733139072847682	13.8739072847682	8.42781456953642	-21.3059602649007				0.0858278145695364	-0.145271523178808	-0.95194701986755	8.68741721854305	74.0664900662252	-0.76026490066225				0.672529801324503	0.191470198675497	-0.821721854304636	-14.5970860927152	39.1035761589404	-5.09562913907285				0.948026490066225	0.259496688741722	0.597933774834437	-1.1682119205298	25.5319205298013	-28.6174834437086				0.767788079470199	-0.494834437086093	-0.724238410596026	-24.0596026490066	48.3176158940397	-21.194701986755			
77	1540	0.247841059602649	0.146754966887417	-0.967523178807947	28.0333774834437	77.9753642384106	39.9750993377484				1.05695364238411	0.0957880794701987	0.621139072847682	11.3539072847682	8.42781456953642	-24.6659602649007				0.0378278145695364	-0.129271523178808	-0.93594701986755	16.807417218543	79.6664900662252	-13.6402649006623				0.736529801324503	0.207470198675497	-0.821721854304636	-8.99708609271523	40.5035761589404	-0.0556291390728476				0.932026490066225	0.227496688741722	0.741933774834437	-9.2882119205298	14.0519205298013	-26.6574834437086				0.751788079470199	-0.526834437086093	-0.772238410596026	-8.37960264900662	51.6776158940397	-26.514701986755			
78	1560	0.183841059602649	0.274754966887417	-0.919523178807947	24.9533774834437	86.9353642384106	41.0950993377484				1.00895364238411	0.159788079470199	0.605139072847682	19.4739072847682	-0.532185430463576	-23.2659602649007				0.0698278145695364	-0.209271523178808	-0.88794701986755	31.087417218543	84.1464900662252	-21.7602649006623				0.768529801324503	0.223470198675497	-0.821721854304636	-4.51708609271523	44.7035761589404	4.98437086092715				0.948026490066225	0.275496688741722	0.741933774834437	-16.8482119205298	4.81192052980133	-24.1374834437086				0.799788079470199	-0.510834437086093	-0.788238410596027	-1.65960264900662	47.7576158940397	-25.954701986755			
79	1580	0.263841059602649	0.354754966887417	-0.871523178807947	45.6733774834437	80.7753642384106	37.4550993377484				1.02495364238411	0.143788079470199	0.605139072847682	23.1139072847682	-7.53218543046358	-22.7059602649007				0.181827814569536	-0.513271523178808	-0.83994701986755	27.1674172185431	83.8664900662252	-15.3202649006623				0.768529801324503	0.159470198675497	-0.821721854304636	-3.11708609271523	43.3035761589404	9.46437086092715				0.948026490066225	0.323496688741722	0.629933774834437	-15.1682119205298	2.29192052980133	-17.6974834437086				0.831788079470199	-0.558834437086093	-0.772238410596026	-6.69960264900662	39.9176158940397	-18.114701986755			
80	1600	0.279841059602649	0.274754966887417	-0.839523178807947	53.5133774834437	86.9353642384106	32.4150993377484				1.02495364238411	0.0477880794701987	0.701139072847682	14.4339072847682	-3.61218543046358	-20.4659602649007				0.309827814569536	-0.657271523178808	-0.71194701986755	5.60741721854305	89.7464900662252	-0.76026490066225				0.768529801324503	0.175470198675497	-0.789721854304636	-8.15708609271523	38.2635761589404	8.34437086092715				0.916026490066225	0.307496688741722	0.629933774834437	-16.5682119205298	0.891920529801325	-18.8174834437086				0.847788079470199	-0.526834437086093	-0.740238410596026	-38.6196026490066	27.5976158940397	-7.75470198675497			
81	1620	0.343841059602649	0.194754966887417	-0.887523178807947	49.8733774834437	90.8553642384106	23.4550993377483				0.992953642384106	-0.0162119205298013	0.605139072847682	8.83390728476821	-15.3721854304636	-17.3859602649007				0.293827814569536	-0.465271523178808	-0.75994701986755	5.32741721854305	99.8264900662252	-1.32026490066225				0.800529801324503	0.271470198675497	-0.773721854304636	-14.3170860927152	40.2235761589404	6.94437086092715				0.884026490066225	0.275496688741722	0.661933774834437	-21.6082119205298	2.01192052980133	-16.0174834437086				0.751788079470199	-0.430834437086093	-0.692238410596026	-37.2196026490066	19.1976158940397	-2.15470198675497			
82	1640	0.359841059602649	0.130754966887417	-0.919523178807947	38.6733774834437	91.6953642384106	17.5750993377483				0.944953642384106	0.0477880794701987	0.493139072847682	9.11390728476821	-13.6921854304636	-12.6259602649007				0.197827814569536	-0.369271523178808	-0.79194701986755	8.40741721854305	98.9864900662252	-5.80026490066225				0.768529801324503	0.287470198675497	-0.661721854304636	-11.7970860927152	38.2635761589404	9.18437086092715				0.916026490066225	0.275496688741722	0.645933774834437	-16.5682119205298	-4.70807947019868	-12.9374834437086				0.719788079470199	-0.366834437086093	-0.708238410596026	-25.7396026490066	25.0776158940397	-9.43470198675497			
83	1660	0.343841059602649	0.146754966887417	-0.871523178807947	39.7933774834437	95.3353642384106	10.0150993377483				0.976953642384106	0.0957880794701987	0.493139072847682	12.7539072847682	0.867814569536424	-5.34596026490066				0.229827814569536	-0.369271523178808	-0.79194701986755	11.767417218543	97.5864900662252	-6.36026490066225				0.784529801324503	0.239470198675497	-0.629721854304636	4.72291390728477	34.9035761589404	8.90437086092715				0.884026490066225	0.291496688741722	0.581933774834437	-14.0482119205298	-11.1480794701987	-5.93748344370861				0.735788079470199	-0.350834437086093	-0.740238410596026	-15.3796026490066	30.1176158940397	-12.794701986755			
84	1680	0.343841059602649	0.162754966887417	-0.839523178807947	50.4333774834437	93.3753642384106	2.73509933774834				0.992953642384106	0.159788079470199	0.621139072847682	8.27390728476821	1.42781456953642	-7.30596026490066				0.293827814569536	-0.401271523178808	-0.79194701986755	0.00741721854304636	93.6664900662252	-2.72026490066225				0.768529801324503	0.191470198675497	-0.629721854304636	13.1229139072848	31.8235761589404	11.1443708609272				0.820026490066225	0.275496688741722	0.613933774834437	-9.8482119205298	-11.1480794701987	-0.897483443708608				0.719788079470199	-0.414834437086093	-0.692238410596026	-10.0596026490066	30.1176158940397	-4.95470198675497			
85	1700	0.359841059602649	0.0507549668874172	-0.743523178807947	41.1933774834437	94.7753642384106	-0.344900662251656				1.00895364238411	0.0957880794701987	0.621139072847682	2.95390728476821	-5.85218543046358	-6.46596026490066				0.325827814569536	-0.449271523178808	-0.74394701986755	-4.47258278145695	95.3464900662252	2.31973509933775				0.784529801324503	0.159470198675497	-0.677721854304636	17.0429139072848	29.3035761589404	14.2243708609272				0.820026490066225	0.243496688741722	0.677933774834437	-6.7682119205298	-8.34807947019868	1.90251655629139				0.703788079470199	-0.430834437086093	-0.628238410596026	-13.6996026490066	24.5176158940397	1.76529801324503			
86	1720	0.487841059602649	0.0187549668874172	-0.791523178807947	45.9533774834437	98.1353642384106	-5.10490066225166				0.944953642384106	0.0317880794701987	0.525139072847682	0.433907284768212	-17.3321854304636	-5.62596026490066				0.389827814569536	-0.417271523178808	-0.74394701986755	3.36741721854305	97.3064900662252	0.63973509933775				0.832529801324503	0.127470198675497	-0.677721854304636	20.4029139072848	32.3835761589404	15.3443708609272				0.868026490066225	0.195496688741722	0.709933774834437	-3.4082119205298	-9.18807947019868	3.02251655629139				0.735788079470199	-0.510834437086093	-0.612238410596026	-13.1396026490066	16.6776158940397	2.88529801324503			
87	1740	0.567841059602649	-0.0772450331125828	-0.743523178807947	40.0733774834437	99.5353642384106	-7.62490066225166				0.848953642384106	0.0477880794701987	0.493139072847682	9.67390728476821	-18.7321854304636	-4.50596026490066				0.469827814569536	-0.353271523178808	-0.72794701986755	-5.59258278145695	98.1464900662252	-9.16026490066225				0.896529801324503	0.143470198675497	-0.645721854304636	21.5229139072848	35.4635761589404	13.6643708609272				0.884026490066225	0.179496688741722	0.645933774834437	-8.7282119205298	-18.4280794701987	3.86251655629139				0.783788079470199	-0.526834437086093	-0.660238410596027	-11.1796026490066	15.5576158940397	-2.15470198675497			
88	1760	0.599841059602649	-0.0772450331125828	-0.727523178807947	40.3533774834437	100.655364238411	-8.18490066225166				0.848953642384106	0.111788079470199	0.509139072847682	12.4739072847682	-14.2521854304636	-1.14596026490066				0.469827814569536	-0.337271523178808	-0.69594701986755	-2.51258278145695	93.9464900662252	-15.8802649006623				0.912529801324503	0.0954701986754967	-0.565721854304636	19.5629139072848	27.3435761589404	16.4643708609272				0.836026490066225	0.211496688741722	0.597933774834437	-6.4882119205298	-24.8680794701987	7.22251655629139				0.799788079470199	-0.478834437086093	-0.660238410596027	-11.7396026490066	14.1576158940397	-0.474701986754968			
89	1780	0.663841059602649	-0.125245033112583	-0.679523178807947	36.4333774834437	100.095364238411	-10.4249006622517				0.896953642384106	0.0797880794701987	0.621139072847682	8.27390728476821	-12.2921854304636	-0.30596026490066				0.517827814569536	-0.257271523178808	-0.64794701986755	6.72741721854305	95.6264900662252	-24.8402649006623				0.864529801324503	0.111470198675497	-0.597721854304636	15.3629139072848	16.9835761589404	15.9043708609272				0.772026490066225	0.243496688741722	0.613933774834437	-5.3682119205298	-25.9880794701987	10.5825165562914				0.735788079470199	-0.414834437086093	-0.596238410596026	-19.8596026490066	7.71761589403974	9.32529801324503			
90	1800	0.663841059602649	-0.0452450331125828	-0.679523178807947	24.9533774834437	97.0153642384106	-13.7849006622517				0.848953642384106	0.0957880794701987	0.509139072847682	9.67390728476821	-18.7321854304636	1.09403973509934				0.501827814569536	-0.257271523178808	-0.66394701986755	8.68741721854305	92.8264900662252	-29.8802649006623				0.816529801324503	0.143470198675497	-0.549721854304636	15.3629139072848	12.7835761589404	13.6643708609272				0.788026490066225	0.243496688741722	0.645933774834437	2.7517880794702	-24.5880794701987	13.1025165562914				0.687788079470199	-0.414834437086093	-0.564238410596026	-14.2596026490066	-0.962384105960265	11.285298013245			
91	1820	0.647841059602649	0.0507549668874172	-0.631523178807947	20.7533774834437	93.3753642384106	-17.4249006622517				0.864953642384106	0.159788079470199	0.541139072847682	6.59390728476821	-11.1721854304636	3.05403973509934				0.597827814569536	-0.273271523178808	-0.56794701986755	3.08741721854305	97.5864900662252	-32.6802649006623				0.832529801324503	0.127470198675497	-0.517721854304636	20.9629139072848	17.5435761589404	13.1043708609272				0.788026490066225	0.243496688741722	0.645933774834437	-1.7282119205298	-29.6280794701987	13.1025165562914				0.703788079470199	-0.414834437086093	-0.596238410596026	-10.6196026490066	-3.48238410596027	4.84529801324503			
92	1840	0.727841059602649	0.0507549668874172	-0.567523178807947	23.8333774834437	100.375364238411	-23.3049006622517				0.864953642384106	0.0797880794701987	0.637139072847682	6.59390728476821	-17.6121854304636	3.61403973509934				0.709827814569536	-0.225271523178808	-0.51994701986755	3.36741721854305	99.5464900662252	-35.7602649006623				0.816529801324503	0.143470198675497	-0.533721854304636	27.9629139072848	25.1035761589404	9.46437086092715				0.756026490066225	0.195496688741722	0.581933774834437	2.7517880794702	-30.4680794701987	13.3825165562914				0.703788079470199	-0.366834437086093	-0.548238410596027	-20.6996026490066	-10.2023841059603	1.20529801324503			
93	1860	0.775841059602649	0.00275496688741723	-0.519523178807947	25.5133774834437	105.695364238411	-28.3449006622517				0.816953642384106	0.0957880794701987	0.557139072847682	13.8739072847682	-18.1721854304636	3.89403973509934				0.693827814569536	-0.241271523178808	-0.48794701986755	17.647417218543	103.186490066225	-38.8402649006623				0.768529801324503	0.207470198675497	-0.453721854304636	31.3229139072848	31.8235761589404	10.5843708609272				0.740026490066225	0.163496688741722	0.565933774834437	3.0317880794702	-30.1880794701987	15.3425165562914				0.671788079470199	-0.334834437086093	-0.532238410596027	-19.8596026490066	-14.4023841059603	-1.59470198675497			
94	1880	0.791841059602649	-0.0452450331125828	-0.439523178807947	23.5533774834437	113.815364238411	-26.9449006622517				0.768953642384106	0.0797880794701987	0.557139072847682	16.1139072847682	-24.8921854304636	4.17403973509934				0.773827814569536	-0.305271523178808	-0.42394701986755	23.247417218543	103.186490066225	-38.0002649006623				0.704529801324503	0.143470198675497	-0.405721854304636	41.9629139072848	27.6235761589404	11.7043708609272				0.740026490066225	0.227496688741722	0.597933774834437	9.7517880794702	-27.9480794701987	18.7025165562914				0.687788079470199	-0.334834437086093	-0.564238410596026	-15.3796026490066	-13.2823841059603	-9.99470198675497			
95	1900	0.839841059602649	-0.0612450331125828	-0.407523178807947	23.8333774834437	115.775364238411	-24.1449006622517				0.720953642384106	0.159788079470199	0.525139072847682	23.6739072847682	-31.6121854304636	8.65403973509934				0.853827814569536	-0.321271523178808	-0.40794701986755	21.287417218543	103.186490066225	-35.2002649006623				0.656529801324503	0.0634701986754967	-0.421721854304636	49.5229139072848	24.8235761589404	10.0243708609272				0.740026490066225	0.195496688741722	0.533933774834437	6.3917880794702	-28.2280794701987	20.3825165562914				0.639788079470199	-0.334834437086093	-0.548238410596027	-11.1796026490066	-11.8823841059603	-15.874701986755			
96	1920	0.839841059602649	-0.0932450331125828	-0.391523178807947	23.5533774834437	119.695364238411	-22.7449006622517				0.672953642384106	0.127788079470199	0.509139072847682	27.5939072847682	-38.6121854304636	11.1740397350993				0.837827814569536	-0.353271523178808	-0.35994701986755	15.407417218543	100.946490066225	-32.4002649006623				0.672529801324503	0.0314701986754967	-0.405721854304636	52.3229139072848	23.4235761589404	9.18437086092715				0.676026490066225	0.163496688741722	0.501933774834437	1.9117880794702	-32.4280794701987	23.4625165562914				0.543788079470199	-0.318834437086093	-0.468238410596026	-11.4596026490066	-16.3623841059603	-16.154701986755			
97	1940	0.759841059602649	-0.141245033112583	-0.359523178807947	13.4733774834437	124.735364238411	-19.9449006622517				0.672953642384106	0.0157880794701987	0.509139072847682	19.4739072847682	-41.1321854304636	11.1740397350993				0.821827814569536	-0.353271523178808	-0.27994701986755	4.48741721854305	107.386490066225	-29.8802649006623				0.672529801324503	0.0794701986754967	-0.437721854304636	50.0829139072848	14.1835761589404	4.14437086092715				0.628026490066225	0.131496688741722	0.453933774834437	5.2717880794702	-34.1080794701987	24.0225165562914				0.543788079470199	-0.318834437086093	-0.452238410596026	-8.37960264900662	-19.1623841059603	-16.994701986755			
98	1960	0.727841059602649	-0.141245033112583	-0.311523178807947	-1.64662251655629	130.335364238411	-13.5049006622517				0.656953642384106	0.0797880794701987	0.413139072847682	11.3539072847682	-37.7721854304636	7.81403973509934				0	0	0	0	0	0				0.672529801324503	0.111470198675497	-0.421721854304636	51.2029139072848	12.2235761589404	7.22437086092715				0.644026490066225	0.131496688741722	0.453933774834437	6.9517880794702	-33.2680794701987	23.1825165562914				0.559788079470199	-0.286834437086093	-0.452238410596026	-8.09960264900662	-19.4423841059603	-16.994701986755			
99	1980	0	0	0	0	0	0				0.688953642384106	0.0957880794701987	0.365139072847682	10.5139072847682	-27.1321854304636	8.93403973509934				0.757827814569536	-0.289271523178808	-0.24794701986755	-17.632582781457	99.2664900662252	-27.9202649006623				0.736529801324503	0.0154701986754967	-0.421721854304636	52.8829139072848	4.6635761589404	6.94437086092715				0.628026490066225	0.147496688741722	0.437933774834437	14.7917880794702	-36.3480794701987	25.7025165562914				0.575788079470199	-0.270834437086093	-0.468238410596026	-3.05960264900662	-18.6023841059603	-18.114701986755			
100	2000	0.855841059602649	0.00275496688741723	-0.215523178807947	12.6333774834437	145.735364238411	-7.62490066225166				0.592953642384106	0.111788079470199	0.461139072847682	6.31390728476821	-27.6921854304636	9.21403973509934				0.805827814569536	-0.257271523178808	-0.24794701986755	-25.752582781457	94.5064900662252	-25.1202649006623				0.672529801324503	-0.0645298013245033	-0.437721854304636	50.6429139072848	0.1835761589404	4.70437086092715				0.564026490066225	0.0994966887417219	0.405933774834437	15.6317880794702	-38.3080794701987	25.9825165562914				0.575788079470199	-0.254834437086093	-0.420238410596026	-6.69960264900662	-20.8423841059603	-14.754701986755			
101	2020	0.823841059602649	-0.0132450331125828	-0.231523178807947	16.8333774834437	154.695364238411	-1.18490066225166				0.592953642384106	0.111788079470199	0.525139072847682	-4.60609271523179	-35.5321854304636	10.3340397350993				0.837827814569536	-0.209271523178808	-0.18394701986755	-36.112582781457	93.3864900662252	-23.4402649006623				0.592529801324503	-0.0805298013245033	-0.453721854304636	37.4829139072848	-7.0964238410596	-0.615629139072848				0.564026490066225	0.147496688741722	0.373933774834437	7.5117880794702	-38.5880794701987	22.9025165562914				0.479788079470199	-0.254834437086093	-0.372238410596026	-5.29960264900662	-22.5223841059603	-11.114701986755			
102	2040	0.887841059602649	0.0187549668874172	-0.231523178807947	17.1133774834437	149.375364238411	2.45509933774835				0.640953642384106	0.0957880794701987	0.493139072847682	-9.64609271523179	-33.8521854304636	9.21403973509934				0.917827814569536	-0.193271523178808	-0.21594701986755	-40.872582781457	86.9464900662252	-21.4802649006623				0.560529801324503	0.0634701986754967	-0.453721854304636	17.0429139072848	-12.4164238410596	-6.49562913907285				0.596026490066225	0.131496688741722	0.389933774834437	8.9117880794702	-27.6680794701987	20.1025165562914				0.495788079470199	-0.254834437086093	-0.324238410596026	-3.61960264900662	-20.5623841059603	-13.074701986755			
103	2060	0.919841059602649	0.00275496688741723	-0.103523178807947	18.7933774834437	142.095364238411	-1.74490066225166				0.624953642384106	0.127788079470199	0.349139072847682	-4.88609271523179	-26.0121854304636	7.25403973509934				0.981827814569536	-0.177271523178808	-0.23194701986755	-29.672582781457	78.8264900662252	-18.6802649006623				0.560529801324503	0.0474701986754967	-0.405721854304636	24.3229139072848	-13.8164238410596	-2.57562913907285				0.580026490066225	0.131496688741722	0.373933774834437	10.3117880794702	-26.5480794701987	19.5425165562914				0.479788079470199	-0.222834437086093	-0.292238410596026	-2.49960264900662	-20.2823841059603	-16.154701986755			
104	2080	0.807841059602649	0.242754966887417	-0.039523178807947	8.15337748344371	121.375364238411	-4.82490066225166				0.656953642384106	0.159788079470199	0.397139072847682	-7.12609271523179	-25.7321854304636	12.2940397350993				0.949827814569536	-0.129271523178808	-0.18394701986755	-8.11258278145695	72.6664900662252	-19.8002649006623				0.544529801324503	-0.0805298013245033	-0.437721854304636	30.7629139072848	-11.0164238410596	3.30437086092715				0.628026490066225	0.131496688741722	0.373933774834437	11.1517880794702	-29.3480794701987	17.8625165562914				0.511788079470199	-0.238834437086093	-0.356238410596026	-8.65960264900662	-18.6023841059603	-20.914701986755			
105	2100	0.919841059602649	0.354754966887417	-0.039523178807947	10.1133774834437	115.495364238411	-15.7449006622517				0.592953642384106	0.159788079470199	0.589139072847682	-21.4060927152318	-24.8921854304636	15.6540397350993				0.805827814569536	-0.0972715231788079	-0.16794701986755	3.64741721854305	69.0264900662252	-20.3602649006623				0.560529801324503	-0.0805298013245033	-0.501721854304636	20.4029139072848	-5.6964238410596	5.82437086092715				0.612026490066225	0.179496688741722	0.373933774834437	0.231788079470198	-29.9080794701987	12.8225165562914				0.591788079470199	-0.254834437086093	-0.388238410596026	-15.9396026490066	-11.0423841059603	-20.074701986755			
106	2120	0.999841059602649	0.338754966887417	-0.055523178807947	34.4733774834437	107.095364238411	-22.4649006622517				0.528953642384106	0.159788079470199	0.557139072847682	-20.2860927152318	-22.9321854304636	7.53403973509934				0.741827814569536	-0.0972715231788079	-0.10394701986755	-3.07258278145695	61.7464900662252	-19.8002649006623				0.544529801324503	0.0154701986754967	-0.533721854304636	13.9629139072848	-5.4164238410596	4.42437086092715				0.580026490066225	0.163496688741722	0.357933774834437	-4.8082119205298	-26.2680794701987	11.1425165562914				0.559788079470199	-0.254834437086093	-0.388238410596026	-14.5396026490066	-5.72238410596027	-13.634701986755			
107	2140	0.919841059602649	0.258754966887417	-0.055523178807947	48.4733774834437	83.5753642384106	-21.3449006622517				0.688953642384106	0.175788079470199	0.445139072847682	-9.92609271523179	-26.5721854304636	7.53403973509934				0.773827814569536	-0.0972715231788079	-0.0719470198675496	-1.67258278145695	50.5464900662252	-15.6002649006622				0.576529801324503	0.0154701986754967	-0.421721854304636	9.76291390728477	-5.6964238410596	5.54437086092715				0.628026490066225	0.131496688741722	0.373933774834437	-3.4082119205298	-19.8280794701987	11.9825165562914				0.575788079470199	-0.270834437086093	-0.356238410596026	-19.2996026490066	1.55761589403974	-8.87470198675497			
108	2160	0.887841059602649	0.162754966887417	-0.023523178807947	35.3133774834437	67.3353642384106	-15.1849006622517				0.704953642384106	0.175788079470199	0.349139072847682	8.83390728476821	-48.6921854304636	13.4140397350993				0.949827814569536	-0.129271523178808	-0.0559470198675496	-0.832582781456954	46.9064900662252	-10.5602649006623				0.640529801324503	-0.0325298013245033	-0.405721854304636	0.242913907284768	-14.9364238410596	12.5443708609272				0.692026490066225	0.147496688741722	0.389933774834437	-5.3682119205298	-16.7480794701987	11.1425165562914				0.623788079470199	-0.238834437086093	-0.452238410596026	-22.3796026490066	6.87761589403974	-9.99470198675497			
109	2180	0.999841059602649	0.0507549668874172	-0.055523178807947	25.2333774834437	53.8953642384106	-12.9449006622517				0.592953642384106	0.287788079470199	0.509139072847682	-3.48609271523179	-31.6121854304636	5.85403973509934				0.965827814569536	-0.0972715231788079	-0.0239470198675496	3.36741721854305	33.1864900662252	-8.32026490066225				0.656529801324503	-0.0325298013245033	-0.453721854304636	-4.79708609271523	-15.2164238410596	17.5843708609272				0.692026490066225	0.195496688741722	0.357933774834437	-15.4482119205298	-24.8680794701987	11.1425165562914				0.623788079470199	-0.206834437086093	-0.500238410596026	-10.0596026490066	8.27761589403974	-14.474701986755			
110	2200	0.999841059602649	-0.0772450331125828	0.040476821192053	26.0733774834437	42.4153642384106	-8.46490066225166				0.720953642384106	0.127788079470199	0.509139072847682	4.07390728476821	-26.0121854304636	6.41403973509934				0.853827814569536	-0.0812715231788079	-0.0399470198675496	26.607417218543	16.9464900662252	-7.48026490066225				0.656529801324503	0.0314701986754967	-0.469721854304636	-1.71708609271523	-9.3364238410596	12.5443708609272				0.644026490066225	0.163496688741722	0.325933774834437	-12.0882119205298	-27.3880794701987	10.8625165562914				0.559788079470199	-0.190834437086093	-0.564238410596026	-7.53960264900662	0.437615894039735	-13.074701986755			
111	2220	0.903841059602649	-0.0772450331125828	0.040476821192053	16.8333774834437	36.5353642384106	-4.54490066225166				0.880953642384106	-0.000211920529801304	0.349139072847682	9.11390728476821	-36.9321854304636	12.8540397350993				0.981827814569536	-0.129271523178808	-0.0719470198675496	22.127417218543	14.9864900662252	-3.28026490066225				0.672529801324503	0.0154701986754967	-0.453721854304636	3.32291390728477	-2.3364238410596	10.5843708609272				0.724026490066225	0.147496688741722	0.389933774834437	-9.2882119205298	-15.0680794701987	7.78251655629139				0.527788079470199	-0.222834437086093	-0.580238410596026	4.22039735099338	-4.88238410596027	-5.51470198675497			
112	2240	0.967841059602649	-0.0292450331125828	0.040476821192053	0.873377483443709	31.4953642384106	-8.46490066225166				0.784953642384106	0.111788079470199	0.445139072847682	-32.6060927152318	-19.5721854304636	-0.30596026490066				1.01382781456954	-0.209271523178808	0.0240529801324504	9.52741721854305	16.3864900662252	-3.28026490066225				0.672529801324503	0.0314701986754967	-0.517721854304636	4.44291390728477	-2.6164238410596	7.50437086092715				0.804026490066225	0.0514966887417219	0.405933774834437	-2.5682119205298	-12.2680794701987	7.50251655629139				0.575788079470199	-0.254834437086093	-0.516238410596026	5.62039735099338	-4.88238410596027	-0.194701986754968			
113	2260	1.07984105960265	0.0347549668874172	0.056476821192053	-3.88662251655629	25.3353642384106	-7.62490066225166				0.768953642384106	0.175788079470199	0.541139072847682	-28.6860927152318	-3.05218543046358	-1.14596026490066				0.949827814569536	-0.209271523178808	0.0240529801324504	5.60741721854305	10.5064900662252	-6.08026490066225				0.768529801324503	-0.0165298013245033	-0.549721854304636	20.9629139072848	3.5435761589404	6.38437086092715				0.788026490066225	0.0834966887417219	0.341933774834437	-11.2482119205298	-17.0280794701987	6.10251655629139				0.623788079470199	-0.238834437086093	-0.564238410596026	-22.0996026490066	-3.76238410596027	0.645298013245032			
114	2280	1.06384105960265	0.114754966887417	0.088476821192053	-9.20662251655629	17.2153642384106	-4.82490066225166				1.00895364238411	0.0957880794701987	0.413139072847682	9.39390728476821	-10.6121854304636	8.65403973509934				0.917827814569536	-0.161271523178808	-0.0559470198675496	-6.43258278145695	11.6264900662252	-2.72026490066225				0.800529801324503	-0.112529801324503	-0.581721854304636	22.3629139072848	5.5035761589404	3.02437086092715				0.836026490066225	0.227496688741722	0.325933774834437	-7.6082119205298	-7.22807947019868	2.46251655629139				0.607788079470199	-0.174834437086093	-0.612238410596026	-12.2996026490066	6.87761589403974	-2.71470198675497			
115	2300	0.967841059602649	0.0667549668874172	0.072476821192053	-19.8466225165563	4.3353642384106	-2.02490066225166				1.02495364238411	-0.000211920529801304	0.253139072847682	-0.406092715231788	-19.8521854304636	15.3740397350993				1.02982781456954	-0.209271523178808	-0.0879470198675496	-26.312582781457	13.5864900662252	-0.20026490066225				0.816529801324503	-0.0485298013245033	-0.629721854304636	4.44291390728477	3.8235761589404	-2.57562913907285				0.948026490066225	0.131496688741722	0.453933774834437	1.6317880794702	5.65192052980133	3.30251655629139				0.703788079470199	-0.238834437086093	-0.660238410596027	22.1403973509934	24.2376158940397	-13.634701986755			
116	2320	0.903841059602649	0.0187549668874172	0.040476821192053	-13.1266225165563	4.0553642384106	0.215099337748344				0.784953642384106	0.239788079470199	0.477139072847682	-29.8060927152318	-3.05218543046358	0.81403973509934				0.981827814569536	-0.161271523178808	-0.0879470198675496	-37.792582781457	10.7864900662252	-2.44026490066225				0.864529801324503	-0.0485298013245033	-0.597721854304636	3.04291390728477	4.6635761589404	-3.41562913907285				0.932026490066225	0.0354966887417219	0.373933774834437	-1.4482119205298	-3.30807947019868	5.82251655629139				0.751788079470199	-0.286834437086093	-0.692238410596026	26.9003973509934	22.8376158940397	-10.834701986755			
117	2340	0.951841059602649	0.0347549668874172	0.00847682119205304	-10.6066225165563	0.415364238410596	0.775099337748344				0.864953642384106	0.175788079470199	0.461139072847682	-14.4060927152318	-1.93218543046358	4.45403973509934				0.885827814569536	-0.00127152317880793	-0.21594701986755	-23.232582781457	7.14649006622517	-9.16026490066225				0.784529801324503	-0.0805298013245033	-0.613721854304636	7.80291390728477	0.4635761589404	-5.09562913907285				0.836026490066225	0.115496688741722	0.261933774834437	-4.8082119205298	-4.42807947019868	2.18251655629139				0.623788079470199	-0.302834437086093	-0.676238410596026	6.74039735099338	4.07761589403974	2.04529801324503			
118	2360	0.903841059602649	0.0667549668874172	0.040476821192053	-9.20662251655629	-1.8246357615894	1.05509933774834				0.960953642384106	0.0637880794701987	0.269139072847682	18.3539072847682	-10.6121854304636	8.65403973509934				0.917827814569536	-0.0332715231788079	-0.23194701986755	-6.71258278145695	7.98649006622517	-7.76026490066225				0.752529801324503	-0.0325298013245033	-0.613721854304636	6.96291390728477	-5.9764238410596	-7.05562913907285				0.836026490066225	0.195496688741722	0.405933774834437	1.6317880794702	7.33192052980133	-0.0574834437086077				0.607788079470199	-0.206834437086093	-0.564238410596026	10.6603973509934	3.51761589403974	5.40529801324503			
119	2380	0.983841059602649	-0.0132450331125828	0.072476821192053	-8.36662251655629	2.3753642384106	1.61509933774834				0.976953642384106	0.0797880794701987	0.253139072847682	11.3539072847682	-10.8921854304636	5.85403973509934				0.981827814569536	-0.113271523178808	-0.18394701986755	3.36741721854305	7.14649006622517	-4.96026490066225				0.752529801324503	-0.0805298013245033	-0.533721854304636	-0.317086092715232	-8.4964238410596	-1.73562913907285				0.900026490066225	0.0834966887417219	0.405933774834437	6.9517880794702	4.53192052980133	0.222516556291392				0.671788079470199	-0.222834437086093	-0.580238410596026	13.7403973509934	4.07761589403974	-0.754701986754968			
120	2400	1.03184105960265	0.00275496688741723	0.072476821192053	-19.5666225165563	2.6553642384106	5.81509933774834				0.992953642384106	0.127788079470199	0.285139072847682	-15.8060927152318	-2.21218543046358	2.21403973509934				0.965827814569536	-0.161271523178808	-0.19994701986755	8.12741721854305	0.986490066225167	-6.08026490066225				0.736529801324503	-0.112529801324503	-0.597721854304636	-3.67708609271523	-6.8164238410596	-2.29562913907285				0.932026490066225	0.0674966887417219	0.325933774834437	-0.328211920529802	-0.788079470198675	-0.0574834437086077				0.703788079470199	-0.302834437086093	-0.692238410596026	5.90039735099338	-3.48238410596027	-3.27470198675497			
121	2420	0.967841059602649	0.178754966887417	0.136476821192053	-20.4066225165563	6.2953642384106	2.73509933774834				0.960953642384106	0.0317880794701987	0.333139072847682	-22.2460927152318	-2.21218543046358	2.21403973509934				0.981827814569536	-0.129271523178808	-0.23194701986755	5.88741721854305	3.78649006622517	-6.64026490066225				0.752529801324503	-0.0805298013245033	-0.661721854304636	7.52291390728477	-1.7764238410596	1.34437086092715				0.932026490066225	0.131496688741722	0.293933774834437	-1.4482119205298	-4.70807947019868	1.90251655629139				0.687788079470199	-0.238834437086093	-0.628238410596026	-0.819602649006623	-0.682384105960265	-2.71470198675497			
122	2440	0.935841059602649	0.242754966887417	0.120476821192053	-7.52662251655629	6.2953642384106	-3.42490066225166				0.944953642384106	0.0157880794701987	0.301139072847682	-14.1260927152318	-0.532185430463576	0.53403973509934				0.997827814569536	-0.161271523178808	-0.19994701986755	-5.31258278145695	5.18649006622517	-4.40026490066225				0.800529801324503	-0.0805298013245033	-0.645721854304636	8.64291390728477	-5.9764238410596	2.46437086092715				0.916026490066225	0.0834966887417219	0.341933774834437	7.7917880794702	3.13192052980133	1.90251655629139				0.639788079470199	-0.190834437086093	-0.564238410596026	-1.09960264900662	11.0776158940397	-1.87470198675497			
123	2460	0.983841059602649	0.162754966887417	0.056476821192053	1.71337748344371	4.8953642384106	-2.86490066225166				0.944953642384106	0.143788079470199	0.301139072847682	-2.36609271523179	-0.812185430463576	-0.585960264900661				0.981827814569536	-0.193271523178808	-0.16794701986755	-9.79258278145695	1.26649006622517	-1.88026490066225				0.816529801324503	-0.0645298013245033	-0.629721854304636	-2.27708609271523	-15.2164238410596	-0.615629139072848				0.964026490066225	0.0514966887417219	0.325933774834437	10.8717880794702	2.85192052980133	1.34251655629139				0.623788079470199	-0.190834437086093	-0.612238410596026	1.70039735099338	19.1976158940397	-8.87470198675497			
124	2480	1.03184105960265	0.0827549668874172	0.056476821192053	3.67337748344371	5.1753642384106	-0.904900662251656				0.944953642384106	0.175788079470199	0.237139072847682	1.55390728476821	-2.77218543046358	0.25403973509934				0.933827814569536	-0.129271523178808	-0.16794701986755	-5.03258278145695	-3.21350993377483	-3.56026490066225				0.768529801324503	-0.0805298013245033	-0.661721854304636	-5.07708609271523	-16.0564238410596	-5.37562913907285				0.932026490066225	0.147496688741722	0.341933774834437	-2.2882119205298	-1.90807947019868	-0.897483443708608				0.735788079470199	-0.222834437086093	-0.676238410596026	13.4603973509934	18.3576158940397	-18.394701986755			
125	2500	0.967841059602649	0.00275496688741723	0.072476821192053	-2.48662251655629	5.4553642384106	1.05509933774834				0.944953642384106	0.175788079470199	0.317139072847682	-5.72609271523179	-4.45218543046358	0.25403973509934				0.933827814569536	-0.0652715231788079	-0.18394701986755	4.76741721854305	-5.45350993377483	-1.60026490066225				0.768529801324503	-0.0805298013245033	-0.629721854304636	-4.51708609271523	-11.2964238410596	-5.65562913907285				0.900026490066225	0.179496688741722	0.341933774834437	3.0317880794702	-3.86807947019868	-1.73748344370861				0.719788079470199	-0.286834437086093	-0.660238410596027	13.4603973509934	7.15761589403974	-18.954701986755			
126	2520	0.935841059602649	-0.0132450331125828	0.072476821192053	-11.4466225165563	6.5753642384106	4.97509933774835				0.928953642384106	0.207788079470199	0.365139072847682	-6.56609271523179	-4.17218543046358	-0.585960264900661				0.933827814569536	-0.0652715231788079	-0.15194701986755	-0.552582781456954	-4.33350993377483	-0.48026490066225				0.752529801324503	-0.0645298013245033	-0.597721854304636	-8.71708609271523	-9.8964238410596	-1.73562913907285				0.932026490066225	0.163496688741722	0.341933774834437	4.7117880794702	-3.86807947019868	-2.85748344370861				0.671788079470199	-0.286834437086093	-0.660238410596027	3.38039735099338	-2.64238410596027	-9.43470198675497			
127	2540	0.983841059602649	0.178754966887417	0.040476821192053	-13.4066225165563	3.7753642384106	5.81509933774834				0.960953642384106	0.143788079470199	0.301139072847682	11.3539072847682	-10.3321854304636	1.09403973509934				0.949827814569536	-0.0332715231788079	-0.16794701986755	-4.19258278145695	-3.21350993377483	-0.76026490066225				0.736529801324503	-0.0485298013245033	-0.581721854304636	-10.1170860927152	-10.1764238410596	-2.01562913907285				0.884026490066225	0.147496688741722	0.341933774834437	4.1517880794702	-1.34807947019868	-3.69748344370861				0.671788079470199	-0.238834437086093	-0.596238410596026	-19.5796026490066	-1.80238410596026	-1.31470198675497			
128	2560	1.01584105960265	0.226754966887417	0.040476821192053	0.0333774834437086	2.3753642384106	2.73509933774834				0.976953642384106	0.0957880794701987	0.269139072847682	19.1939072847682	-13.6921854304636	2.49403973509934				0.965827814569536	-0.0172715231788079	-0.16794701986755	0.847417218543046	-1.53350993377483	-1.60026490066225				0.720529801324503	0.0154701986754967	-0.613721854304636	-3.11708609271523	-11.0164238410596	-1.45562913907285				0.884026490066225	0.163496688741722	0.357933774834437	5.2717880794702	-2.46807947019868	-3.41748344370861				0.655788079470199	-0.174834437086093	-0.596238410596026	-22.6596026490066	2.11761589403974	-3.55470198675497			
129	2580	0.983841059602649	0.162754966887417	0.072476821192053	11.2333774834437	1.2553642384106	1.61509933774834				0.896953642384106	0.111788079470199	0.317139072847682	7.43390728476821	-3.33218543046358	0.81403973509934				0.949827814569536	-0.0652715231788079	-0.11994701986755	12.047417218543	0.146490066225167	-2.44026490066225				0.752529801324503	-0.000529801324503289	-0.565721854304636	3.60291390728477	-7.6564238410596	-0.615629139072848				0.900026490066225	0.131496688741722	0.325933774834437	9.1917880794702	-6.10807947019868	-2.57748344370861				0.687788079470199	-0.126834437086093	-0.628238410596026	-2.77960264900662	4.07761589403974	-13.914701986755			
130	2600	0.983841059602649	0.0987549668874172	0.136476821192053	12.3533774834437	0.135364238410596	2.45509933774835				0.944953642384106	0.111788079470199	0.397139072847682	-0.686092715231788	0.0278145695364242	-1.70596026490066				0.933827814569536	-0.129271523178808	-0.11994701986755	17.647417218543	0.426490066225167	-1.60026490066225				0.736529801324503	-0.0485298013245033	-0.581721854304636	3.88291390728477	-4.5764238410596	-3.41562913907285				0.884026490066225	0.131496688741722	0.341933774834437	9.7517880794702	-6.66807947019868	-2.85748344370861				0.703788079470199	-0.190834437086093	-0.644238410596026	12.6203973509934	3.79761589403974	-20.354701986755			
131	2620	0.967841059602649	0.0827549668874172	0.168476821192053	8.99337748344371	2.0953642384106	1.89509933774834				0.976953642384106	0.0797880794701987	0.301139072847682	3.23390728476821	-5.29218543046358	-3.94596026490066				0.981827814569536	-0.209271523178808	-0.11994701986755	11.207417218543	-3.77350993377483	2.31973509933775				0.704529801324503	-0.0325298013245033	-0.565721854304636	-0.597086092715232	0.7435761589404	-5.09562913907285				0.916026490066225	0.131496688741722	0.357933774834437	10.0317880794702	-2.46807947019868	-2.85748344370861				0.703788079470199	-0.270834437086093	-0.644238410596026	8.14039735099338	1.55761589403974	-15.594701986755			
132	2640	0.967841059602649	0.0507549668874172	0.184476821192053	5.07337748344371	7.4153642384106	2.17509933774834				0.928953642384106	0.0957880794701987	0.253139072847682	8.83390728476821	-10.3321854304636	-4.50596026490066				0.965827814569536	-0.209271523178808	-0.0879470198675496	1.40741721854305	-5.17350993377483	3.71973509933775				0.688529801324503	-0.000529801324503289	-0.565721854304636	-0.877086092715232	4.9435761589404	-8.73562913907285				0.916026490066225	0.0994966887417219	0.325933774834437	9.7517880794702	-1.06807947019868	-1.17748344370861				0.719788079470199	-0.270834437086093	-0.628238410596026	0.860397350993377	1.55761589403974	-10.834701986755			
133	2660	0.967841059602649	0.0507549668874172	0.136476821192053	5.63337748344371	7.6953642384106	1.33509933774834				0.912953642384106	0.0797880794701987	0.269139072847682	8.83390728476821	-5.01218543046358	-4.50596026490066				0.981827814569536	-0.161271523178808	-0.0719470198675496	-3.91258278145695	-2.37350993377483	3.15973509933775				0.704529801324503	0.0154701986754967	-0.613721854304636	12.5629139072848	6.6235761589404	-9.01562913907285				0.916026490066225	0.131496688741722	0.325933774834437	8.6317880794702	-5.54807947019868	0.782516556291392				0.719788079470199	-0.238834437086093	-0.644238410596026	-4.17960264900662	-0.962384105960265	-7.19470198675497			
134	2680	0.983841059602649	0.0507549668874172	0.104476821192053	2.27337748344371	5.7353642384106	0.215099337748344				0.944953642384106	0.0637880794701987	0.333139072847682	7.15390728476821	1.42781456953642	-1.42596026490066				1.01382781456954	-0.129271523178808	-0.0719470198675496	-4.47258278145695	0.146490066225167	2.03973509933775				0.752529801324503	-0.0485298013245033	-0.629721854304636	25.4429139072848	5.5035761589404	-9.57562913907285				0.884026490066225	0.131496688741722	0.341933774834437	8.0717880794702	-8.34807947019868	0.782516556291392				0.703788079470199	-0.206834437086093	-0.660238410596027	1.70039735099338	-4.32238410596027	-7.47470198675497			
135	2700	0.967841059602649	0.0187549668874172	0.072476821192053	-0.806622516556291	-0.424635761589404	1.89509933774834				0.928953642384106	0.143788079470199	0.429139072847682	4.07390728476821	5.06781456953642	-1.98596026490066				0.981827814569536	-0.145271523178808	-0.0559470198675496	2.52741721854305	0.146490066225167	1.47973509933775				0.784529801324503	-0.128529801324503	-0.677721854304636	17.6029139072848	-2.6164238410596	-7.89562913907285				0.884026490066225	0.115496688741722	0.309933774834437	10.5917880794702	-10.8680794701987	2.74251655629139				0.719788079470199	-0.206834437086093	-0.628238410596026	11.7803973509934	-4.32238410596027	-7.47470198675497			
136	2720	0.983841059602649	0.0347549668874172	0.072476821192053	0.873377483443709	-4.3446357615894	2.17509933774834				0.928953642384106	0.159788079470199	0.317139072847682	2.67390728476821	3.38781456953642	-1.98596026490066				0.949827814569536	-0.161271523178808	-0.0559470198675496	8.96741721854305	-3.21350993377483	1.75973509933775				0.768529801324503	-0.128529801324503	-0.661721854304636	1.36291390728477	-4.5764238410596	-7.05562913907285				0.884026490066225	0.131496688741722	0.341933774834437	10.5917880794702	0.891920529801325	-0.0574834437086077				0.735788079470199	-0.222834437086093	-0.612238410596026	15.7003973509934	-7.40238410596027	-6.63470198675497			
137	2740	0.951841059602649	0.0187549668874172	0.120476821192053	4.79337748344371	-2.9446357615894	2.73509933774834				0.960953642384106	0.0797880794701987	0.301139072847682	6.31390728476821	-0.812185430463576	-0.0259602649006601				0.933827814569536	-0.177271523178808	-0.0879470198675496	4.76741721854305	-3.77350993377483	3.71973509933775				0.704529801324503	-0.0645298013245033	-0.645721854304636	-5.35708609271523	-1.2164238410596	-8.73562913907285				0.900026490066225	0.147496688741722	0.373933774834437	7.2317880794702	4.25192052980133	-2.57748344370861				0.703788079470199	-0.238834437086093	-0.580238410596026	7.86039735099338	-9.92238410596027	-7.19470198675497			
138	2760	0.951841059602649	0.0187549668874172	0.120476821192053	2.83337748344371	-1.5446357615894	2.73509933774834				0.944953642384106	0.0477880794701987	0.285139072847682	0.713907284768212	1.14781456953642	2.21403973509934				0.965827814569536	-0.193271523178808	-0.10394701986755	-0.832582781456954	-1.25350993377483	3.43973509933775				0.688529801324503	-0.000529801324503289	-0.613721854304636	-2.83708609271523	1.8635761589404	-7.89562913907285				0.916026490066225	0.131496688741722	0.325933774834437	5.8317880794702	2.29192052980133	-2.01748344370861				0.735788079470199	-0.222834437086093	-0.580238410596026	5.34039735099338	-5.72238410596027	-7.75470198675497			
139	2780	0.951841059602649	0.0347549668874172	0.104476821192053	-5.00662251655629	-0.424635761589404	2.45509933774835				0.912953642384106	0.0957880794701987	0.301139072847682	-6.28609271523179	2.82781456953642	1.37403973509934				0.949827814569536	-0.161271523178808	-0.13594701986755	-6.71258278145695	0.986490066225167	1.47973509933775				0.736529801324503	-0.0325298013245033	-0.597721854304636	6.12291390728477	1.8635761589404	-4.25562913907285				0.916026490066225	0.0994966887417219	0.325933774834437	4.9917880794702	-0.228079470198675	-1.17748344370861				0.735788079470199	-0.238834437086093	-0.596238410596026	5.62039735099338	-2.36238410596027	-6.63470198675497			
140	2800	0.983841059602649	0.0827549668874172	0.088476821192053	-4.72662251655629	0.135364238410596	0.495099337748344				0.944953642384106	0.0957880794701987	0.301139072847682	-3.48609271523179	5.34781456953642	2.49403973509934				0.933827814569536	-0.145271523178808	-0.13594701986755	-3.35258278145695	2.66649006622517	-0.48026490066225				0.704529801324503	-0.0645298013245033	-0.613721854304636	6.96291390728477	1.5835761589404	-0.615629139072848				0.916026490066225	0.131496688741722	0.325933774834437	1.9117880794702	-3.58807947019868	0.222516556291392				0.719788079470199	-0.238834437086093	-0.596238410596026	4.50039735099338	-1.52238410596026	-5.51470198675497			
141	2820	0.983841059602649	0.0667549668874172	0.056476821192053	-1.08662251655629	-2.9446357615894	0.495099337748344				0.944953642384106	0.0637880794701987	0.301139072847682	3.79390728476821	0.867814569536424	4.45403973509934				0.949827814569536	-0.145271523178808	-0.10394701986755	0.287417218543046	2.66649006622517	0.0797350993377501				0.704529801324503	-0.0645298013245033	-0.645721854304636	4.44291390728477	1.5835761589404	-0.0556291390728476				0.900026490066225	0.115496688741722	0.325933774834437	0.231788079470198	-2.74807947019868	1.34251655629139				0.719788079470199	-0.238834437086093	-0.596238410596026	1.98039735099338	1.55761589403974	-2.71470198675497			
142	2840	0.983841059602649	0.0187549668874172	0.040476821192053	-1.64662251655629	-4.6246357615894	1.61509933774834				0.944953642384106	0.0797880794701987	0.317139072847682	-0.406092715231788	2.54781456953642	2.77403973509934				0.965827814569536	-0.145271523178808	-0.13594701986755	3.64741721854305	-0.413509933774833	0.91973509933775				0.704529801324503	-0.0645298013245033	-0.613721854304636	1.64291390728477	1.0235761589404	-0.615629139072848				0.900026490066225	0.0994966887417219	0.325933774834437	1.3517880794702	-1.06807947019868	3.58251655629139				0.719788079470199	-0.238834437086093	-0.580238410596026	5.06039735099338	2.39761589403974	-0.194701986754968			
143	2860	0.983841059602649	0.0187549668874172	0.056476821192053	-1.64662251655629	-2.6646357615894	2.45509933774835				0.944953642384106	0.111788079470199	0.317139072847682	-4.88609271523179	3.38781456953642	0.25403973509934				0.933827814569536	-0.161271523178808	-0.16794701986755	2.24741721854305	-3.21350993377483	0.35973509933775				0.720529801324503	-0.0645298013245033	-0.629721854304636	-4.23708609271523	-0.3764238410596	0.504370860927152				0.916026490066225	0.131496688741722	0.341933774834437	-0.888211920529802	-0.788079470198675	3.30251655629139				0.719788079470199	-0.254834437086093	-0.612238410596026	1.98039735099338	-0.122384105960265	1.48529801324503			
144	2880	0.967841059602649	0.0347549668874172	0.088476821192053	-4.16662251655629	1.5353642384106	0.775099337748344				0.960953642384106	0.0957880794701987	0.317139072847682	-2.92609271523179	4.22781456953642	2.77403973509934				0.933827814569536	-0.145271523178808	-0.16794701986755	-2.23258278145695	-1.25350993377483	1.19973509933775				0.736529801324503	-0.0325298013245033	-0.613721854304636	-2.55708609271523	0.7435761589404	2.18437086092715				0.916026490066225	0.147496688741722	0.325933774834437	-3.1282119205298	-1.90807947019868	3.86251655629139				0.703788079470199	-0.222834437086093	-0.628238410596026	0.300397350993377	-0.962384105960265	1.48529801324503			
145	2900	0.967841059602649	0.0347549668874172	0.088476821192053	-8.92662251655629	0.695364238410596	1.89509933774834				0.960953642384106	0.0637880794701987	0.285139072847682	1.55390728476821	1.98781456953642	4.45403973509934				0.965827814569536	-0.129271523178808	-0.15194701986755	-2.51258278145695	1.54649006622517	-0.20026490066225				0.736529801324503	-0.0325298013245033	-0.597721854304636	2.20291390728477	3.2635761589404	2.46437086092715				0.900026490066225	0.131496688741722	0.341933774834437	-2.8482119205298	0.0519205298013249	3.86251655629139				0.703788079470199	-0.222834437086093	-0.628238410596026	3.66039735099338	2.11761589403974	0.645298013245032			
146	2920	0.983841059602649	0.0347549668874172	0.040476821192053	-9.48662251655629	-3.7846357615894	2.17509933774834				0.928953642384106	0.111788079470199	0.317139072847682	-0.126092715231788	0.867814569536424	2.49403973509934				0.965827814569536	-0.145271523178808	-0.13594701986755	0.567417218543046	0.146490066225167	-0.76026490066225				0.752529801324503	-0.0645298013245033	-0.613721854304636	5.84291390728477	2.9835761589404	2.74437086092715				0.916026490066225	0.115496688741722	0.325933774834437	-0.328211920529802	0.891920529801325	4.42251655629139				0.703788079470199	-0.238834437086093	-0.628238410596026	4.22039735099338	1.83761589403974	1.48529801324503			
147	2940	0.999841059602649	0.0507549668874172	0.024476821192053	-5.84662251655629	-5.7446357615894	1.89509933774834				0.944953642384106	0.111788079470199	0.317139072847682	-2.08609271523179	2.82781456953642	3.33403973509934				0.949827814569536	-0.145271523178808	-0.15194701986755	5.32741721854305	-1.53350993377483	-0.76026490066225				0.752529801324503	-0.0645298013245033	-0.597721854304636	1.92291390728477	1.8635761589404	3.02437086092715				0.900026490066225	0.115496688741722	0.325933774834437	-1.7282119205298	-0.508079470198675	3.58251655629139				0.687788079470199	-0.222834437086093	-0.612238410596026	-1.09960264900662	-2.08238410596027	2.60529801324503			
148	2960	0.983841059602649	0.0507549668874172	0.056476821192053	-3.32662251655629	-6.8646357615894	2.73509933774834				0.976953642384106	0.0957880794701987	0.317139072847682	-2.08609271523179	1.14781456953642	4.17403973509934				0	0	0	0	0	0				0.752529801324503	-0.0645298013245033	-0.629721854304636	0.522913907284768	1.3035761589404	1.62437086092715				0.916026490066225	0.115496688741722	0.341933774834437	-1.7282119205298	-0.508079470198675	3.02251655629139				0.671788079470199	-0.222834437086093	-0.596238410596026	0.580397350993377	-0.122384105960265	0.0852980132450323			
149	2980	0	0	0	0	0	0				0.976953642384106	0.0957880794701987	0.333139072847682	-3.48609271523179	-1.37218543046358	2.49403973509934				0.949827814569536	-0.177271523178808	-0.16794701986755	1.40741721854305	-0.973509933774833	0.63973509933775				0.784529801324503	-0.0485298013245033	-0.613721854304636	4.16291390728477	2.4235761589404	1.06437086092715				0.932026490066225	0.115496688741722	0.325933774834437	0.231788079470198	-0.788079470198675	2.46251655629139				0.687788079470199	-0.222834437086093	-0.628238410596026	5.90039735099338	2.95761589403974	-2.71470198675497			
150	3000	0.951841059602649	0.0667549668874172	0.104476821192053	1.71337748344371	-3.7846357615894	1.61509933774834				0.944953642384106	0.0797880794701987	0.301139072847682	-3.76609271523179	0.307814569536424	2.77403973509934				0.933827814569536	-0.145271523178808	-0.16794701986755	-5.87258278145695	0.706490066225167	0.91973509933775				0.784529801324503	-0.0805298013245033	-0.629721854304636	3.04291390728477	1.3035761589404	0.784370860927152				0.932026490066225	0.131496688741722	0.325933774834437	2.1917880794702	0.891920529801325	1.62251655629139				0.703788079470199	-0.254834437086093	-0.644238410596026	5.62039735099338	2.11761589403974	-1.87470198675497			
151	3020	0.967841059602649	0.0507549668874172	0.088476821192053	3.39337748344371	-1.8246357615894	1.05509933774834				0.960953642384106	0.0637880794701987	0.285139072847682	-0.126092715231788	2.54781456953642	3.61403973509934				0.965827814569536	-0.129271523178808	-0.16794701986755	-2.23258278145695	1.54649006622517	-0.76026490066225				0.752529801324503	-0.0645298013245033	-0.597721854304636	-0.597086092715232	0.1835761589404	0.224370860927152				0.916026490066225	0.115496688741722	0.341933774834437	1.6317880794702	0.331920529801325	1.90251655629139				0.687788079470199	-0.238834437086093	-0.628238410596026	-0.539602649006623	-0.682384105960265	0.925298013245032			
152	3040	0.983841059602649	0.0347549668874172	0.088476821192053	3.67337748344371	-2.1046357615894	0.775099337748344				0.944953642384106	0.0797880794701987	0.333139072847682	-0.126092715231788	5.34781456953642	1.37403973509934				0.981827814569536	-0.129271523178808	-0.16794701986755	3.08741721854305	0.706490066225167	-1.60026490066225				0.736529801324503	-0.0645298013245033	-0.597721854304636	-1.43708609271523	0.7435761589404	-0.615629139072848				0.916026490066225	0.0994966887417219	0.341933774834437	1.9117880794702	2.29192052980133	1.34251655629139				0.703788079470199	-0.238834437086093	-0.628238410596026	0.860397350993377	0.717615894039735	0.925298013245032			
153	3060	0.967841059602649	0.0347549668874172	0.088476821192053	0.593377483443709	-0.984635761589404	0.775099337748344				0.960953642384106	0.0957880794701987	0.333139072847682	-2.08609271523179	1.70781456953642	1.09403973509934				0.933827814569536	-0.145271523178808	-0.16794701986755	4.48741721854305	-2.93350993377483	-1.32026490066225				0.720529801324503	-0.0325298013245033	-0.597721854304636	2.20291390728477	3.8235761589404	-0.335629139072848				0.932026490066225	0.115496688741722	0.325933774834437	-0.888211920529802	-0.228079470198675	1.06251655629139				0.719788079470199	-0.254834437086093	-0.612238410596026	3.38039735099338	-1.80238410596026	-0.754701986754968			
154	3080	0.967841059602649	0.0667549668874172	0.120476821192053	0.593377483443709	2.0953642384106	1.05509933774834				0.960953642384106	0.0797880794701987	0.301139072847682	0.153907284768212	-0.812185430463576	2.77403973509934				0.949827814569536	-0.145271523178808	-0.15194701986755	4.48741721854305	-4.61350993377483	-0.20026490066225				0.736529801324503	-0.0485298013245033	-0.597721854304636	6.40291390728477	4.3835761589404	-0.0556291390728476				0.932026490066225	0.0994966887417219	0.325933774834437	0.791788079470198	-1.62807947019868	1.90251655629139				0.703788079470199	-0.238834437086093	-0.612238410596026	0.580397350993377	-2.08238410596027	-0.754701986754968			
155	3100	0.983841059602649	0.0507549668874172	0.120476821192053	2.55337748344371	3.4953642384106	-0.344900662251656				0.944953642384106	0.0637880794701987	0.301139072847682	-0.126092715231788	0.867814569536424	1.09403973509934				0.949827814569536	-0.145271523178808	-0.16794701986755	1.40741721854305	-2.09350993377483	0.0797350993377501				0.752529801324503	-0.0645298013245033	-0.597721854304636	6.68291390728477	2.1435761589404	1.06437086092715				0.916026490066225	0.0994966887417219	0.357933774834437	1.3517880794702	-3.30807947019868	4.14251655629139				0.703788079470199	-0.238834437086093	-0.612238410596026	2.26039735099338	0.437615894039735	-2.71470198675497			
156	3120	0.983841059602649	0.0667549668874172	0.072476821192053	2.55337748344371	1.5353642384106	-1.74490066225166				0.912953642384106	0.111788079470199	0.333139072847682	0.993907284768212	0.587814569536424	-0.0259602649006601				0.949827814569536	-0.145271523178808	-0.10394701986755	0.567417218543046	0.426490066225167	-0.76026490066225				0.752529801324503	-0.0965298013245033	-0.581721854304636	3.32291390728477	1.8635761589404	0.784370860927152				0.916026490066225	0.0994966887417219	0.309933774834437	0.231788079470198	-4.70807947019868	3.58251655629139				0.703788079470199	-0.238834437086093	-0.644238410596026	4.78039735099338	-0.122384105960265	-2.99470198675497			
157	3140	0.983841059602649	0.0667549668874172	0.040476821192053	1.15337748344371	-1.8246357615894	-0.624900662251656				0.960953642384106	0.111788079470199	0.317139072847682	6.31390728476821	-3.89218543046358	1.93403973509934				0.949827814569536	-0.145271523178808	-0.13594701986755	2.24741721854305	-0.973509933774833	-1.60026490066225				0.752529801324503	-0.0485298013245033	-0.613721854304636	3.04291390728477	2.1435761589404	1.90437086092715				0.916026490066225	0.115496688741722	0.309933774834437	1.0717880794702	-2.18807947019868	3.02251655629139				0.687788079470199	-0.238834437086093	-0.628238410596026	5.06039735099338	-4.04238410596027	-2.99470198675497			
158	3160	0.967841059602649	0.0187549668874172	0.040476821192053	5.91337748344371	-2.3846357615894	-0.0649006622516557				0.976953642384106	0.0797880794701987	0.317139072847682	6.03390728476821	-2.77218543046358	1.93403973509934				0.949827814569536	-0.161271523178808	-0.13594701986755	5.32741721854305	-1.53350993377483	-1.04026490066225				0.752529801324503	-0.0485298013245033	-0.629721854304636	7.24291390728477	2.4235761589404	1.34437086092715				0.916026490066225	0.131496688741722	0.341933774834437	0.791788079470198	-3.86807947019868	3.86251655629139				0.687788079470199	-0.238834437086093	-0.628238410596026	3.10039735099338	-5.16238410596027	-1.59470198675497			
159	3180	0.983841059602649	0.00275496688741723	0.056476821192053	3.95337748344371	-1.2646357615894	-0.344900662251656				0.928953642384106	0.0637880794701987	0.317139072847682	1.27390728476821	-0.532185430463576	0.53403973509934				0.965827814569536	-0.177271523178808	-0.13594701986755	3.92741721854305	-2.65350993377483	0.63973509933775				0.752529801324503	-0.0965298013245033	-0.597721854304636	7.24291390728477	1.8635761589404	-0.335629139072848				0.916026490066225	0.0994966887417219	0.293933774834437	1.9117880794702	-4.70807947019868	4.14251655629139				0.687788079470199	-0.222834437086093	-0.644238410596026	1.14039735099338	-3.48238410596027	0.0852980132450323			
160	3200	0.967841059602649	0.0347549668874172	0.072476821192053	1.15337748344371	-0.424635761589404	-0.0649006622516557				0.944953642384106	0.0957880794701987	0.317139072847682	-0.966092715231788	1.14781456953642	0.25403973509934				0.917827814569536	-0.161271523178808	-0.15194701986755	0.287417218543046	-0.413509933774833	0.91973509933775				0.752529801324503	-0.0965298013245033	-0.597721854304636	3.88291390728477	1.8635761589404	0.504370860927152				0.916026490066225	0.0994966887417219	0.309933774834437	2.4717880794702	-2.74807947019868	2.46251655629139				0.687788079470199	-0.222834437086093	-0.612238410596026	2.26039735099338	-4.32238410596027	0.645298013245032			
161	3220	0.967841059602649	0.0667549668874172	0.072476821192053	0.593377483443709	-0.704635761589404	-1.18490066225166				0.960953642384106	0.0797880794701987	0.301139072847682	1.55390728476821	-1.93218543046358	2.21403973509934				0.949827814569536	-0.161271523178808	-0.15194701986755	-4.47258278145695	0.146490066225167	1.19973509933775				0.752529801324503	-0.0805298013245033	-0.613721854304636	3.88291390728477	3.5435761589404	0.504370860927152				0.916026490066225	0.0994966887417219	0.341933774834437	-0.0482119205298018	-3.30807947019868	1.90251655629139				0.687788079470199	-0.238834437086093	-0.612238410596026	3.10039735099338	-3.48238410596027	-1.31470198675497			
162	3240	0.983841059602649	0.0507549668874172	0.072476821192053	0.873377483443709	-0.424635761589404	-2.02490066225166				0.944953642384106	0.0797880794701987	0.285139072847682	2.67390728476821	-3.33218543046358	2.49403973509934				0.965827814569536	-0.145271523178808	-0.13594701986755	-4.19258278145695	0.986490066225167	1.47973509933775				0.768529801324503	-0.0645298013245033	-0.613721854304636	8.08291390728477	4.3835761589404	1.06437086092715				0.916026490066225	0.0994966887417219	0.309933774834437	1.6317880794702	-4.14807947019868	1.90251655629139				0.687788079470199	-0.238834437086093	-0.628238410596026	5.06039735099338	-2.08238410596027	-4.39470198675497			
163	3260	0.967841059602649	0.0347549668874172	0.040476821192053	3.39337748344371	-1.5446357615894	-1.74490066225166				0.960953642384106	0.0797880794701987	0.285139072847682	0.993907284768212	-1.37218543046358	2.77403973509934				0.965827814569536	-0.145271523178808	-0.16794701986755	-0.832582781456954	-2.09350993377483	-0.76026490066225				0.752529801324503	-0.0965298013245033	-0.597721854304636	8.92291390728477	3.8235761589404	1.90437086092715				0.932026490066225	0.0834966887417219	0.293933774834437	2.4717880794702	-4.70807947019868	2.18251655629139				0.687788079470199	-0.254834437086093	-0.628238410596026	5.62039735099338	-0.962384105960265	-5.23470198675497			
164	3280	0.983841059602649	0.00275496688741723	0.040476821192053	4.51337748344371	-0.704635761589404	-0.904900662251656				0.944953642384106	0.0797880794701987	0.301139072847682	-0.126092715231788	1.42781456953642	1.93403973509934				0.933827814569536	-0.145271523178808	-0.16794701986755	1.68741721854305	-1.81350993377483	-0.48026490066225				0.736529801324503	-0.128529801324503	-0.613721854304636	5.84291390728477	1.8635761589404	3.58437086092715				0.900026490066225	0.0834966887417219	0.325933774834437	1.0717880794702	-3.86807947019868	2.74251655629139				0.687788079470199	-0.270834437086093	-0.628238410596026	3.10039735099338	-3.20238410596026	-2.99470198675497			
165	3300	0.983841059602649	0.0187549668874172	0.056476821192053	2.55337748344371	-0.984635761589404	-0.904900662251656				0.960953642384106	0.0637880794701987	0.333139072847682	-0.686092715231788	-0.252185430463576	1.09403973509934				0.933827814569536	-0.145271523178808	-0.16794701986755	-0.832582781456954	-1.53350993377483	-0.20026490066225				0.736529801324503	-0.0965298013245033	-0.629721854304636	2.76291390728477	0.7435761589404	2.46437086092715				0.916026490066225	0.0834966887417219	0.293933774834437	-0.608211920529802	-4.42807947019868	3.02251655629139				0.687788079470199	-0.254834437086093	-0.612238410596026	-2.77960264900662	-2.64238410596027	-0.194701986754968			
166	3320	0.967841059602649	0.0347549668874172	0.056476821192053	-3.04662251655629	-1.5446357615894	-0.344900662251656				0.944953642384106	0.0477880794701987	0.317139072847682	-0.126092715231788	-1.65218543046358	1.65403973509934				0.949827814569536	-0.145271523178808	-0.16794701986755	-2.79258278145695	-1.53350993377483	0.0797350993377501				0.736529801324503	-0.0805298013245033	-0.613721854304636	3.88291390728477	0.4635761589404	2.18437086092715				0.916026490066225	0.0834966887417219	0.309933774834437	-0.608211920529802	-3.58807947019868	2.74251655629139				0.703788079470199	-0.238834437086093	-0.628238410596026	-0.539602649006623	-0.122384105960265	-1.31470198675497			
167	3340	0.951841059602649	0.0507549668874172	0.088476821192053	-2.76662251655629	-0.144635761589404	-0.344900662251656				0.960953642384106	0.0957880794701987	0.317139072847682	1.27390728476821	-2.21218543046358	1.93403973509934				0.965827814569536	-0.145271523178808	-0.15194701986755	0.00741721854304636	-0.693509933774834	-1.32026490066225				0.768529801324503	-0.112529801324503	-0.613721854304636	4.16291390728477	-0.3764238410596	2.74437086092715				0.932026490066225	0.0834966887417219	0.309933774834437	-1.4482119205298	-3.30807947019868	2.46251655629139				0.687788079470199	-0.254834437086093	-0.628238410596026	1.14039735099338	0.157615894039735	-1.31470198675497			
168	3360	0.967841059602649	0.0667549668874172	0.056476821192053	-1.64662251655629	0.415364238410596	0.215099337748344				0.928953642384106	0.0957880794701987	0.285139072847682	-0.966092715231788	-1.37218543046358	0.25403973509934				0.933827814569536	-0.145271523178808	-0.15194701986755	2.52741721854305	-1.25350993377483	-2.44026490066225				0.752529801324503	-0.112529801324503	-0.597721854304636	1.64291390728477	-1.2164238410596	3.86437086092715				0.932026490066225	0.0994966887417219	0.309933774834437	-1.7282119205298	-4.42807947019868	2.18251655629139				0.687788079470199	-0.238834437086093	-0.612238410596026	1.98039735099338	-1.80238410596026	-1.31470198675497			
169	3380	0.967841059602649	0.0507549668874172	0.056476821192053	0.0333774834437086	0.415364238410596	-0.344900662251656				0.944953642384106	0.0957880794701987	0.301139072847682	-0.686092715231788	-0.532185430463576	0.25403973509934				0.933827814569536	-0.145271523178808	-0.15194701986755	3.08741721854305	-1.25350993377483	-1.32026490066225				0.752529801324503	-0.0805298013245033	-0.613721854304636	1.36291390728477	0.1835761589404	3.86437086092715				0.916026490066225	0.0994966887417219	0.293933774834437	-1.7282119205298	-6.38807947019868	1.90251655629139				0.671788079470199	-0.238834437086093	-0.612238410596026	-1.09960264900662	-0.402384105960265	-1.31470198675497			
170	3400	0.983841059602649	0.0667549668874172	0.040476821192053	-0.526622516556291	-1.5446357615894	-0.904900662251656				0.960953642384106	0.0797880794701987	0.317139072847682	0.993907284768212	-1.37218543046358	0.81403973509934				0.949827814569536	-0.161271523178808	-0.16794701986755	-0.272582781456954	-0.413509933774833	-0.48026490066225				0.752529801324503	-0.0805298013245033	-0.613721854304636	4.16291390728477	0.4635761589404	3.30437086092715				0.916026490066225	0.0994966887417219	0.293933774834437	-1.4482119205298	-5.82807947019868	1.34251655629139				0.671788079470199	-0.222834437086093	-0.644238410596026	-1.37960264900662	1.27761589403974	-1.59470198675497			
171	3420	0.967841059602649	0.0507549668874172	0.072476821192053	1.15337748344371	-0.984635761589404	-1.18490066225166				0.944953642384106	0.0797880794701987	0.301139072847682	0.713907284768212	0.0278145695364242	0.53403973509934				0.949827814569536	-0.129271523178808	-0.16794701986755	-3.63258278145695	-0.413509933774833	-0.76026490066225				0.752529801324503	-0.0965298013245033	-0.613721854304636	3.04291390728477	0.1835761589404	2.46437086092715				0.916026490066225	0.0994966887417219	0.293933774834437	0.231788079470198	-4.98807947019868	1.06251655629139				0.687788079470199	-0.238834437086093	-0.644238410596026	3.38039735099338	0.997615894039735	-0.194701986754968			
172	3440	0.967841059602649	0.0347549668874172	0.072476821192053	0.313377483443709	2.3753642384106	-1.46490066225166				0.960953642384106	0.0957880794701987	0.285139072847682	1.55390728476821	-0.252185430463576	0.53403973509934				0.949827814569536	-0.113271523178808	-0.18394701986755	-3.07258278145695	0.146490066225167	-2.16026490066225				0.752529801324503	-0.0965298013245033	-0.597721854304636	-1.43708609271523	-1.4964238410596	1.62437086092715				0.916026490066225	0.0994966887417219	0.309933774834437	-0.608211920529802	-3.86807947019868	0.782516556291392				0.671788079470199	-0.238834437086093	-0.612238410596026	-0.539602649006623	-1.24238410596026	-0.194701986754968			
173	3460	0.967841059602649	0.0667549668874172	0.088476821192053	-1.08662251655629	1.8153642384106	-1.18490066225166				0.976953642384106	0.0637880794701987	0.301139072847682	2.11390728476821	-1.37218543046358	1.09403973509934				0.965827814569536	-0.113271523178808	-0.16794701986755	-0.272582781456954	0.146490066225167	-2.16026490066225				0.752529801324503	-0.0805298013245033	-0.613721854304636	-0.877086092715232	-2.0564238410596	-0.0556291390728476				0.916026490066225	0.0994966887417219	0.309933774834437	1.0717880794702	-1.62807947019868	-0.0574834437086077				0.671788079470199	-0.222834437086093	-0.628238410596026	-0.259602649006623	1.27761589403974	-1.03470198675497			
174	3480	0.967841059602649	0.0507549668874172	0.088476821192053	-0.806622516556291	2.3753642384106	-2.30490066225166				0.944953642384106	0.0957880794701987	0.301139072847682	-0.126092715231788	0.0278145695364242	-0.585960264900661				0.965827814569536	-0.129271523178808	-0.16794701986755	3.64741721854305	-0.693509933774834	-2.16026490066225				0.768529801324503	-0.0965298013245033	-0.597721854304636	1.36291390728477	-2.0564238410596	-1.17562913907285				0.932026490066225	0.0834966887417219	0.293933774834437	1.9117880794702	-0.788079470198675	0.222516556291392				0.703788079470199	-0.222834437086093	-0.644238410596026	1.42039735099338	0.997615894039735	-2.71470198675497			
175	3500	0.983841059602649	0.0507549668874172	0.056476821192053	1.71337748344371	3.4953642384106	-1.74490066225166				0.944953642384106	0.111788079470199	0.317139072847682	-0.686092715231788	1.98781456953642	-1.98596026490066				0.949827814569536	-0.145271523178808	-0.16794701986755	5.88741721854305	-1.53350993377483	-1.60026490066225				0.768529801324503	-0.112529801324503	-0.597721854304636	1.08291390728477	-1.4964238410596	0.224370860927152				0.932026490066225	0.0994966887417219	0.293933774834437	2.1917880794702	-0.788079470198675	0.782516556291392				0.687788079470199	-0.238834437086093	-0.628238410596026	1.42039735099338	0.437615894039735	-2.71470198675497			
176	3520	0.983841059602649	0.0507549668874172	0.056476821192053	1.99337748344371	1.2553642384106	-1.46490066225166				0.960953642384106	0.0797880794701987	0.301139072847682	3.79390728476821	0.587814569536424	-0.0259602649006601				0.933827814569536	-0.145271523178808	-0.15194701986755	7.28741721854305	-1.25350993377483	-0.76026490066225				0.752529801324503	-0.0965298013245033	-0.613721854304636	-1.43708609271523	-2.0564238410596	-0.0556291390728476				0.916026490066225	0.115496688741722	0.309933774834437	2.4717880794702	-1.62807947019868	-0.897483443708608				0.671788079470199	-0.238834437086093	-0.596238410596026	-1.09960264900662	0.437615894039735	-3.27470198675497			
177	3540	0.967841059602649	0.0347549668874172	0.072476821192053	3.11337748344371	-0.424635761589404	-0.904900662251656				0.960953642384106	0.0797880794701987	0.317139072847682	3.23390728476821	0.587814569536424	-0.585960264900661				0.949827814569536	-0.161271523178808	-0.13594701986755	3.64741721854305	-0.693509933774834	0.0797350993377501				0.752529801324503	-0.0805298013245033	-0.613721854304636	0.522913907284768	-1.7764238410596	-0.895629139072848				0.900026490066225	0.0994966887417219	0.325933774834437	3.5917880794702	-1.34807947019868	-0.617483443708608				0.687788079470199	-0.222834437086093	-0.628238410596026	0.300397350993377	3.23761589403974	-4.39470198675497			
