No	Time	12-AccX	12-AccY	12-AccZ	12-GyroX	12-GyroY	12-GyroZ	13-AccX	13-AccY	13-AccZ	13-GyroX	13-GyroY	13-GyroZ	14-AccX	14-AccY	14-AccZ	14-GyroX	14-GyroY	14-GyroZ	15-AccX	15-AccY	15-AccZ	15-GyroX	15-GyroY	15-GyroZ	16-AccX	16-AccY	16-AccZ	16-GyroX	16-GyroY	16-GyroZ	17-AccX	17-AccY	17-AccZ	17-GyroX	17-GyroY	17-GyroZ
0	0	0	0	0	0	0	0				0	0	0	0	0	0				0	0	0	0	0	0				0	0	0	0	0	0				0.948026490066225	0.0674966887417219	0.229933774834437	-2.2882119205298	-2.18807947019868	-1.17748344370861				0.543788079470199	-0.158834437086093	-0.804238410596027	6.74039735099338	-18.8823841059603	12.125298013245			
1	20	0	0	0	0	0	0				0	0	0	0	0	0				0	0	0	0	0	0				0.656529801324503	-0.0965298013245033	-0.709721854304636	-5.91708609271523	-18.8564238410596	10.3043708609272				0.932026490066225	0.0834966887417219	0.245933774834437	-1.4482119205298	-1.90807947019868	-0.617483443708608				0.527788079470199	-0.158834437086093	-0.788238410596027	6.74039735099338	-19.1623841059603	13.805298013245			
2	40	-0.216158940397351	0.146754966887417	-0.935523178807947	0.313377483443709	-0.424635761589404	0.495099337748344				0.928953642384106	0.0957880794701987	0.317139072847682	4.07390728476821	-6.69218543046358	-2.54596026490066				-0.234172185430464	-0.161271523178808	-0.87194701986755	-0.832582781456954	-0.973509933774833	0.35973509933775				0.656529801324503	-0.0805298013245033	-0.709721854304636	-7.31708609271523	-19.4164238410596	9.18437086092715				0.948026490066225	0.0674966887417219	0.229933774834437	-0.888211920529802	-2.74807947019868	-0.617483443708608				0.511788079470199	-0.126834437086093	-0.788238410596027	4.22039735099338	-15.5223841059603	12.405298013245			
3	60	-0.232158940397351	0.146754966887417	-0.935523178807947	-1.08662251655629	0.135364238410596	-0.0649006622516557				0.960953642384106	0.0957880794701987	0.317139072847682	2.95390728476821	-6.41218543046358	-2.54596026490066				-0.234172185430464	-0.161271523178808	-0.87194701986755	-0.272582781456954	0.146490066225167	-0.48026490066225				0.640529801324503	-0.0965298013245033	-0.709721854304636	-5.91708609271523	-17.7364238410596	7.22437086092715				0.948026490066225	0.0834966887417219	0.213933774834437	-0.328211920529802	-3.02807947019868	-0.337483443708608				0.495788079470199	-0.110834437086093	-0.772238410596026	5.90039735099338	-16.0823841059603	9.60529801324503			
4	80	-0.232158940397351	0.146754966887417	-0.951523178807947	-0.246622516556291	0.135364238410596	-0.904900662251656				0.944953642384106	0.0957880794701987	0.317139072847682	4.35390728476821	-6.41218543046358	-1.42596026490066				-0.234172185430464	-0.161271523178808	-0.87194701986755	0.00741721854304636	-0.133509933774833	-0.20026490066225				0.624529801324503	-0.0965298013245033	-0.709721854304636	-3.95708609271523	-15.7764238410596	5.82437086092715				0.948026490066225	0.0834966887417219	0.229933774834437	1.3517880794702	-3.02807947019868	-0.617483443708608				0.495788079470199	-0.126834437086093	-0.772238410596026	5.90039735099338	-14.1223841059603	6.52529801324503			
5	100	-0.232158940397351	0.162754966887417	-0.935523178807947	-1.08662251655629	0.975364238410596	-0.904900662251656				0.944953642384106	0.0957880794701987	0.333139072847682	5.19390728476821	-4.45218543046358	-0.585960264900661				-0.234172185430464	-0.161271523178808	-0.85594701986755	0.00741721854304636	0.706490066225167	-0.48026490066225				0.624529801324503	-0.0965298013245033	-0.725721854304636	-0.877086092715232	-12.1364238410596	5.54437086092715				0.932026490066225	0.0834966887417219	0.213933774834437	2.4717880794702	-3.02807947019868	-1.17748344370861				0.495788079470199	-0.126834437086093	-0.772238410596026	4.78039735099338	-12.4423841059603	4.84529801324503			
6	120	-0.200158940397351	0.146754966887417	-0.935523178807947	-1.92662251655629	0.975364238410596	-1.18490066225166				0.960953642384106	0.0957880794701987	0.333139072847682	4.91390728476821	-6.13218543046358	-1.42596026490066				-0.234172185430464	-0.177271523178808	-0.87194701986755	0.847417218543046	1.26649006622517	-0.48026490066225				0.592529801324503	-0.0965298013245033	-0.725721854304636	0.522913907284768	-9.8964238410596	5.26437086092715				0.948026490066225	0.0834966887417219	0.229933774834437	3.3117880794702	-3.58807947019868	-0.0574834437086077				0.479788079470199	-0.142834437086093	-0.772238410596026	1.70039735099338	-10.7623841059603	2.88529801324503			
7	140	-0.216158940397351	0.146754966887417	-0.935523178807947	-0.526622516556291	-0.144635761589404	-0.624900662251656				0.944953642384106	0.111788079470199	0.317139072847682	4.91390728476821	-9.49218543046358	-0.86596026490066				-0.234172185430464	-0.177271523178808	-0.87194701986755	1.12741721854305	0.426490066225167	-0.76026490066225				0.592529801324503	-0.112529801324503	-0.741721854304636	1.92291390728477	-7.6564238410596	5.54437086092715				0.948026490066225	0.115496688741722	0.213933774834437	3.0317880794702	-3.86807947019868	-0.897483443708608				0.479788079470199	-0.142834437086093	-0.772238410596026	1.70039735099338	-8.80238410596027	1.48529801324503			
8	160	-0.216158940397351	0.162754966887417	-0.935523178807947	0.873377483443709	0.415364238410596	-0.904900662251656				0.928953642384106	0.111788079470199	0.285139072847682	5.47390728476821	-8.93218543046358	0.25403973509934				-0.234172185430464	-0.161271523178808	-0.87194701986755	1.12741721854305	-0.693509933774834	-0.20026490066225				0.592529801324503	-0.112529801324503	-0.757721854304636	3.04291390728477	-6.5364238410596	4.42437086092715				0.932026490066225	0.0834966887417219	0.197933774834437	4.1517880794702	-3.58807947019868	-1.73748344370861				0.495788079470199	-0.142834437086093	-0.788238410596027	0.300397350993377	-8.52238410596027	-0.194701986754968			
9	180	-0.232158940397351	0.146754966887417	-0.935523178807947	0.0333774834437086	0.695364238410596	-0.904900662251656				0.944953642384106	0.0957880794701987	0.301139072847682	6.31390728476821	-5.01218543046358	1.09403973509934				-0.234172185430464	-0.161271523178808	-0.87194701986755	1.40741721854305	-0.413509933774833	0.63973509933775				0.592529801324503	-0.112529801324503	-0.757721854304636	1.64291390728477	-7.0964238410596	4.70437086092715				0.932026490066225	0.0834966887417219	0.213933774834437	4.7117880794702	-2.18807947019868	-1.73748344370861				0.495788079470199	-0.158834437086093	-0.804238410596027	0.860397350993377	-9.08238410596027	0.0852980132450323			
10	200	-0.232158940397351	0.146754966887417	-0.919523178807947	0.0333774834437086	-0.144635761589404	-0.904900662251656				0.944953642384106	0.0957880794701987	0.301139072847682	6.87390728476821	-3.05218543046358	2.21403973509934				-0.250172185430464	-0.161271523178808	-0.88794701986755	1.68741721854305	-0.133509933774833	0.0797350993377501				0.592529801324503	-0.112529801324503	-0.741721854304636	0.522913907284768	-6.2564238410596	3.86437086092715				0.948026490066225	0.0834966887417219	0.197933774834437	3.5917880794702	-3.30807947019868	-2.01748344370861				0.479788079470199	-0.174834437086093	-0.788238410596027	-0.539602649006623	-7.96238410596027	0.645298013245032			
11	220	-0.216158940397351	0.146754966887417	-0.935523178807947	-0.806622516556291	-0.704635761589404	-1.46490066225166				0.944953642384106	0.0797880794701987	0.285139072847682	4.07390728476821	-0.812185430463576	1.37403973509934				-0.234172185430464	-0.177271523178808	-0.87194701986755	1.68741721854305	0.146490066225167	-0.48026490066225				0.592529801324503	-0.112529801324503	-0.757721854304636	0.242913907284768	-7.3764238410596	4.42437086092715				0.948026490066225	0.0834966887417219	0.197933774834437	4.1517880794702	-4.14807947019868	-1.73748344370861				0.495788079470199	-0.158834437086093	-0.804238410596027	-1.93960264900662	-8.24238410596027	2.88529801324503			
12	240	-0.232158940397351	0.146754966887417	-0.951523178807947	-0.806622516556291	-0.144635761589404	-1.18490066225166				0.960953642384106	0.0957880794701987	0.301139072847682	1.27390728476821	0.867814569536424	1.09403973509934				-0.234172185430464	-0.177271523178808	-0.87194701986755	3.08741721854305	0.426490066225167	-1.60026490066225				0.592529801324503	-0.128529801324503	-0.757721854304636	-1.71708609271523	-6.8164238410596	4.14437086092715				0.948026490066225	0.0834966887417219	0.197933774834437	3.3117880794702	-3.58807947019868	-1.17748344370861				0.511788079470199	-0.174834437086093	-0.820238410596026	-0.819602649006623	-8.24238410596027	4.28529801324503			
13	260	-0.216158940397351	0.146754966887417	-0.951523178807947	0.0333774834437086	0.695364238410596	-1.18490066225166				0.960953642384106	0.0797880794701987	0.333139072847682	-0.686092715231788	1.14781456953642	1.93403973509934				-0.234172185430464	-0.177271523178808	-0.88794701986755	2.52741721854305	0.986490066225167	-1.32026490066225				0.576529801324503	-0.112529801324503	-0.757721854304636	-2.55708609271523	-6.5364238410596	4.70437086092715				0.932026490066225	0.0834966887417219	0.229933774834437	5.5517880794702	0.611920529801325	-0.897483443708608				0.495788079470199	-0.190834437086093	-0.804238410596027	0.300397350993377	-6.56238410596027	5.96529801324503			
14	280	-0.216158940397351	0.146754966887417	-0.935523178807947	0.313377483443709	0.695364238410596	-1.74490066225166				0.960953642384106	0.0797880794701987	0.333139072847682	-0.966092715231788	-0.532185430463576	0.81403973509934				-0.234172185430464	-0.177271523178808	-0.88794701986755	0.847417218543046	1.26649006622517	-1.60026490066225				0.576529801324503	-0.128529801324503	-0.757721854304636	-0.877086092715232	-4.2964238410596	5.26437086092715				0.948026490066225	0.0674966887417219	0.197933774834437	2.4717880794702	-3.58807947019868	-1.45748344370861				0.479788079470199	-0.174834437086093	-0.788238410596027	-0.539602649006623	-4.04238410596027	7.08529801324503			
15	300	-0.216158940397351	0.146754966887417	-0.935523178807947	0.0333774834437086	0.695364238410596	-0.624900662251656				0.944953642384106	0.0957880794701987	0.317139072847682	0.153907284768212	-1.09218543046358	1.93403973509934				-0.234172185430464	-0.177271523178808	-0.88794701986755	1.12741721854305	0.706490066225167	-0.76026490066225				0.592529801324503	-0.112529801324503	-0.741721854304636	-1.71708609271523	-3.7364238410596	4.98437086092715				0.948026490066225	0.0834966887417219	0.229933774834437	-2.2882119205298	0.0519205298013249	-1.73748344370861				0.495788079470199	-0.174834437086093	-0.804238410596027	-2.21960264900662	-4.04238410596027	9.32529801324503			
16	320	-0.232158940397351	0.146754966887417	-0.919523178807947	0.593377483443709	0.695364238410596	-0.344900662251656				0.944953642384106	0.0957880794701987	0.301139072847682	-0.686092715231788	0.0278145695364242	1.65403973509934				-0.218172185430464	-0.193271523178808	-0.87194701986755	2.80741721854305	0.986490066225167	-0.48026490066225				0.608529801324503	-0.0965298013245033	-0.757721854304636	-2.27708609271523	-4.0164238410596	4.70437086092715				0.932026490066225	0.0834966887417219	0.229933774834437	-2.2882119205298	0.331920529801325	-1.17748344370861				0.511788079470199	-0.190834437086093	-0.804238410596027	-2.21960264900662	-6.28238410596027	11.565298013245			
17	340	-0.216158940397351	0.146754966887417	-0.935523178807947	1.15337748344371	0.415364238410596	-0.624900662251656				0.960953642384106	0.0797880794701987	0.349139072847682	-2.08609271523179	1.42781456953642	1.93403973509934				-0.234172185430464	-0.177271523178808	-0.87194701986755	2.52741721854305	1.54649006622517	-0.20026490066225				0.608529801324503	-0.0805298013245033	-0.757721854304636	-2.55708609271523	-5.4164238410596	6.10437086092715				0.948026490066225	0.0834966887417219	0.229933774834437	-2.2882119205298	-1.34807947019868	-1.45748344370861				0.511788079470199	-0.190834437086093	-0.804238410596027	-0.259602649006623	-3.76238410596027	13.805298013245			
18	360	-0.232158940397351	0.146754966887417	-0.935523178807947	1.43337748344371	-0.144635761589404	-0.904900662251656				0.944953642384106	0.0797880794701987	0.333139072847682	-2.08609271523179	-1.37218543046358	1.65403973509934				-0.218172185430464	-0.193271523178808	-0.87194701986755	0.847417218543046	0.426490066225167	-0.20026490066225				0.608529801324503	-0.0965298013245033	-0.741721854304636	-4.51708609271523	-5.6964238410596	5.26437086092715				0.932026490066225	0.0834966887417219	0.245933774834437	0.231788079470198	-2.46807947019868	0.782516556291392				0.495788079470199	-0.174834437086093	-0.788238410596027	-0.539602649006623	-2.36238410596027	14.645298013245			
19	380	-0.216158940397351	0.146754966887417	-0.951523178807947	0.593377483443709	0.695364238410596	-0.904900662251656				0.944953642384106	0.0797880794701987	0.317139072847682	-3.76609271523179	-1.09218543046358	-0.585960264900661				-0.218172185430464	-0.193271523178808	-0.87194701986755	0.567417218543046	0.146490066225167	0.35973509933775				0.608529801324503	-0.112529801324503	-0.725721854304636	-6.19708609271523	-6.8164238410596	4.70437086092715				0.932026490066225	0.0834966887417219	0.229933774834437	-2.2882119205298	-2.74807947019868	1.34251655629139				0.495788079470199	-0.190834437086093	-0.788238410596027	-0.259602649006623	-1.80238410596026	15.485298013245			
20	400	-0.216158940397351	0.130754966887417	-0.935523178807947	-0.526622516556291	0.415364238410596	-0.904900662251656				0.944953642384106	0.0797880794701987	0.317139072847682	-4.60609271523179	-1.93218543046358	-0.0259602649006601				-0.218172185430464	-0.193271523178808	-0.87194701986755	1.40741721854305	0.706490066225167	-0.48026490066225				0.592529801324503	-0.112529801324503	-0.741721854304636	-3.95708609271523	-8.7764238410596	6.10437086092715				0.948026490066225	0.0834966887417219	0.245933774834437	-3.1282119205298	-3.30807947019868	1.34251655629139				0.495788079470199	-0.206834437086093	-0.788238410596027	-1.65960264900662	-2.08238410596027	15.765298013245			
21	420	-0.216158940397351	0.146754966887417	-0.935523178807947	-0.246622516556291	0.415364238410596	-1.74490066225166				0.944953642384106	0.0957880794701987	0.317139072847682	-4.04609271523179	-3.61218543046358	0.53403973509934				-0.218172185430464	-0.193271523178808	-0.87194701986755	0.847417218543046	0.706490066225167	-0.76026490066225				0.592529801324503	-0.0965298013245033	-0.741721854304636	0.802913907284768	-11.5764238410596	6.66437086092715				0.948026490066225	0.0674966887417219	0.245933774834437	-3.6882119205298	-2.74807947019868	1.90251655629139				0.495788079470199	-0.206834437086093	-0.788238410596027	-1.09960264900662	0.157615894039735	17.445298013245			
22	440	-0.216158940397351	0.146754966887417	-0.935523178807947	0.593377483443709	0.135364238410596	-0.624900662251656				0.944953642384106	0.0957880794701987	0.317139072847682	-1.80609271523179	-6.97218543046358	0.53403973509934				-0.234172185430464	-0.177271523178808	-0.87194701986755	-0.272582781456954	0.426490066225167	-0.20026490066225				0.608529801324503	-0.112529801324503	-0.757721854304636	-0.317086092715232	-13.2564238410596	4.98437086092715				0.932026490066225	0.0834966887417219	0.229933774834437	-3.1282119205298	-3.30807947019868	1.34251655629139				0.479788079470199	-0.222834437086093	-0.788238410596027	-2.21960264900662	1.83761589403974	17.725298013245			
23	460	-0.216158940397351	0.146754966887417	-0.935523178807947	0.313377483443709	-0.424635761589404	-0.0649006622516557				0.944953642384106	0.0797880794701987	0.301139072847682	-1.24609271523179	-4.73218543046358	-0.30596026490066				-0.234172185430464	-0.177271523178808	-0.87194701986755	0.567417218543046	0.146490066225167	0.35973509933775				0.624529801324503	-0.112529801324503	-0.773721854304636	-2.83708609271523	-14.0964238410596	4.42437086092715				0.948026490066225	0.0994966887417219	0.213933774834437	-2.2882119205298	-3.58807947019868	1.34251655629139				0.495788079470199	-0.222834437086093	-0.804238410596027	-5.57960264900662	2.67761589403974	18.845298013245			
24	480	-0.216158940397351	0.146754966887417	-0.935523178807947	0.593377483443709	0.415364238410596	-0.624900662251656				0.960953642384106	0.0797880794701987	0.317139072847682	-2.92609271523179	-3.05218543046358	-0.585960264900661				-0.234172185430464	-0.177271523178808	-0.87194701986755	2.24741721854305	0.986490066225167	0.35973509933775				0.608529801324503	-0.112529801324503	-0.789721854304636	-4.79708609271523	-14.9364238410596	4.42437086092715				0.948026490066225	0.0834966887417219	0.261933774834437	-1.4482119205298	-3.30807947019868	2.18251655629139				0.495788079470199	-0.206834437086093	-0.804238410596027	-7.81960264900662	1.55761589403974	23.045298013245			
25	500	-0.216158940397351	0.146754966887417	-0.951523178807947	0.313377483443709	-0.144635761589404	-0.344900662251656				0.960953642384106	0.0797880794701987	0.333139072847682	-4.32609271523179	-6.13218543046358	-0.86596026490066				-0.218172185430464	-0.193271523178808	-0.88794701986755	1.96741721854305	0.706490066225167	-0.76026490066225				0.592529801324503	-0.128529801324503	-0.773721854304636	-1.15708609271523	-20.2564238410596	4.98437086092715				0.948026490066225	0.0834966887417219	0.229933774834437	-2.0082119205298	-2.18807947019868	1.34251655629139				0.479788079470199	-0.222834437086093	-0.804238410596027	-8.93960264900662	4.63761589403974	23.605298013245			
26	520	-0.216158940397351	0.130754966887417	-0.951523178807947	0.0333774834437086	-0.704635761589404	-0.344900662251656				0.944953642384106	0.0797880794701987	0.333139072847682	-4.60609271523179	-7.81218543046358	-0.86596026490066				-0.218172185430464	-0.193271523178808	-0.87194701986755	1.96741721854305	1.26649006622517	-2.16026490066225				0.592529801324503	-0.112529801324503	-0.789721854304636	-6.19708609271523	-26.6964238410596	4.42437086092715				0.948026490066225	0.0514966887417219	0.229933774834437	-3.4082119205298	-1.06807947019868	0.502516556291392				0.479788079470199	-0.254834437086093	-0.772238410596026	-9.21960264900662	7.15761589403974	26.125298013245			
27	540	-0.216158940397351	0.130754966887417	-0.935523178807947	0.873377483443709	-0.144635761589404	-0.624900662251656				0.944953642384106	0.0637880794701987	0.317139072847682	-4.32609271523179	-8.09218543046358	-0.86596026490066				-0.234172185430464	-0.193271523178808	-0.87194701986755	0.847417218543046	1.54649006622517	-1.32026490066225				0.592529801324503	-0.0965298013245033	-0.789721854304636	-8.71708609271523	-27.2564238410596	-1.73562913907285				0.948026490066225	0.0514966887417219	0.229933774834437	-4.8082119205298	-1.34807947019868	0.502516556291392				0.479788079470199	-0.270834437086093	-0.772238410596026	-13.1396026490066	6.31761589403974	29.765298013245			
28	560	-0.232158940397351	0.146754966887417	-0.935523178807947	0.0333774834437086	-0.144635761589404	-1.18490066225166				0.960953642384106	0.0477880794701987	0.301139072847682	-7.12609271523179	-4.45218543046358	-1.42596026490066				-0.234172185430464	-0.193271523178808	-0.88794701986755	0.567417218543046	1.54649006622517	-1.60026490066225				0.592529801324503	-0.112529801324503	-0.805721854304636	-9.27708609271523	-26.4164238410596	-5.65562913907285				0.964026490066225	0.0674966887417219	0.197933774834437	-4.5282119205298	-1.34807947019868	0.782516556291392				0.463788079470199	-0.270834437086093	-0.772238410596026	-21.5396026490066	11.0776158940397	34.525298013245			
29	580	-0.232158940397351	0.162754966887417	-0.935523178807947	6.19337748344371	-0.424635761589404	-1.18490066225166				0.976953642384106	0.0797880794701987	0.317139072847682	-8.52609271523179	-7.25218543046358	-3.66596026490066				-0.218172185430464	-0.209271523178808	-0.88794701986755	0.287417218543046	1.26649006622517	-2.16026490066225				0.576529801324503	-0.128529801324503	-0.805721854304636	-8.43708609271523	-28.3764238410596	-5.93562913907285				0.964026490066225	0.0674966887417219	0.229933774834437	-1.4482119205298	-0.228079470198675	1.90251655629139				0.479788079470199	-0.254834437086093	-0.788238410596027	-27.9796026490066	15.2776158940397	43.765298013245			
30	600	-0.216158940397351	0.146754966887417	-0.919523178807947	0.0333774834437086	0.415364238410596	-0.904900662251656				0.944953642384106	0.0797880794701987	0.285139072847682	-6.56609271523179	-15.3721854304636	-4.22596026490066				-0.218172185430464	-0.209271523178808	-0.85594701986755	4.20741721854305	1.82649006622517	-2.44026490066225				0.512529801324503	-0.128529801324503	-0.805721854304636	-5.07708609271523	-28.9364238410596	-5.93562913907285				0.916026490066225	0.0674966887417219	0.197933774834437	-5.0882119205298	1.17192052980133	2.18251655629139				0.447788079470199	-0.238834437086093	-0.772238410596026	-31.8996026490066	25.6376158940397	49.925298013245			
31	620	-0.216158940397351	0.114754966887417	-0.951523178807947	-0.246622516556291	-0.984635761589404	0.495099337748344				0.928953642384106	0.0957880794701987	0.269139072847682	-6.84609271523179	-13.1321854304636	-4.50596026490066				-0.218172185430464	-0.177271523178808	-0.82394701986755	2.52741721854305	0.146490066225167	-1.60026490066225				0.544529801324503	-0.0805298013245033	-0.821721854304636	-12.6370860927152	-37.8964238410596	-6.77562913907285				0.900026490066225	0.0514966887417219	0.197933774834437	-1.7282119205298	2.01192052980133	1.06251655629139				0.447788079470199	-0.206834437086093	-0.772238410596026	-32.4596026490066	19.4776158940397	50.765298013245			
32	640	-0.232158940397351	0.114754966887417	-0.935523178807947	-3.32662251655629	0.695364238410596	0.215099337748344				0.944953642384106	0.0797880794701987	0.253139072847682	-2.92609271523179	-9.21218543046358	-3.66596026490066				-0.218172185430464	-0.209271523178808	-0.87194701986755	-1.95258278145695	-0.973509933774833	1.19973509933775				0.592529801324503	-0.0965298013245033	-0.869721854304636	-13.1970860927152	-45.1764238410596	-13.2156291390728				0.932026490066225	0.0354966887417219	0.197933774834437	-3.9682119205298	-1.62807947019868	0.502516556291392				0.479788079470199	-0.158834437086093	-0.820238410596026	-27.4196026490066	12.4776158940397	51.885298013245			
33	660	-0.232158940397351	0.130754966887417	-0.919523178807947	-5.84662251655629	0.135364238410596	-0.624900662251656				0.944953642384106	0.0797880794701987	0.269139072847682	-1.80609271523179	-6.13218543046358	-3.38596026490066				-0.186172185430464	-0.273271523178808	-0.87194701986755	-6.99258278145695	-0.973509933774833	3.71973509933775				0.624529801324503	-0.0965298013245033	-0.885721854304636	-23.8370860927152	-54.1364238410596	-12.0956291390728				0.948026490066225	0.0834966887417219	0.197933774834437	-2.2882119205298	-1.90807947019868	1.90251655629139				0.479788079470199	-0.142834437086093	-0.868238410596026	-19.2996026490066	11.0776158940397	55.805298013245			
34	680	-0.216158940397351	0.130754966887417	-0.967523178807947	-5.00662251655629	-0.704635761589404	0.215099337748344				0.944953642384106	0.0637880794701987	0.269139072847682	-4.88609271523179	-3.61218543046358	-3.38596026490066				-0.186172185430464	-0.305271523178808	-0.83994701986755	-6.43258278145695	-1.81350993377483	7.91973509933775				0.608529801324503	-0.144529801324503	-0.949721854304636	-21.5970860927152	-63.6564238410596	-13.7756291390728				0.932026490066225	0.0834966887417219	0.181933774834437	-0.608211920529802	-1.62807947019868	2.18251655629139				0.479788079470199	-0.190834437086093	-0.852238410596026	-19.0196026490066	16.3976158940397	57.485298013245			
35	700	-0.152158940397351	0.130754966887417	-0.967523178807947	-4.72662251655629	0.135364238410596	2.73509933774834				0.928953642384106	0.0317880794701987	0.317139072847682	-6.56609271523179	-0.812185430463576	-3.10596026490066				-0.154172185430464	-0.337271523178808	-0.80794701986755	-13.432582781457	-1.25350993377483	12.3997350993378				0.592529801324503	-0.112529801324503	-0.949721854304636	-32.5170860927152	-73.1764238410596	-21.3356291390729				0.932026490066225	0.0834966887417219	0.213933774834437	3.0317880794702	2.29192052980133	1.62251655629139				0.495788079470199	-0.222834437086093	-0.852238410596026	-10.0596026490066	9.11761589403974	57.765298013245			
36	720	-0.136158940397351	0.114754966887417	-0.951523178807947	-7.80662251655629	-0.984635761589404	4.97509933774835				0.912953642384106	0.0317880794701987	0.333139072847682	-5.44609271523179	-2.21218543046358	-1.98596026490066				-0.138172185430464	-0.289271523178808	-0.79194701986755	-15.672582781457	-0.133509933774833	17.7197350993378				0.560529801324503	-0.0645298013245033	-0.933721854304636	-54.9170860927152	-96.1364238410596	-25.5356291390728				0.948026490066225	0.0354966887417219	0.229933774834437	4.7117880794702	3.13192052980133	1.34251655629139				0.495788079470199	-0.238834437086093	-0.804238410596027	-8.93960264900662	-0.682384105960265	58.325298013245			
37	740	-0.168158940397351	0.0667549668874172	-0.967523178807947	-5.28662251655629	-4.0646357615894	5.81509933774834				0.896953642384106	0.0477880794701987	0.349139072847682	-8.80609271523179	1.98781456953642	-1.42596026490066				-0.202172185430464	-0.145271523178808	-0.88794701986755	-18.472582781457	-4.33350993377483	16.0397350993378				0.496529801324503	-0.000529801324503289	-0.885721854304636	-63.8770860927152	-96.1364238410596	-30.5756291390729				0.948026490066225	0.0354966887417219	0.245933774834437	2.4717880794702	-2.46807947019868	-2.85748344370861				0.479788079470199	-0.206834437086093	-0.820238410596026	-21.5396026490066	-6.00238410596027	59.725298013245			
38	760	-0.248158940397351	0.114754966887417	-0.951523178807947	-8.36662251655629	-4.9046357615894	3.85509933774834				0.944953642384106	0.0797880794701987	0.317139072847682	-13.5660927152318	7.86781456953642	-1.14596026490066				-0.234172185430464	-0.0652715231788079	-0.95194701986755	-6.15258278145695	-2.93350993377483	10.4397350993378				0.416529801324503	-0.0165298013245033	-0.869721854304636	-50.9970860927152	-97.8164238410596	-33.3756291390728				0.900026490066225	0.0514966887417219	0.245933774834437	3.3117880794702	-6.66807947019868	-5.09748344370861				0.447788079470199	-0.174834437086093	-0.836238410596026	-22.0996026490066	-13.0023841059603	60.285298013245			
39	780	-0.232158940397351	0.178754966887417	-1.01552317880795	-5.28662251655629	1.5353642384106	5.53509933774834				0.960953642384106	0.111788079470199	0.285139072847682	-18.0460927152318	11.7878145695364	-1.14596026490066				-0.250172185430464	-0.0332715231788079	-0.93594701986755	-10.912582781457	-0.693509933774834	5.11973509933775				0.384529801324503	-0.0165298013245033	-0.885721854304636	-44.5570860927152	-102.29642384106	-29.7356291390729				0.884026490066225	0.0834966887417219	0.229933774834437	1.0717880794702	-4.70807947019868	-5.09748344370861				0.415788079470199	-0.190834437086093	-0.884238410596026	15.9803973509934	-7.40238410596027	56.365298013245			
40	800	-0.216158940397351	0.242754966887417	-0.919523178807947	-6.12662251655629	6.8553642384106	11.1350993377483				0.944953642384106	0.127788079470199	0.285139072847682	-13.8460927152318	7.02781456953642	-3.94596026490066				-0.250172185430464	-0.0172715231788079	-0.85594701986755	-9.23258278145695	-0.413509933774833	1.19973509933775				0.336529801324503	-0.0165298013245033	-0.933721854304636	-36.7170860927152	-99.4964238410596	-26.6556291390729				0.964026490066225	0.0674966887417219	0.181933774834437	-0.888211920529802	-2.18807947019868	-5.93748344370861				0.495788079470199	-0.270834437086093	-0.852238410596026	21.3003973509934	-16.3623841059603	53.565298013245			
41	820	-0.216158940397351	0.210754966887417	-0.855523178807947	-27.9666225165563	-0.424635761589404	13.9350993377483				0.976953642384106	0.143788079470199	0.285139072847682	-7.12609271523179	-2.21218543046358	-5.06596026490066				-0.266172185430464	-0.0172715231788079	-0.83994701986755	-1.95258278145695	-4.61350993377483	-1.88026490066225				0.240529801324503	0.0314701986754967	-0.933721854304636	-29.7170860927152	-96.1364238410596	-26.6556291390729				0.996026490066225	0.0834966887417219	0.149933774834437	-0.888211920529802	1.17192052980133	-6.49748344370861				0.527788079470199	-0.270834437086093	-0.852238410596026	0.580397350993377	-39.8823841059603	55.245298013245			
42	840	-0.248158940397351	0.194754966887417	-0.919523178807947	-28.8066225165563	-6.0246357615894	11.4150993377483				1.00895364238411	0.143788079470199	0.205139072847682	-3.76609271523179	-8.37218543046358	-4.50596026490066				-0.282172185430464	-0.113271523178808	-0.90394701986755	-2.23258278145695	-7.41350993377483	-2.16026490066225				0.208529801324503	0.0154701986754967	-0.885721854304636	-29.9970860927152	-98.3764238410596	-24.4156291390728				0.996026490066225	0.0834966887417219	0.165933774834437	3.3117880794702	0.331920529801325	-3.69748344370861				0.447788079470199	-0.302834437086093	-0.868238410596026	-13.6996026490066	-43.8023841059603	58.885298013245			
43	860	-0.280158940397351	0.210754966887417	-0.999523178807947	-22.3666225165563	-2.9446357615894	6.37509933774834				1.00895364238411	0.127788079470199	0.109139072847682	-1.80609271523179	-3.61218543046358	-5.62596026490066				-0.314172185430464	-0.161271523178808	-0.93594701986755	-6.99258278145695	-6.29350993377483	-0.48026490066225				0.160529801324503	0.0154701986754967	-0.949721854304636	-25.2370860927152	-94.4564238410596	-17.9756291390729				1.02802649006623	0.0674966887417219	0.0699337748344371	-2.5682119205298	-4.42807947019868	-3.97748344370861				0.383788079470199	-0.270834437086093	-0.948238410596026	-28.2596026490066	-44.6423841059603	59.445298013245			
44	880	-0.264158940397351	0.274754966887417	-0.999523178807947	-26.5666225165563	0.135364238410596	7.49509933774834				0.992953642384106	0.127788079470199	0.205139072847682	0.713907284768212	10.9478145695364	-5.34596026490066				-0.298172185430464	-0.177271523178808	-0.88794701986755	-5.87258278145695	-0.693509933774834	2.03973509933775				0.0645298013245033	-0.000529801324503289	-0.981721854304636	-2.27708609271523	-84.0964238410596	-12.3756291390728				1.04402649006623	0.0994966887417219	0.101933774834437	-8.7282119205298	-3.30807947019868	-7.33748344370861				0.431788079470199	-0.158834437086093	-0.980238410596026	-19.2996026490066	-30.9223841059603	54.125298013245			
45	900	-0.200158940397351	0.274754966887417	-0.855523178807947	-50.3666225165563	-2.6646357615894	8.89509933774834				1.00895364238411	0.111788079470199	0.253139072847682	-1.52609271523179	1.70781456953642	-5.06596026490066				-0.250172185430464	-0.145271523178808	-0.82394701986755	1.68741721854305	0.706490066225167	2.87973509933775				0.0165298013245033	0.127470198675497	-1.07772185430464	-8.99708609271523	-89.1364238410596	-5.09562913907285				1.04402649006623	0.147496688741722	0.133933774834437	-3.9682119205298	1.73192052980133	-5.65748344370861				0.447788079470199	-0.126834437086093	-1.02823841059603	-17.3396026490066	-48.2823841059603	49.365298013245			
46	920	-0.152158940397351	0.226754966887417	-0.839523178807947	-44.4866225165563	-10.5046357615894	4.97509933774835				1.08895364238411	0.159788079470199	0.221139072847682	-9.08609271523179	-17.6121854304636	-4.78596026490066				-0.234172185430464	-0.129271523178808	-0.88794701986755	0.00741721854304636	-0.693509933774834	3.71973509933775				0.0485298013245033	0.239470198675497	-1.18972185430464	-7.03708609271523	-98.3764238410596	-0.335629139072848				0	0	0	0	0	0				0	0	0	0	0	0			
47	940	-0.328158940397351	0.210754966887417	-0.919523178807947	-13.1266225165563	-11.3446357615894	-3.14490066225166				1.12095364238411	0.223788079470199	0.141139072847682	1.27390728476821	-39.4521854304636	5.01403973509934				-0.330172185430464	-0.161271523178808	-0.95194701986755	2.80741721854305	-4.61350993377483	2.31973509933775				0.0805298013245033	0.0794701986754967	-1.26972185430464	18.4429139072848	-103.97642384106	-3.13562913907285				1.18802649006623	0.243496688741722	-0.0100662251655629	-13.2082119205298	-31.5880794701987	-2.01748344370861				0.383788079470199	-0.158834437086093	-1.15623841059603	-18.4596026490066	-79.0823841059603	45.165298013245			
48	960	-0.456158940397351	0.306754966887417	-0.919523178807947	-14.8066225165563	-1.5446357615894	-5.94490066225166				0	0	0	0	0	0				-0.314172185430464	-0.161271523178808	-0.77594701986755	42.8474172185431	-18.3335099337748	-3.00026490066225				-0.0154701986754967	-0.0645298013245033	-1.26972185430464	0.522913907284768	-121.61642384106	-15.7356291390728				1.10802649006623	0.211496688741722	-0.0260662251655629	-2.2882119205298	-22.3480794701987	-0.0574834437086077				0.367788079470199	-0.222834437086093	-1.18823841059603	-13.4196026490066	-92.2423841059603	49.645298013245			
49	980	0	0	0	0	0	0				0	0	0	0	0	0				0	0	0	0	0	0				-0.0634701986754967	-0.0485298013245033	-1.12572185430464	-47.6370860927152	-142.33642384106	-23.8556291390729				1.10802649006623	0.131496688741722	0.0219337748344371	-0.0482119205298018	-7.78807947019868	2.18251655629139				0.303788079470199	-0.254834437086093	-1.18823841059603	-19.5796026490066	-110.72238410596	55.525298013245			
50	1000	0	0	0	0	0	0				1.05695364238411	0.143788079470199	0.237139072847682	-21.1260927152318	37.2678145695364	15.0940397350993				-0.474172185430464	-0.129271523178808	-1.03194701986755	18.2074172185431	0.706490066225167	0.0797350993377501				-0.207470198675497	0.127470198675497	-1.06172185430464	-85.7170860927152	-144.85642384106	-29.7356291390729				1.17202649006623	0.115496688741722	0.00593377483443711	-0.0482119205298018	-5.82807947019868	6.10251655629139				0.111788079470199	-0.254834437086093	-1.18823841059603	-25.7396026490066	-116.32238410596	73.725298013245			
51	1020	-0.312158940397351	0.0507549668874172	-0.743523178807947	7.03337748344371	45.4953642384106	6.09509933774834				1.20095364238411	0.175788079470199	0.237139072847682	0.713907284768212	49.8678145695364	19.8540397350993				-0.394172185430464	-0.0972715231788079	-0.93594701986755	28.8474172185431	18.0664900662252	-5.52026490066225				-0.335470198675497	0.175470198675497	-1.09372185430464	-99.4370860927152	-115.17642384106	-23.2956291390729				1.26802649006623	0.0994966887417219	0.0219337748344371	-0.888211920529802	-18.9880794701987	10.5825165562914				0.0477880794701987	-0.270834437086093	-1.14023841059603	-13.9796026490066	-93.9223841059603	87.725298013245			
52	1040	-0.136158940397351	0.226754966887417	-1.38352317880795	0.313377483443709	57.2553642384106	4.13509933774834				1.16895364238411	0.159788079470199	0.253139072847682	-9.64609271523179	47.3478145695364	27.4140397350993				-0.442172185430464	-0.0972715231788079	-1.11194701986755	8.68741721854305	28.4264900662252	-13.0802649006623				-0.335470198675497	0.255470198675497	-1.04572185430464	-77.0370860927152	-67.5764238410596	-27.4956291390729				1.36402649006623	0.147496688741722	0.117933774834437	6.3917880794702	-32.9880794701987	10.8625165562914				0.143788079470199	-0.302834437086093	-1.12423841059603	-27.6996026490066	-92.8023841059603	103.405298013245			
53	1060	-0.040158940397351	0.850754966887417	-1.87952317880795	-54.2866225165563	42.9753642384106	7.49509933774834				1.10495364238411	0.0797880794701987	0.365139072847682	-32.8860927152318	59.6678145695364	27.6940397350993				-0.570172185430464	-0.193271523178808	-1.17594701986755	6.16741721854305	36.8264900662252	-23.1602649006623				-0.303470198675497	0.527470198675497	-0.725721854304636	-33.9170860927152	-37.8964238410596	-9.29562913907285				1.23602649006623	0.147496688741722	0.389933774834437	24.8717880794702	-25.9880794701987	7.78251655629139				0.207788079470199	-0.334834437086093	-1.07623841059603	-38.0596026490066	-79.9223841059603	118.805298013245			
54	1080	-0.264158940397351	0.658754966887417	-0.327523178807947	-8.64662251655629	56.9753642384106	-0.904900662251656				1.52095364238411	0.0157880794701987	0.557139072847682	-24.2060927152318	103.627814569536	19.8540397350993				-0.570172185430464	-0.113271523178808	-0.96794701986755	0.567417218543046	52.7864900662252	-28.4802649006623				-0.0794701986754967	0.399470198675497	-0.949721854304636	22.3629139072848	-27.2564238410596	5.26437086092715				1.12402649006623	0.115496688741722	0.581933774834437	22.3517880794702	-23.7480794701987	13.9425165562914				0.0637880794701987	-0.510834437086093	-0.932238410596026	-39.4596026490066	-52.7623841059603	114.045298013245			
55	1100	-0.456158940397351	0.226754966887417	-1.22352317880795	82.6333774834437	61.7353642384106	-1.74490066225166				1.50495364238411	0.127788079470199	1.27713907284768	-23.3660927152318	106.147814569536	6.97403973509934				-0.378172185430464	-0.129271523178808	-1.11194701986755	-12.592582781457	62.0264900662252	-27.9202649006623				-0.143470198675497	0.175470198675497	-1.42972185430464	53.1629139072848	21.1835761589404	33.8243708609272				1.30002649006623	0.195496688741722	0.677933774834437	2.7517880794702	1.17192052980133	14.2225165562914				0.0957880794701987	-0.334834437086093	-1.07623841059603	-34.1396026490066	18.6376158940397	84.085298013245			
56	1120	-0.136158940397351	0.274754966887417	-1.03152317880795	1.71337748344371	78.2553642384106	4.97509933774835				1.56895364238411	-0.0162119205298013	1.34113907284768	-3.48609271523179	38.6678145695364	8.93403973509934				-0.202172185430464	-0.257271523178808	-1.12794701986755	2.80741721854305	77.9864900662252	-37.1602649006623				-0.175470198675497	0.239470198675497	-1.46172185430464	10.6029139072848	78.8635761589404	53.9843708609272				1.44402649006623	0.163496688741722	0.741933774834437	13.3917880794702	15.7319205298013	9.46251655629139				0.223788079470199	-0.302834437086093	-1.15623841059603	7.30039735099338	55.8776158940397	70.365298013245			
57	1140	0.295841059602649	0.418754966887417	-1.25552317880795	5.07337748344371	92.8153642384106	-2.30490066225166				1.56895364238411	0.0957880794701987	0.909139072847682	44.3939072847682	-31.8921854304636	3.89403973509934				-0.0101721854304636	-0.385271523178808	-1.09594701986755	-20.432582781457	90.3064900662252	-40.5202649006623				-0.0474701986754967	0.623470198675497	-1.15772185430464	16.7629139072848	117.78357615894	67.4243708609272				1.50802649006623	0.0834966887417219	0.517933774834437	10.3117880794702	18.8119205298013	7.22251655629139				0.207788079470199	-0.462834437086093	-0.980238410596026	13.4603973509934	49.9976158940397	61.125298013245			
58	1160	0.087841059602649	0.114754966887417	-1.19152317880795	52.6733774834437	106.255364238411	1.61509933774834				1.23295364238411	0.0477880794701987	0.461139072847682	74.3539072847682	-69.1321854304636	10.8940397350993				0.0698278145695364	-0.337271523178808	-1.07994701986755	-22.672582781457	102.066490066225	-34.0802649006623				0.160529801324503	0.527470198675497	-1.01372185430464	70.8029139072848	99.8635761589404	83.1043708609272				1.42802649006623	0.147496688741722	0.277933774834437	11.7117880794702	7.89192052980133	1.90251655629139				0.191788079470199	-0.606834437086093	-0.916238410596027	-2.21960264900662	83.3176158940397	40.125298013245			
59	1180	-0.056158940397351	0.0187549668874172	-1.22352317880795	30.8333774834437	116.895364238411	7.49509933774834				1.12095364238411	-0.112211920529801	0.509139072847682	16.6739072847682	-29.3721854304636	15.3740397350993				0.149827814569536	-0.257271523178808	-1.04794701986755	-14.552582781457	109.066490066225	-22.3202649006623				0.336529801324503	0.223470198675497	-1.36572185430464	96.8429139072848	93.4235761589404	80.0243708609272				1.18802649006623	0.211496688741722	0.405933774834437	11.7117880794702	-8.06807947019868	6.94251655629139				0.271788079470199	-0.606834437086093	-0.996238410596026	-0.259602649006623	134.83761589404	36.205298013245			
60	1200	0.119841059602649	0.0187549668874172	-1.15952317880795	7.31337748344371	132.575364238411	11.1350993377483				1.34495364238411	0.0157880794701987	0.717139072847682	2.39390728476821	-36.3721854304636	17.3340397350993				0.133827814569536	-0.321271523178808	-1.07994701986755	11.487417218543	114.946490066225	-14.4802649006623				0.304529801324503	-0.0645298013245033	-1.52572185430464	65.2029139072848	115.54357615894	69.3843708609272				1.30002649006623	0.0994966887417219	0.357933774834437	11.1517880794702	-3.30807947019868	6.66251655629139				0.335788079470199	-0.494834437086093	-1.06023841059603	28.0203973509934	127.83761589404	34.805298013245			
61	1220	0.087841059602649	0.226754966887417	-1.06352317880795	22.1533774834437	140.695364238411	17.8550993377483				1.55295364238411	0.0317880794701987	0.605139072847682	13.8739072847682	-88.4521854304636	22.0940397350993				0.133827814569536	-0.321271523178808	-0.96794701986755	9.24741721854305	131.186490066225	-10.2802649006622				0.112529801324503	-0.0485298013245033	-1.30172185430464	29.6429139072848	145.22357615894	51.7443708609272				1.30002649006623	-0.0125033112582781	0.325933774834437	13.9517880794702	3.13192052980133	1.06251655629139				0.271788079470199	-0.494834437086093	-1.10823841059603	53.2203973509934	111.03761589404	34.805298013245			
62	1240	0.167841059602649	0.178754966887417	-1.03152317880795	33.6333774834437	146.855364238411	22.6150993377483				1.20095364238411	-0.0482119205298013	0.541139072847682	-13.8460927152318	-86.2121854304636	19.0140397350993				0.149827814569536	-0.225271523178808	-0.98394701986755	19.8874172185431	142.386490066225	-3.00026490066225				-0.0314701986754967	0.0154701986754967	-0.997721854304636	26.8429139072848	141.58357615894	55.3843708609272				1.12402649006623	-0.188503311258278	0.245933774834437	-1.4482119205298	7.33192052980133	-3.41748344370861				0.255788079470199	-0.526834437086093	-0.964238410596026	36.9803973509934	123.07761589404	35.645298013245			
63	1260	0.215841059602649	0.0667549668874172	-1.01552317880795	21.3133774834437	145.455364238411	23.4550993377483				1.04095364238411	-0.0642119205298013	0.381139072847682	-4.04609271523179	-59.3321854304636	7.81403973509934				0.261827814569536	-0.241271523178808	-0.90394701986755	27.1674172185431	152.466490066225	6.51973509933775				-0.0154701986754967	0.127470198675497	-0.981721854304636	16.7629139072848	129.82357615894	48.3843708609272				1.01202649006623	-0.108503311258278	0.261933774834437	-31.1282119205298	18.5319205298013	-12.6574834437086				0.303788079470199	-0.318834437086093	-0.836238410596026	19.3403973509934	146.31761589404	35.085298013245			
64	1280	0.311841059602649	-0.0132450331125828	-0.983523178807947	14.5933774834437	146.855364238411	30.7350993377483				1.15295364238411	-0.192211920529801	0.285139072847682	-0.406092715231788	-67.4521854304636	2.49403973509934				0.453827814569536	-0.369271523178808	-0.83994701986755	14.567417218543	166.746490066225	10.1597350993378				0.112529801324503	0.0634701986754967	-0.965721854304636	28.8029139072848	127.58357615894	50.0643708609272				0.980026490066225	0.0834966887417219	0.165933774834437	-31.9682119205298	10.6919205298013	-8.17748344370861				0.239788079470199	-0.286834437086093	-0.660238410596027	46.7803973509934	157.51761589404	28.925298013245			
65	1300	0.359841059602649	0.0347549668874172	-0.855523178807947	6.75337748344371	144.895364238411	30.1750993377483				0.960953642384106	-0.0482119205298013	-0.0348609271523178	-2.64609271523179	-101.892185430464	-4.78596026490066				0.517827814569536	-0.353271523178808	-0.80794701986755	-19.872582781457	165.346490066225	5.39973509933775				0.192529801324503	-0.0325298013245033	-0.805721854304636	46.4429139072848	144.66357615894	45.8643708609272				0.996026490066225	-0.0605033112582781	0.0379337748344371	-12.3682119205298	6.49192052980132	-1.17748344370861				0.255788079470199	-0.222834437086093	-0.628238410596026	60.7803973509934	153.59761589404	9.88529801324503			
66	1320	0.407841059602649	0.0987549668874172	-0.775523178807947	4.79337748344371	139.855364238411	24.0150993377483				0.832953642384106	0.0317880794701987	-0.0348609271523178	-10.4860927152318	-65.2121854304636	0.81403973509934				0.501827814569536	-0.161271523178808	-0.72794701986755	-50.672582781457	164.226490066225	2.59973509933775				0.224529801324503	0.0634701986754967	-0.725721854304636	44.7629139072848	149.14357615894	31.3043708609272				0.932026490066225	-0.0445033112582781	0.117933774834437	-23.0082119205298	10.6919205298013	-10.9774834437086				0.351788079470199	-0.238834437086093	-0.596238410596026	63.5803973509934	158.91761589404	-6.63470198675497			
67	1340	0.439841059602649	0.114754966887417	-0.839523178807947	-3.88662251655629	131.455364238411	22.3350993377483				0.912953642384106	0.0157880794701987	-0.00286092715231785	-17.2060927152318	-54.5721854304636	1.93403973509934				0.421827814569536	-0.0172715231788079	-0.66394701986755	-38.632582781457	160.026490066225	-1.04026490066225				0.288529801324503	0.127470198675497	-0.789721854304636	53.7229139072848	144.94357615894	27.3843708609272				0.916026490066225	0.115496688741722	0.0379337748344371	-35.6082119205298	-18.4280794701987	-9.29748344370861				0.479788079470199	-0.286834437086093	-0.644238410596026	34.7403973509934	166.19761589404	-20.074701986755			
68	1360	0.455841059602649	0.0507549668874172	-0.727523178807947	-4.44662251655629	133.415364238411	22.3350993377483				0.784953642384106	0.0957880794701987	-0.130860927152318	-13.8460927152318	-56.5321854304636	0.53403973509934				0.357827814569536	-0.00127152317880793	-0.58394701986755	-28.552582781457	155.826490066225	-1.88026490066225				0.400529801324503	-0.144529801324503	-0.869721854304636	54.2829139072848	147.74357615894	22.9043708609272				0.868026490066225	0.0994966887417219	-0.122066225165563	-26.6482119205298	-32.9880794701987	0.782516556291392				0.607788079470199	-0.254834437086093	-0.724238410596026	15.4203973509934	176.83761589404	-22.874701986755			
69	1380	0.423841059602649	0.0347549668874172	-0.711523178807947	0.873377483443709	136.495364238411	24.5750993377483				0.720953642384106	0.143788079470199	-0.0348609271523178	4.91390728476821	-54.8521854304636	-3.94596026490066				0.261827814569536	-0.0332715231788079	-0.59994701986755	-19.592582781457	154.986490066225	-0.20026490066225				0.416529801324503	-0.208529801324503	-0.725721854304636	33.2829139072848	135.14357615894	-9.29562913907285				0.740026490066225	-0.0285033112582781	-0.0100662251655629	-9.2882119205298	-11.7080794701987	3.58251655629139				0.495788079470199	-0.222834437086093	-0.660238410596027	21.3003973509934	163.39761589404	-18.114701986755			
70	1400	0.343841059602649	0.0827549668874172	-0.679523178807947	-5.56662251655629	138.175364238411	23.4550993377483				0.736953642384106	-0.0322119205298013	0.0931390728476822	-2.08609271523179	-66.6121854304636	-3.38596026490066				0.261827814569536	0.0467284768211921	-0.61594701986755	-36.392582781457	153.586490066225	2.87973509933775				0.320529801324503	0.0314701986754967	-0.581721854304636	-0.597086092715232	112.46357615894	-22.7356291390728				0.612026490066225	0.0674966887417219	0.0539337748344371	-23.8482119205298	-9.18807947019868	-4.25748344370861				0.367788079470199	-0.206834437086093	-0.644238410596026	31.3803973509934	147.71761589404	-15.594701986755			
71	1420	0.311841059602649	0.130754966887417	-0.647523178807947	-6.68662251655629	141.815364238411	22.8950993377483				0.576953642384106	0.127788079470199	-0.210860927152318	-16.9260927152318	-70.2521854304636	-11.7859602649007				0.309827814569536	-0.0812715231788079	-0.67994701986755	-53.752582781457	154.706490066225	6.23973509933775				0.272529801324503	0.0634701986754967	-0.517721854304636	2.76291390728477	99.3035761589404	-19.6556291390729				0.612026490066225	0.115496688741722	-0.0420662251655629	-23.5682119205298	-36.6280794701987	-4.25748344370861				0.431788079470199	-0.222834437086093	-0.564238410596026	20.7403973509934	129.23761589404	-12.514701986755			
72	1440	0.343841059602649	0.194754966887417	-0.599523178807947	2.83337748344371	141.815364238411	18.9750993377483				0.512953642384106	0.0797880794701987	-0.178860927152318	-14.1260927152318	-40.0121854304636	-2.82596026490066				0.357827814569536	-0.0492715231788079	-0.63194701986755	-55.432582781457	160.026490066225	10.1597350993378				0.288529801324503	0.0154701986754967	-0.549721854304636	13.1229139072848	94.2635761589404	-18.5356291390728				0.564026490066225	0.0834966887417219	-0.0900662251655629	-19.0882119205298	-41.3880794701987	-6.49748344370861				0.575788079470199	-0.206834437086093	-0.500238410596026	6.74039735099338	114.39761589404	-1.87470198675497			
73	1460	0.439841059602649	0.242754966887417	-0.583523178807947	11.5133774834437	143.495364238411	16.7350993377483				0.544953642384106	-0.0642119205298013	0.0451390728476822	-8.24609271523179	-38.3321854304636	3.61403973509934				0.485827814569536	0.0307284768211921	-0.64794701986755	-60.752582781457	166.186490066225	8.75973509933775				0.272529801324503	-0.000529801324503289	-0.517721854304636	19.0029139072848	95.1035761589404	-26.6556291390729				0.532026490066225	0.0194966887417219	-0.0260662251655629	-15.4482119205298	-31.3080794701987	-5.37748344370861				0.527788079470199	-0.190834437086093	-0.500238410596026	-25.1796026490066	104.03761589404	1.76529801324503			
74	1480	0.503841059602649	0.178754966887417	-0.487523178807947	10.6733774834437	145.735364238411	20.9350993377483				0.480953642384106	0.0157880794701987	-0.0668609271523178	-25.8860927152318	-58.2121854304636	-4.78596026490066				0.549827814569536	0.0467284768211921	-0.58394701986755	-57.672582781457	149.386490066225	4.27973509933775				0.272529801324503	-0.0325298013245033	-0.469721854304636	33.8429139072848	83.3435761589404	-24.4156291390728				0.516026490066225	-0.0285033112582781	0.0379337748344371	-16.8482119205298	-25.1480794701987	-0.0574834437086077				0.463788079470199	-0.142834437086093	-0.500238410596026	-8.93960264900662	80.2376158940397	-4.39470198675497			
75	1500	0.439841059602649	0.162754966887417	-0.583523178807947	5.35337748344371	133.975364238411	22.8950993377483				0.512953642384106	0.0957880794701987	-0.114860927152318	-28.6860927152318	-39.7321854304636	-8.14596026490066				0.469827814569536	-0.0172715231788079	-0.48794701986755	-48.712582781457	122.506490066225	1.47973509933775				0.272529801324503	-0.0805298013245033	-0.517721854304636	28.5229139072848	55.0635761589404	-18.2556291390728				0.484026490066225	0.0834966887417219	0.0539337748344371	-19.3682119205298	-33.2680794701987	1.62251655629139				0.399788079470199	-0.206834437086093	-0.372238410596026	-0.259602649006623	67.3576158940397	-1.87470198675497			
76	1520	0.503841059602649	0.162754966887417	-0.535523178807947	4.23337748344371	124.735364238411	17.8550993377483				0.544953642384106	0.0157880794701987	-0.0668609271523178	-17.4860927152318	-39.1721854304636	-1.70596026490066				0.453827814569536	-0.00127152317880793	-0.50394701986755	-52.912582781457	113.826490066225	-1.32026490066225				0.384529801324503	-0.160529801324503	-0.597721854304636	11.4429139072848	42.7435761589404	-13.2156291390728				0.500026490066225	0.0994966887417219	-0.0580662251655629	-19.0882119205298	-36.0680794701987	0.502516556291392				0.543788079470199	-0.206834437086093	-0.324238410596026	-8.37960264900662	63.7176158940397	4.28529801324503			
77	1540	0.631841059602649	0.146754966887417	-0.519523178807947	11.7933774834437	114.095364238411	8.89509933774834				0.576953642384106	0.0637880794701987	-0.0668609271523178	-18.6060927152318	-40.8521854304636	-3.10596026490066				0.581827814569536	0.0467284768211921	-0.42394701986755	-59.072582781457	107.386490066225	-3.28026490066225				0.560529801324503	-0.176529801324503	-0.613721854304636	13.6829139072848	39.1035761589404	-8.45562913907285				0.580026490066225	0.0354966887417219	-0.0100662251655629	-15.7282119205298	-21.5080794701987	0.502516556291392				0.575788079470199	-0.142834437086093	-0.388238410596026	-14.2596026490066	46.0776158940397	6.24529801324503			
78	1560	0.679841059602649	0.210754966887417	-0.487523178807947	12.0733774834437	99.8153642384106	6.37509933774834				0.560953642384106	0.0797880794701987	0.0291390728476822	-14.9660927152318	-37.4921854304636	-2.82596026490066				0.613827814569536	0.142728476821192	-0.45594701986755	-37.512582781457	105.146490066225	-4.68026490066225				0.496529801324503	-0.112529801324503	-0.565721854304636	10.0429139072848	22.3035761589404	-2.85562913907285				0.628026490066225	0.0674966887417219	0.0379337748344371	-21.6082119205298	-23.7480794701987	-0.337483443708608				0.495788079470199	-0.110834437086093	-0.356238410596026	-24.8996026490066	35.7176158940397	-1.59470198675497			
79	1580	0.663841059602649	0.0987549668874172	-0.439523178807947	8.15337748344371	100.375364238411	11.1350993377483				0.640953642384106	0.0957880794701987	0.0131390728476822	-9.92609271523179	-29.6521854304636	-2.54596026490066				0.677827814569536	0.126728476821192	-0.26394701986755	-34.712582781457	105.986490066225	-8.04026490066225				0.464529801324503	-0.0485298013245033	-0.597721854304636	-15.7170860927152	-10.4564238410596	6.94437086092715				0.660026490066225	0.0834966887417219	0.0699337748344371	-20.4882119205298	-20.3880794701987	-2.29748344370861				0.511788079470199	-0.222834437086093	-0.356238410596026	-23.7796026490066	29.5576158940397	-7.47470198675497			
80	1600	0.743841059602649	0.00275496688741723	-0.407523178807947	18.2333774834437	88.8953642384106	11.9750993377483				0.720953642384106	-0.000211920529801304	0.109139072847682	-19.4460927152318	-29.9321854304636	-2.82596026490066				0.837827814569536	0.0307284768211921	-0.45594701986755	-31.352582781457	77.9864900662252	-2.16026490066225				0.528529801324503	-0.0805298013245033	-0.629721854304636	-23.8370860927152	-17.7364238410596	12.8243708609272				0.724026490066225	0.0514966887417219	0.0219337748344371	-22.7282119205298	-27.9480794701987	-1.73748344370861				0.623788079470199	-0.286834437086093	-0.404238410596026	-18.4596026490066	25.6376158940397	-5.23470198675497			
81	1620	0.791841059602649	0.0347549668874172	-0.487523178807947	-7.80662251655629	62.2953642384106	10.8550993377483				0.688953642384106	-0.000211920529801304	-0.0828609271523179	-31.7660927152318	-37.4921854304636	-4.50596026490066				0.837827814569536	-0.0972715231788079	-0.42394701986755	-5.59258278145695	65.1064900662252	1.47973509933775				0.480529801324503	-0.112529801324503	-0.613721854304636	-12.9170860927152	-14.6564238410596	12.5443708609272				0.756026490066225	0.00349668874172187	0.00593377483443711	-20.7682119205298	-25.4280794701987	-3.13748344370861				0.671788079470199	-0.238834437086093	-0.468238410596026	-34.1396026490066	18.9176158940397	-1.31470198675497			
82	1640	0.839841059602649	0.00275496688741723	-0.391523178807947	-16.4866225165563	57.2553642384106	4.41509933774834				0.768953642384106	-0.0482119205298013	-0.0348609271523178	-34.2860927152318	-13.6921854304636	-4.50596026490066				0.853827814569536	-0.209271523178808	-0.24794701986755	-18.752582781457	52.7864900662252	6.51973509933775				0.416529801324503	-0.0965298013245033	-0.613721854304636	-11.7970860927152	-14.9364238410596	11.4243708609272				0.756026490066225	0.0194966887417219	0.0539337748344371	-25.2482119205298	-15.0680794701987	-5.37748344370861				0.575788079470199	-0.238834437086093	-0.436238410596026	-27.4196026490066	10.5176158940397	-6.35470198675497			
83	1660	0.807841059602649	0.0827549668874172	-0.327523178807947	-18.1666225165563	49.1353642384106	6.09509933774834				0.768953642384106	0.0317880794701987	0.157139072847682	-35.6860927152318	-12.8521854304636	-6.18596026490066				0.821827814569536	-0.161271523178808	-0.27994701986755	-31.632582781457	36.8264900662252	6.51973509933775				0.464529801324503	-0.0805298013245033	-0.597721854304636	-18.5170860927152	-8.2164238410596	13.9443708609272				0.804026490066225	0.0514966887417219	0.00593377483443711	-31.1282119205298	-18.7080794701987	-6.21748344370861				0.591788079470199	-0.270834437086093	-0.404238410596026	-21.8196026490066	12.7576158940397	-5.51470198675497			
84	1680	0.807841059602649	0.00275496688741723	-0.327523178807947	-23.7666225165563	49.9753642384106	10.5750993377483				0.784953642384106	-0.000211920529801304	-0.00286092715231785	-39.3260927152318	-24.8921854304636	-0.0259602649006601				0.885827814569536	-0.113271523178808	-0.37594701986755	-52.352582781457	25.0664900662252	9.87973509933775				0.512529801324503	-0.0485298013245033	-0.693721854304636	-8.43708609271523	-2.3364238410596	19.2643708609272				0.852026490066225	0.0834966887417219	-0.0100662251655629	-30.8482119205298	-16.4680794701987	-7.61748344370861				0.719788079470199	-0.302834437086093	-0.452238410596026	-24.6196026490066	14.9976158940397	-2.71470198675497			
85	1700	0.967841059602649	-0.0772450331125828	-0.343523178807947	-15.6466225165563	50.5353642384106	9.17509933774834				0.912953642384106	-0.0482119205298013	-0.130860927152318	-52.4860927152318	-13.9721854304636	-2.82596026490066				0.997827814569536	-0.0332715231788079	-0.40794701986755	-61.872582781457	4.06649006622517	17.1597350993378				0.560529801324503	-0.112529801324503	-0.805721854304636	4.16291390728477	1.5835761589404	22.9043708609272				0.916026490066225	-0.0125033112582781	-0.0100662251655629	-28.3282119205298	-12.5480794701987	-5.09748344370861				0.799788079470199	-0.286834437086093	-0.500238410596026	-24.6196026490066	16.1176158940397	-0.754701986754968			
86	1720	1.01584105960265	-0.0612450331125828	-0.359523178807947	-39.1666225165563	41.2953642384106	6.37509933774834				0.960953642384106	0.0317880794701987	-0.0188609271523178	-44.3660927152318	-8.37218543046358	-9.26596026490066				0.837827814569536	-0.0332715231788079	-0.47194701986755	-57.672582781457	-12.4535099337748	22.4797350993378				0.608529801324503	-0.176529801324503	-0.709721854304636	-6.47708609271523	-1.2164238410596	17.5843708609272				0.916026490066225	-0.0125033112582781	0.00593377483443711	-32.8082119205298	-11.1480794701987	-0.897483443708608				0.735788079470199	-0.302834437086093	-0.532238410596027	-13.6996026490066	15.5576158940397	0.0852980132450323			
87	1740	0.871841059602649	0.0507549668874172	-0.279523178807947	-45.6066225165563	33.7353642384106	7.49509933774834				0.864953642384106	0.0637880794701987	-0.114860927152318	-25.6060927152318	-10.6121854304636	-9.54596026490066				0.821827814569536	-0.0492715231788079	-0.42394701986755	-42.552582781457	-16.9335099337748	19.9597350993378				0.608529801324503	-0.112529801324503	-0.725721854304636	-26.6370860927152	-13.5364238410596	11.9843708609272				0.884026490066225	0.0674966887417219	0.0379337748344371	-36.7282119205298	-4.98807947019868	-2.57748344370861				0.719788079470199	-0.334834437086093	-0.564238410596026	-12.2996026490066	14.4376158940397	-0.754701986754968			
88	1760	0.855841059602649	0.0987549668874172	-0.295523178807947	-38.0466225165563	30.0953642384106	8.61509933774835				0.960953642384106	0.0157880794701987	-0.114860927152318	-23.6460927152318	6.74781456953642	-4.50596026490066				0.917827814569536	0.0467284768211921	-0.43994701986755	-23.792582781457	-23.3735099337748	12.1197350993378				0.720529801324503	-0.0805298013245033	-0.741721854304636	-19.9170860927152	-9.3364238410596	9.18437086092715				0.932026490066225	0.0834966887417219	-0.0100662251655629	-31.1282119205298	-2.74807947019868	-3.41748344370861				0.783788079470199	-0.286834437086093	-0.548238410596027	-15.3796026490066	11.3576158940397	0.0852980132450323			
89	1780	0.967841059602649	0.0347549668874172	-0.311523178807947	-19.2866225165563	28.6953642384106	1.33509933774834				1.05695364238411	0.0957880794701987	-0.0828609271523179	-19.4460927152318	6.46781456953642	-6.18596026490066				0.853827814569536	0.0467284768211921	-0.47194701986755	-15.112582781457	-15.5335099337748	3.71973509933775				0.752529801324503	-0.0485298013245033	-0.677721854304636	-17.6770860927152	2.7035761589404	0.784370860927152				0.980026490066225	0.0674966887417219	0.0219337748344371	-22.7282119205298	2.01192052980133	-1.73748344370861				0.767788079470199	-0.270834437086093	-0.580238410596026	-13.1396026490066	14.9976158940397	7.92529801324503			
90	1800	0.919841059602649	0.0987549668874172	-0.199523178807947	-3.32662251655629	19.7353642384106	-3.42490066225166				1.00895364238411	0.0477880794701987	-0.0828609271523179	-5.72609271523179	3.66781456953642	-4.78596026490066				0.677827814569536	0.0627284768211921	-0.40794701986755	-23.792582781457	11.9064900662252	5.67973509933775				0.704529801324503	0.0314701986754967	-0.549721854304636	-17.9570860927152	5.7835761589404	-3.69562913907285				0.996026490066225	0.115496688741722	0.00593377483443711	-17.1282119205298	5.37192052980133	-0.897483443708608				0.751788079470199	-0.286834437086093	-0.580238410596026	-1.37960264900662	16.9576158940397	9.04529801324503			
91	1820	0.855841059602649	0.0507549668874172	-0.279523178807947	5.35337748344371	22.8153642384106	-1.18490066225166				0.976953642384106	0.0477880794701987	-0.114860927152318	-4.88609271523179	-0.252185430463576	-3.10596026490066				0.741827814569536	0.0467284768211921	-0.24794701986755	-40.312582781457	35.9864900662252	10.1597350993378				0.672529801324503	0.111470198675497	-0.597721854304636	-8.15708609271523	3.2635761589404	-1.73562913907285				0.980026490066225	0.0994966887417219	0.0219337748344371	-10.9682119205298	0.0519205298013249	0.502516556291392				0.767788079470199	-0.286834437086093	-0.564238410596026	0.0203973509933773	9.11761589403974	6.80529801324503			
92	1840	0.903841059602649	-0.0452450331125828	-0.295523178807947	8.99337748344371	24.2153642384106	0.215099337748344				0.912953642384106	0.0317880794701987	-0.162860927152318	-8.52609271523179	2.54781456953642	-0.0259602649006601				0.837827814569536	0.0467284768211921	-0.24794701986755	-34.432582781457	42.9864900662252	8.47973509933775				0.720529801324503	0.0474701986754967	-0.661721854304636	12.5629139072848	6.0635761589404	-0.895629139072848				0.948026490066225	0.0994966887417219	0.0539337748344371	-1.7282119205298	-2.74807947019868	4.14251655629139				0.799788079470199	-0.270834437086093	-0.564238410596026	-1.09960264900662	9.95761589403974	6.52529801324503			
93	1860	0.967841059602649	0.00275496688741723	-0.231523178807947	11.2333774834437	25.0553642384106	-3.70490066225166				0.944953642384106	0.0317880794701987	-0.0508609271523178	-11.8860927152318	5.34781456953642	1.37403973509934				0.933827814569536	-0.177271523178808	-0.34394701986755	-23.232582781457	36.8264900662252	1.75973509933775				0.704529801324503	-0.000529801324503289	-0.629721854304636	17.0429139072848	6.3435761589404	-1.73562913907285				0.932026490066225	0.0834966887417219	0.0699337748344371	3.0317880794702	-2.18807947019868	4.98251655629139				0.767788079470199	-0.302834437086093	-0.564238410596026	0.860397350993377	5.19761589403974	13.525298013245			
94	1880	0.935841059602649	0.0827549668874172	-0.247523178807947	4.79337748344371	17.2153642384106	-5.66490066225166				0.928953642384106	0.0477880794701987	-0.0508609271523178	1.83390728476821	-6.13218543046358	2.77403973509934				0.821827814569536	-0.0332715231788079	-0.40794701986755	-38.072582781457	32.6264900662252	0.0797350993377501				0.688529801324503	0.0154701986754967	-0.597721854304636	9.76291390728477	-0.6564238410596	-5.37562913907285				0.948026490066225	0.0674966887417219	0.0539337748344371	7.5117880794702	-1.62807947019868	6.38251655629139				0.735788079470199	-0.334834437086093	-0.500238410596026	3.66039735099338	-0.402384105960265	10.725298013245			
95	1900	0.887841059602649	0.114754966887417	-0.231523178807947	6.19337748344371	5.4553642384106	-5.66490066225166				0.944953642384106	0.0317880794701987	-0.0988609271523179	18.3539072847682	-3.89218543046358	6.13403973509934				0.901827814569536	0.142728476821192	-0.35994701986755	-8.11258278145695	28.1464900662252	-0.48026490066225				0.688529801324503	0.0154701986754967	-0.613721854304636	10.8829139072848	-0.9364238410596	-6.77562913907285				0.948026490066225	0.0354966887417219	0.0859337748344371	12.5517880794702	-3.86807947019868	8.34251655629139				0.767788079470199	-0.286834437086093	-0.500238410596026	3.66039735099338	-4.60238410596027	-4.67470198675497			
96	1920	0.903841059602649	0.0827549668874172	-0.215523178807947	8.99337748344371	2.9353642384106	-4.54490066225166				0.928953642384106	0.0797880794701987	-0.0668609271523178	11.9139072847682	4.50781456953642	3.33403973509934				0.997827814569536	0.158728476821192	-0.37594701986755	11.207417218543	26.7464900662252	-7.20026490066225				0.736529801324503	0.0154701986754967	-0.645721854304636	22.0829139072848	4.9435761589404	-3.97562913907285				0.916026490066225	0.0994966887417219	0.0539337748344371	16.7517880794702	-5.82807947019868	9.18251655629139				0.799788079470199	-0.270834437086093	-0.516238410596026	6.46039735099338	-10.2023841059603	-12.514701986755			
97	1940	0.951841059602649	0.0987549668874172	-0.231523178807947	9.27337748344371	7.1353642384106	-4.82490066225166				0.992953642384106	0.0797880794701987	0.0611390728476822	8.55390728476821	5.90781456953642	2.49403973509934				0.965827814569536	0.222728476821192	-0.48794701986755	28.567417218543	11.9064900662252	-14.7602649006622				0	0	0	0	0	0				0	0	0	0	0	0				0	0	0	0	0	0			
98	1960	0.967841059602649	0.114754966887417	-0.215523178807947	10.6733774834437	9.0953642384106	-5.66490066225166				0	0	0	0	0	0				0.965827814569536	0.142728476821192	-0.45594701986755	42.0074172185431	15.2664900662252	-13.3602649006623				0	0	0	0	0	0				0.980026490066225	0.0514966887417219	0.101933774834437	22.0717880794702	3.97192052980133	5.54251655629139				0.767788079470199	-0.318834437086093	-0.500238410596026	7.02039735099338	-25.0423841059603	-14.194701986755			
99	1980	0	0	0	0	0	0				0.944953642384106	0.143788079470199	-0.0668609271523178	8.83390728476821	-4.45218543046358	0.53403973509934				0	0	0	0	0	0				0.768529801324503	-0.192529801324503	-0.773721854304636	9.76291390728477	-15.7764238410596	3.30437086092715				0.980026490066225	0.0994966887417219	0.0379337748344371	18.1517880794702	-2.18807947019868	2.46251655629139				0.767788079470199	-0.382834437086093	-0.500238410596026	4.22039735099338	-29.5223841059603	-15.874701986755			
100	2000	0.919841059602649	0.162754966887417	-0.279523178807947	14.8733774834437	4.3353642384106	-5.66490066225166				0.928953642384106	0.143788079470199	-0.0508609271523178	17.5139072847682	-2.21218543046358	1.09403973509934				0.821827814569536	-0.0492715231788079	-0.27994701986755	35.287417218543	5.74649006622517	-8.32026490066225				0.624529801324503	-0.160529801324503	-0.773721854304636	-2.27708609271523	-18.2964238410596	4.42437086092715				0.948026490066225	0.0834966887417219	-0.0100662251655629	19.8317880794702	0.331920529801325	-1.45748344370861				0.719788079470199	-0.366834437086093	-0.452238410596026	-1.65960264900662	-29.5223841059603	-15.034701986755			
101	2020	0.903841059602649	0.178754966887417	-0.215523178807947	16.5533774834437	1.5353642384106	-4.26490066225166				0.992953642384106	0.0477880794701987	-0.0988609271523179	28.4339072847682	-8.93218543046358	2.77403973509934				0.805827814569536	0.0147284768211921	-0.24794701986755	31.6474172185431	3.22649006622517	-8.04026490066225				0.544529801324503	-0.0165298013245033	-0.709721854304636	-3.67708609271523	-16.0564238410596	-1.73562913907285				0.964026490066225	-0.0125033112582781	0.0539337748344371	25.7117880794702	6.49192052980132	-3.41748344370861				0.703788079470199	-0.318834437086093	-0.420238410596026	4.50039735099338	-26.1623841059603	-14.754701986755			
102	2040	0.919841059602649	0.0827549668874172	-0.263523178807947	20.1933774834437	0.975364238410596	-3.98490066225166				1.00895364238411	0.0157880794701987	-0.146860927152318	23.1139072847682	-8.37218543046358	-0.30596026490066				0.885827814569536	-0.00127152317880793	-0.35994701986755	22.407417218543	6.30649006622517	-10.0002649006623				0.544529801324503	0.0154701986754967	-0.645721854304636	6.68291390728477	-14.3764238410596	-3.69562913907285				0.964026490066225	-0.0125033112582781	0.0379337748344371	20.6717880794702	-2.74807947019868	-2.57748344370861				0.767788079470199	-0.318834437086093	-0.468238410596026	8.42039735099338	-24.4823841059603	-18.954701986755			
103	2060	0.919841059602649	0.0507549668874172	-0.343523178807947	21.3133774834437	2.6553642384106	-5.94490066225166				0.992953642384106	0.0637880794701987	-0.146860927152318	18.6339072847682	-4.17218543046358	-2.26596026490066				0.885827814569536	0.0787284768211921	-0.32794701986755	17.647417218543	11.3464900662252	-6.36026490066225				0.576529801324503	-0.0805298013245033	-0.709721854304636	13.6829139072848	-6.8164238410596	-2.01562913907285				0.980026490066225	0.0674966887417219	-0.0100662251655629	15.6317880794702	-3.58807947019868	-0.897483443708608				0.767788079470199	-0.382834437086093	-0.484238410596026	10.6603973509934	-21.1223841059603	-20.914701986755			
104	2080	0.887841059602649	0.0667549668874172	-0.311523178807947	22.9933774834437	9.9353642384106	-7.06490066225166				0.944953642384106	0.0637880794701987	-0.226860927152318	26.4739072847682	-2.49218543046358	-4.22596026490066				0.917827814569536	0.110728476821192	-0.31194701986755	12.887417218543	8.26649006622517	-6.64026490066225				0.592529801324503	-0.0645298013245033	-0.725721854304636	10.8829139072848	1.3035761589404	-3.13562913907285				0.964026490066225	0.0834966887417219	-0.0100662251655629	19.5517880794702	-0.228079470198675	0.502516556291392				0.751788079470199	-0.334834437086093	-0.484238410596026	5.34039735099338	-16.6423841059603	-18.674701986755			
105	2100	0.935841059602649	0.0187549668874172	-0.327523178807947	18.5133774834437	8.5353642384106	-5.94490066225166				1.00895364238411	0.0477880794701987	-0.0508609271523178	25.3539072847682	1.70781456953642	-4.78596026490066				0.933827814569536	0.0307284768211921	-0.35994701986755	18.767417218543	8.26649006622517	-7.20026490066225				0.560529801324503	-0.0325298013245033	-0.757721854304636	15.3629139072848	4.1035761589404	-3.41562913907285				0.964026490066225	0.0514966887417219	-0.0260662251655629	20.9517880794702	-0.788079470198675	1.34251655629139				0.751788079470199	-0.318834437086093	-0.484238410596026	5.62039735099338	-12.4423841059603	-13.354701986755			
106	2120	0.903841059602649	0.0187549668874172	-0.295523178807947	13.7533774834437	7.4153642384106	-2.86490066225166				0.928953642384106	0.0957880794701987	-0.130860927152318	25.3539072847682	-8.09218543046358	-5.34596026490066				0.901827814569536	-0.00127152317880793	-0.35994701986755	27.447417218543	2.10649006622517	-6.92026490066225				0.560529801324503	-0.128529801324503	-0.773721854304636	19.8429139072848	2.9835761589404	-4.53562913907285				0.916026490066225	0.0674966887417219	-0.0260662251655629	17.3117880794702	-1.62807947019868	0.782516556291392				0.735788079470199	-0.302834437086093	-0.468238410596026	7.86039735099338	-8.24238410596027	-8.87470198675497			
107	2140	0.919841059602649	0.0507549668874172	-0.311523178807947	14.5933774834437	6.0153642384106	-2.86490066225166				0.944953642384106	0.0797880794701987	-0.146860927152318	16.6739072847682	-4.45218543046358	-6.46596026490066				0.869827814569536	-0.0332715231788079	-0.32794701986755	24.927417218543	2.10649006622517	-5.24026490066225				0.560529801324503	-0.144529801324503	-0.805721854304636	10.3229139072848	-2.8964238410596	-3.13562913907285				0.916026490066225	0.0514966887417219	0.00593377483443711	15.9117880794702	0.331920529801325	-0.897483443708608				0.703788079470199	-0.302834437086093	-0.468238410596026	7.86039735099338	-8.24238410596027	-6.63470198675497			
108	2160	0.903841059602649	0.0827549668874172	-0.279523178807947	11.5133774834437	4.0553642384106	-2.30490066225166				0.976953642384106	0.0477880794701987	-0.0988609271523179	16.1139072847682	-5.01218543046358	-5.90596026490066				0.901827814569536	-0.0332715231788079	-0.26394701986755	20.1674172185431	5.18649006622517	-1.60026490066225				0.576529801324503	-0.128529801324503	-0.805721854304636	9.76291390728477	-5.1364238410596	-0.895629139072848				0.948026490066225	0.0354966887417219	0.00593377483443711	12.5517880794702	-0.228079470198675	-2.85748344370861				0.719788079470199	-0.318834437086093	-0.468238410596026	8.70039735099338	-4.88238410596027	-5.51470198675497			
109	2180	0.919841059602649	0.0667549668874172	-0.311523178807947	15.1533774834437	4.8953642384106	-2.30490066225166				0.992953642384106	0.0317880794701987	-0.114860927152318	18.3539072847682	-5.85218543046358	-4.78596026490066				0.949827814569536	-0.0492715231788079	-0.27994701986755	18.2074172185431	4.90649006622517	-1.04026490066225				0.608529801324503	-0.112529801324503	-0.805721854304636	8.64291390728477	-7.6564238410596	-1.73562913907285				0.996026490066225	0.0514966887417219	0.00593377483443711	7.7917880794702	-0.508079470198675	-3.41748344370861				0.751788079470199	-0.350834437086093	-0.468238410596026	9.26039735099338	-3.20238410596026	-5.79470198675497			
110	2200	0.919841059602649	0.00275496688741723	-0.295523178807947	12.3533774834437	4.8953642384106	-3.70490066225166				0.976953642384106	0.0637880794701987	-0.130860927152318	11.9139072847682	-3.61218543046358	-2.54596026490066				0.949827814569536	-0.0492715231788079	-0.24794701986755	19.8874172185431	6.30649006622517	-1.88026490066225				0.624529801324503	-0.112529801324503	-0.773721854304636	3.32291390728477	-5.1364238410596	-3.41562913907285				0.996026490066225	0.0834966887417219	0.0219337748344371	3.0317880794702	-3.02807947019868	-4.25748344370861				0.799788079470199	-0.350834437086093	-0.452238410596026	5.06039735099338	-1.52238410596026	-6.07470198675497			
111	2220	0.919841059602649	0.00275496688741723	-0.247523178807947	8.43337748344371	5.7353642384106	-4.54490066225166				0.976953642384106	0.0477880794701987	-0.0828609271523179	6.03390728476821	-0.252185430463576	-1.14596026490066				0.901827814569536	-0.0332715231788079	-0.21594701986755	16.807417218543	6.86649006622517	-2.44026490066225				0.576529801324503	-0.0645298013245033	-0.773721854304636	3.32291390728477	-3.4564238410596	-2.85562913907285				0.964026490066225	0.0994966887417219	0.0219337748344371	2.7517880794702	-1.34807947019868	-4.25748344370861				0.799788079470199	-0.318834437086093	-0.484238410596026	-1.65960264900662	0.997615894039735	-4.39470198675497			
112	2240	0.951841059602649	-0.0132450331125828	-0.215523178807947	4.23337748344371	7.9753642384106	-2.86490066225166				0.992953642384106	0.0637880794701987	-0.0828609271523179	5.47390728476821	-3.61218543046358	-1.42596026490066				0.965827814569536	-0.0332715231788079	-0.23194701986755	7.56741721854305	4.90649006622517	-0.76026490066225				0.576529801324503	-0.0325298013245033	-0.773721854304636	5.28291390728477	-4.5764238410596	-2.29562913907285				0.964026490066225	0.0674966887417219	0.0379337748344371	3.8717880794702	0.331920529801325	-2.29748344370861				0.799788079470199	-0.318834437086093	-0.500238410596026	1.70039735099338	2.11761589403974	-3.55470198675497			
113	2260	0.983841059602649	0.0187549668874172	-0.215523178807947	-3.04662251655629	7.4153642384106	-0.344900662251656				0.992953642384106	0.0477880794701987	-0.114860927152318	7.71390728476821	-2.21218543046358	-0.86596026490066				0.965827814569536	-0.0332715231788079	-0.24794701986755	4.48741721854305	4.90649006622517	0.35973509933775				0.592529801324503	-0.0965298013245033	-0.757721854304636	3.04291390728477	-6.5364238410596	-2.01562913907285				0.996026490066225	0.0674966887417219	0.0219337748344371	0.231788079470198	-0.788079470198675	-1.17748344370861				0.815788079470199	-0.334834437086093	-0.484238410596026	7.58039735099338	-0.402384105960265	-6.91470198675497			
114	2280	0.951841059602649	0.0507549668874172	-0.215523178807947	-4.72662251655629	6.8553642384106	-1.46490066225166				0.976953642384106	0.0477880794701987	-0.0828609271523179	2.67390728476821	3.94781456953642	-0.585960264900661				0.933827814569536	-0.0172715231788079	-0.21594701986755	6.16741721854305	7.98649006622517	0.63973509933775				0.608529801324503	-0.112529801324503	-0.757721854304636	2.20291390728477	-4.5764238410596	-0.0556291390728476				0.996026490066225	0.0994966887417219	0.00593377483443711	-3.1282119205298	-1.62807947019868	-2.01748344370861				0.831788079470199	-0.334834437086093	-0.516238410596026	4.22039735099338	-0.682384105960265	-8.31470198675497			
115	2300	0.903841059602649	0.114754966887417	-0.183523178807947	-3.88662251655629	4.8953642384106	-2.02490066225166				0.992953642384106	0.0957880794701987	-0.0348609271523178	-2.64609271523179	4.50781456953642	1.09403973509934				0.933827814569536	-0.0172715231788079	-0.21594701986755	-6.71258278145695	9.94649006622517	0.91973509933775				0.576529801324503	-0.0645298013245033	-0.757721854304636	0.522913907284768	1.8635761589404	-1.17562913907285				0.932026490066225	0.115496688741722	0.0219337748344371	-2.8482119205298	0.611920529801325	-1.45748344370861				0.767788079470199	-0.318834437086093	-0.516238410596026	-3.05960264900662	-3.48238410596027	-5.51470198675497			
116	2320	0.935841059602649	0.114754966887417	-0.183523178807947	-3.60662251655629	5.7353642384106	-1.74490066225166				0.944953642384106	0.0637880794701987	-0.0508609271523178	-0.126092715231788	6.46781456953642	1.37403973509934				0.901827814569536	0.0147284768211921	-0.24794701986755	-9.23258278145695	6.30649006622517	-0.20026490066225				0.560529801324503	-0.0165298013245033	-0.757721854304636	-2.55708609271523	2.4235761589404	-0.615629139072848				0.916026490066225	0.131496688741722	0.0379337748344371	-2.0082119205298	2.29192052980133	-0.0574834437086077				0.767788079470199	-0.286834437086093	-0.516238410596026	-1.93960264900662	-4.04238410596027	0.365298013245032			
117	2340	0.967841059602649	0.114754966887417	-0.215523178807947	-2.20662251655629	5.7353642384106	-1.46490066225166				0.992953642384106	0.0637880794701987	-0.0668609271523178	2.67390728476821	1.14781456953642	1.37403973509934				0.933827814569536	0.0467284768211921	-0.27994701986755	-7.27258278145696	3.78649006622517	-0.76026490066225				0.592529801324503	-0.0645298013245033	-0.773721854304636	3.88291390728477	0.4635761589404	2.74437086092715				0.948026490066225	0.0994966887417219	0.00593377483443711	-0.888211920529802	0.891920529801325	0.502516556291392				0.767788079470199	-0.254834437086093	-0.516238410596026	-2.49960264900662	-2.92238410596027	2.32529801324503			
118	2360	0.935841059602649	0.114754966887417	-0.183523178807947	-1.92662251655629	4.0553642384106	-2.86490066225166				0.960953642384106	0.0957880794701987	-0.114860927152318	0.153907284768212	0.867814569536424	0.81403973509934				0.949827814569536	0.0627284768211921	-0.26394701986755	-4.75258278145695	1.26649006622517	-1.04026490066225				0.624529801324503	-0.128529801324503	-0.773721854304636	-3.67708609271523	-0.9364238410596	1.06437086092715				0.964026490066225	0.0674966887417219	0.0219337748344371	-0.328211920529802	2.85192052980133	0.502516556291392				0.767788079470199	-0.286834437086093	-0.500238410596026	0.860397350993377	-1.80238410596026	0.365298013245032			
119	2380	0.919841059602649	0.0827549668874172	-0.199523178807947	-3.04662251655629	4.3353642384106	-2.02490066225166				0.960953642384106	0.0957880794701987	-0.0988609271523179	-1.52609271523179	7.58781456953643	-0.30596026490066				0.917827814569536	0.0467284768211921	-0.29594701986755	-0.552582781456954	-1.25350993377483	-1.60026490066225				0.608529801324503	-0.0485298013245033	-0.725721854304636	-10.3970860927152	0.7435761589404	-1.73562913907285				0.932026490066225	0.0834966887417219	0.0539337748344371	-1.1682119205298	6.21192052980133	0.222516556291392				0.751788079470199	-0.286834437086093	-0.500238410596026	0.300397350993377	-1.80238410596026	-1.59470198675497			
120	2400	0.935841059602649	0.114754966887417	-0.231523178807947	0.0333774834437086	2.0953642384106	-1.18490066225166				0.992953642384106	0.0797880794701987	-0.0668609271523178	3.79390728476821	5.06781456953642	-0.585960264900661				0.901827814569536	0.0307284768211921	-0.27994701986755	1.40741721854305	-0.413509933774833	0.0797350993377501				0.608529801324503	-0.0165298013245033	-0.693721854304636	-1.43708609271523	1.8635761589404	-1.45562913907285				0.932026490066225	0.0834966887417219	0.0539337748344371	0.791788079470198	7.61192052980133	-0.337483443708608				0.735788079470199	-0.286834437086093	-0.500238410596026	1.42039735099338	-2.08238410596027	-3.83470198675497			
121	2420	0.951841059602649	0.0987549668874172	-0.231523178807947	0.593377483443709	2.0953642384106	-0.344900662251656				0.976953642384106	0.111788079470199	-0.130860927152318	6.87390728476821	1.70781456953642	-1.42596026490066				0.933827814569536	0.0307284768211921	-0.27994701986755	2.52741721854305	-0.413509933774833	0.91973509933775				0.640529801324503	-0.0485298013245033	-0.709721854304636	5.00291390728477	0.1835761589404	-0.0556291390728476				0.964026490066225	0.0994966887417219	0.0219337748344371	3.3117880794702	3.97192052980133	-1.45748344370861				0.703788079470199	-0.286834437086093	-0.500238410596026	0.860397350993377	0.157615894039735	-1.59470198675497			
122	2440	0.951841059602649	0.0827549668874172	-0.263523178807947	2.27337748344371	2.0953642384106	-2.86490066225166				0.944953642384106	0.111788079470199	-0.130860927152318	6.31390728476821	6.18781456953642	-1.70596026490066				0.917827814569536	0.0467284768211921	-0.26394701986755	-2.51258278145695	1.26649006622517	0.0797350993377501				0.688529801324503	-0.0965298013245033	-0.757721854304636	0.802913907284768	4.3835761589404	-0.0556291390728476				0.980026490066225	0.0994966887417219	0.0379337748344371	3.5917880794702	1.73192052980133	-2.29748344370861				0.735788079470199	-0.318834437086093	-0.500238410596026	3.94039735099338	2.11761589403974	0.925298013245032			
123	2460	0.919841059602649	0.0827549668874172	-0.231523178807947	3.11337748344371	-1.5446357615894	-2.02490066225166				0.960953642384106	0.0797880794701987	-0.0828609271523179	7.71390728476821	8.98781456953643	-0.585960264900661				0.917827814569536	0.0947284768211921	-0.29594701986755	-0.552582781456954	2.38649006622517	-1.88026490066225				0.656529801324503	-0.0485298013245033	-0.709721854304636	1.36291390728477	5.5035761589404	-5.09562913907285				0.964026490066225	0.0674966887417219	0.0379337748344371	5.2717880794702	1.73192052980133	-3.41748344370861				0.751788079470199	-0.286834437086093	-0.516238410596026	1.70039735099338	1.55761589403974	-0.194701986754968			
124	2480	0.903841059602649	0.0827549668874172	-0.215523178807947	4.51337748344371	0.975364238410596	-0.904900662251656				0.976953642384106	0.0797880794701987	-0.0668609271523178	11.6339072847682	4.50781456953642	-1.70596026490066				0.917827814569536	0.0467284768211921	-0.27994701986755	9.52741721854305	4.06649006622517	-2.44026490066225				0.608529801324503	-0.0325298013245033	-0.725721854304636	1.92291390728477	1.0235761589404	-6.21562913907285				0.948026490066225	0.0834966887417219	0.0539337748344371	7.7917880794702	5.93192052980133	-3.41748344370861				0.751788079470199	-0.270834437086093	-0.532238410596027	0.860397350993377	1.83761589403974	-3.27470198675497			
125	2500	0.935841059602649	0.0667549668874172	-0.263523178807947	4.23337748344371	1.5353642384106	-0.0649006622516557				0.976953642384106	0.0797880794701987	-0.0828609271523179	12.7539072847682	2.26781456953642	-2.54596026490066				0.917827814569536	0.0307284768211921	-0.32794701986755	15.967417218543	1.54649006622517	-2.44026490066225				0.608529801324503	-0.0805298013245033	-0.709721854304636	-1.99708609271523	-2.0564238410596	-7.89562913907285				0.932026490066225	0.0834966887417219	0.0379337748344371	8.0717880794702	2.57192052980133	-2.57748344370861				0.751788079470199	-0.254834437086093	-0.516238410596026	6.18039735099338	0.997615894039735	-3.27470198675497			
126	2520	0.951841059602649	0.0507549668874172	-0.263523178807947	6.47337748344371	2.3753642384106	-1.18490066225166				0.960953642384106	0.0637880794701987	-0.114860927152318	10.5139072847682	2.26781456953642	-1.70596026490066				0.901827814569536	0.0147284768211921	-0.32794701986755	14.567417218543	1.26649006622517	-1.88026490066225				0.592529801324503	-0.0485298013245033	-0.709721854304636	-2.27708609271523	3.5435761589404	-7.89562913907285				0.948026490066225	0.0834966887417219	0.0379337748344371	7.7917880794702	6.49192052980132	-3.69748344370861				0.751788079470199	-0.302834437086093	-0.484238410596026	7.86039735099338	0.157615894039735	-3.27470198675497			
127	2540	0.935841059602649	0.0667549668874172	-0.231523178807947	3.95337748344371	-1.8246357615894	-1.46490066225166				0.976953642384106	0.0797880794701987	-0.0828609271523179	8.83390728476821	4.78781456953642	-2.26596026490066				0.917827814569536	-0.00127152317880793	-0.31194701986755	12.047417218543	1.26649006622517	-3.28026490066225				0.560529801324503	-0.000529801324503289	-0.709721854304636	5.00291390728477	9.1435761589404	-8.45562913907285				0.948026490066225	0.0834966887417219	0.0219337748344371	7.2317880794702	6.77192052980133	-2.57748344370861				0.767788079470199	-0.302834437086093	-0.516238410596026	6.74039735099338	-0.122384105960265	-6.63470198675497			
128	2560	0.919841059602649	0.0987549668874172	-0.247523178807947	2.27337748344371	-2.6646357615894	-0.624900662251656				0.960953642384106	0.0637880794701987	-0.0668609271523178	13.0339072847682	1.70781456953642	-2.26596026490066				0.917827814569536	-0.00127152317880793	-0.29594701986755	10.927417218543	-0.413509933774833	-2.72026490066225				0.608529801324503	-0.0325298013245033	-0.709721854304636	9.20291390728477	7.4635761589404	-8.73562913907285				0.964026490066225	0.0834966887417219	0.0219337748344371	10.3117880794702	5.37192052980133	-1.17748344370861				0.751788079470199	-0.286834437086093	-0.500238410596026	5.34039735099338	-0.962384105960265	-6.63470198675497			
129	2580	0.919841059602649	0.0827549668874172	-0.263523178807947	6.75337748344371	-2.9446357615894	-0.624900662251656				0.960953642384106	0.0637880794701987	-0.114860927152318	12.7539072847682	1.42781456953642	-2.54596026490066				0.901827814569536	-0.00127152317880793	-0.27994701986755	7.28741721854305	-0.973509933774833	-1.88026490066225				0.624529801324503	-0.0485298013245033	-0.709721854304636	10.3229139072848	4.3835761589404	-8.17562913907285				0.932026490066225	0.0994966887417219	0.0539337748344371	11.4317880794702	5.09192052980133	-0.337483443708608				0.751788079470199	-0.286834437086093	-0.516238410596026	8.70039735099338	-2.64238410596027	-6.07470198675497			
130	2600	0.919841059602649	0.0667549668874172	-0.247523178807947	9.55337748344371	-1.8246357615894	-2.30490066225166				0.976953642384106	0.0797880794701987	-0.0988609271523179	10.7939072847682	3.94781456953642	-3.10596026490066				0.917827814569536	-0.0172715231788079	-0.29594701986755	11.207417218543	-1.25350993377483	-1.88026490066225				0.656529801324503	-0.0645298013245033	-0.741721854304636	6.12291390728477	2.7035761589404	-9.01562913907285				0.948026490066225	0.0994966887417219	0.0539337748344371	10.5917880794702	3.13192052980133	-0.0574834437086077				0.751788079470199	-0.318834437086093	-0.516238410596026	10.9403973509934	-3.76238410596027	-4.11470198675497			
131	2620	0.935841059602649	0.0187549668874172	-0.263523178807947	7.31337748344371	-1.5446357615894	-2.86490066225166				0.976953642384106	0.0957880794701987	-0.0828609271523179	9.39390728476821	-0.812185430463576	-0.30596026490066				0.917827814569536	-0.00127152317880793	-0.29594701986755	7.56741721854305	-1.81350993377483	-1.32026490066225				0.640529801324503	-0.0805298013245033	-0.725721854304636	7.52291390728477	4.3835761589404	-7.05562913907285				0.980026490066225	0.0994966887417219	0.0699337748344371	10.0317880794702	4.25192052980133	-1.45748344370861				0.767788079470199	-0.334834437086093	-0.484238410596026	7.58039735099338	-3.76238410596027	-2.99470198675497			
132	2640	0.919841059602649	0.0347549668874172	-0.247523178807947	3.67337748344371	-2.9446357615894	-1.74490066225166				0.992953642384106	0.0637880794701987	-0.0828609271523179	11.9139072847682	-3.89218543046358	1.65403973509934				0.917827814569536	0.0147284768211921	-0.32794701986755	8.68741721854305	-2.93350993377483	-1.88026490066225				0.624529801324503	-0.0805298013245033	-0.757721854304636	7.80291390728477	6.6235761589404	-5.65562913907285				0.996026490066225	0.0674966887417219	0.0699337748344371	8.9117880794702	4.25192052980133	-2.85748344370861				0.767788079470199	-0.334834437086093	-0.500238410596026	2.26039735099338	-2.36238410596027	-2.71470198675497			
133	2660	0.935841059602649	0.0347549668874172	-0.263523178807947	4.23337748344371	-1.5446357615894	-1.18490066225166				0.992953642384106	0.0477880794701987	-0.130860927152318	12.1939072847682	-6.41218543046358	-0.30596026490066				0.917827814569536	0.0147284768211921	-0.31194701986755	10.647417218543	-0.693509933774834	-2.44026490066225				0.608529801324503	-0.0805298013245033	-0.741721854304636	8.08291390728477	3.8235761589404	-3.69562913907285				0.980026490066225	0.0354966887417219	0.0699337748344371	8.6317880794702	-4.42807947019868	-1.45748344370861				0.751788079470199	-0.286834437086093	-0.484238410596026	8.42039735099338	-4.32238410596027	-3.83470198675497			
134	2680	0.919841059602649	0.0667549668874172	-0.295523178807947	2.27337748344371	-0.984635761589404	-1.74490066225166				0.960953642384106	0.0477880794701987	-0.146860927152318	10.5139072847682	-6.41218543046358	-2.54596026490066				0.917827814569536	0.0147284768211921	-0.31194701986755	10.367417218543	-1.81350993377483	-2.44026490066225				0.608529801324503	-0.0965298013245033	-0.741721854304636	7.80291390728477	-0.9364238410596	-1.45562913907285				0.948026490066225	0.0674966887417219	0.0379337748344371	1.9117880794702	-13.3880794701987	-2.01748344370861				0.751788079470199	-0.270834437086093	-0.484238410596026	5.34039735099338	-1.24238410596026	-5.79470198675497			
135	2700	0.935841059602649	0.0667549668874172	-0.263523178807947	2.55337748344371	0.135364238410596	-1.74490066225166				0.960953642384106	0.0637880794701987	-0.130860927152318	9.95390728476821	-4.17218543046358	-2.82596026490066				0.901827814569536	-0.0172715231788079	-0.34394701986755	9.52741721854305	-4.05350993377483	-0.20026490066225				0.624529801324503	-0.112529801324503	-0.773721854304636	2.48291390728477	-4.2964238410596	-3.41562913907285				0.964026490066225	0.0994966887417219	-0.0580662251655629	3.0317880794702	-9.46807947019868	-1.73748344370861				0.767788079470199	-0.318834437086093	-0.484238410596026	8.70039735099338	0.997615894039735	-8.59470198675497			
136	2720	0.935841059602649	0.0667549668874172	-0.295523178807947	4.79337748344371	-0.424635761589404	-3.14490066225166				0.976953642384106	0.0637880794701987	-0.0988609271523179	7.43390728476821	-4.73218543046358	-1.98596026490066				0.885827814569536	-0.0332715231788079	-0.34394701986755	10.087417218543	-3.49350993377483	-0.48026490066225				0.624529801324503	-0.0645298013245033	-0.709721854304636	-0.597086092715232	-2.3364238410596	-6.49562913907285				0.996026490066225	0.0834966887417219	0.0379337748344371	7.5117880794702	1.45192052980132	-0.897483443708608				0.751788079470199	-0.334834437086093	-0.516238410596026	6.74039735099338	2.11761589403974	-11.114701986755			
137	2740	0.919841059602649	0.0507549668874172	-0.295523178807947	6.75337748344371	-1.8246357615894	-4.26490066225166				0.992953642384106	0.0797880794701987	-0.114860927152318	5.75390728476821	-8.65218543046358	-0.30596026490066				0.901827814569536	-0.0172715231788079	-0.29594701986755	7.28741721854305	-2.09350993377483	-1.32026490066225				0.608529801324503	-0.0485298013245033	-0.693721854304636	3.32291390728477	-2.8964238410596	-5.65562913907285				0.948026490066225	0.0994966887417219	0.0219337748344371	5.2717880794702	-4.42807947019868	-0.337483443708608				0.735788079470199	-0.302834437086093	-0.516238410596026	0.0203973509933773	4.63761589403974	-9.15470198675497			
138	2760	0.919841059602649	0.0347549668874172	-0.279523178807947	7.03337748344371	-2.1046357615894	-3.98490066225166				0.944953642384106	0.0797880794701987	-0.162860927152318	4.07390728476821	-10.3321854304636	-0.86596026490066				0.917827814569536	-0.00127152317880793	-0.31194701986755	8.96741721854305	-1.25350993377483	-1.88026490066225				0.608529801324503	-0.0965298013245033	-0.709721854304636	2.48291390728477	-1.7764238410596	-2.57562913907285				0.932026490066225	0.115496688741722	0.0219337748344371	6.3917880794702	-2.18807947019868	0.222516556291392				0.751788079470199	-0.286834437086093	-0.532238410596027	1.70039735099338	2.11761589403974	-7.19470198675497			
139	2780	0.919841059602649	0.0507549668874172	-0.263523178807947	6.19337748344371	-1.5446357615894	-3.42490066225166				0.976953642384106	0.0637880794701987	-0.130860927152318	4.63390728476821	-5.57218543046358	-0.0259602649006601				0.901827814569536	0.0147284768211921	-0.29594701986755	7.56741721854305	-0.693509933774834	-1.04026490066225				0.672529801324503	-0.0965298013245033	-0.677721854304636	6.68291390728477	3.2635761589404	-3.41562913907285				0.964026490066225	0.0834966887417219	0.0379337748344371	6.3917880794702	-1.90807947019868	0.782516556291392				0.783788079470199	-0.270834437086093	-0.532238410596027	3.66039735099338	-2.36238410596027	-8.03470198675497			
140	2800	0.935841059602649	0.0187549668874172	-0.263523178807947	4.51337748344371	-1.5446357615894	-3.70490066225166				0.976953642384106	0.0477880794701987	-0.130860927152318	7.71390728476821	-9.49218543046358	0.81403973509934				0.917827814569536	0.0147284768211921	-0.31194701986755	5.88741721854305	2.94649006622517	-1.04026490066225				0.624529801324503	-0.0645298013245033	-0.741721854304636	9.20291390728477	-2.8964238410596	0.504370860927152				0.996026490066225	0.0834966887417219	0.0219337748344371	7.5117880794702	-5.54807947019868	1.06251655629139				0.783788079470199	-0.318834437086093	-0.532238410596027	1.98039735099338	-4.04238410596027	-7.47470198675497			
141	2820	0.935841059602649	0.0507549668874172	-0.295523178807947	3.67337748344371	-1.5446357615894	-3.42490066225166				0.976953642384106	0.0797880794701987	-0.130860927152318	4.35390728476821	-8.93218543046358	-0.585960264900661				0.933827814569536	-0.00127152317880793	-0.29594701986755	6.44741721854305	0.706490066225167	-1.60026490066225				0.640529801324503	-0.0965298013245033	-0.757721854304636	4.72291390728477	-6.8164238410596	-0.895629139072848				0.980026490066225	0.0834966887417219	-0.0100662251655629	5.2717880794702	-7.22807947019868	0.502516556291392				0.799788079470199	-0.334834437086093	-0.516238410596026	2.54039735099338	-6.00238410596027	-7.75470198675497			
142	2840	0.919841059602649	0.0667549668874172	-0.247523178807947	3.11337748344371	-1.5446357615894	-2.30490066225166				0.976953642384106	0.0957880794701987	-0.114860927152318	1.55390728476821	-10.0521854304636	-1.14596026490066				0.917827814569536	-0.00127152317880793	-0.29594701986755	5.88741721854305	-0.693509933774834	-1.88026490066225				0.608529801324503	-0.0965298013245033	-0.741721854304636	0.522913907284768	-4.2964238410596	-1.17562913907285				0.964026490066225	0.0834966887417219	0.00593377483443711	4.4317880794702	-5.54807947019868	1.34251655629139				0.751788079470199	-0.334834437086093	-0.484238410596026	-1.93960264900662	-7.96238410596027	-6.91470198675497			
143	2860	0.935841059602649	0.0507549668874172	-0.231523178807947	2.83337748344371	2.6553642384106	-1.74490066225166				0.976953642384106	0.0797880794701987	-0.178860927152318	1.83390728476821	-10.6121854304636	1.65403973509934				0.917827814569536	-0.0172715231788079	-0.26394701986755	5.32741721854305	2.66649006622517	-0.76026490066225				0.576529801324503	-0.0485298013245033	-0.757721854304636	5.56291390728477	-5.1364238410596	-1.73562913907285				0.980026490066225	0.0674966887417219	0.0379337748344371	3.5917880794702	-5.54807947019868	-0.337483443708608				0.767788079470199	-0.286834437086093	-0.516238410596026	-4.45960264900662	-6.56238410596027	-6.35470198675497			
