No	Time	12-AccX	12-AccY	12-AccZ	12-GyroX	12-GyroY	12-GyroZ	13-AccX	13-AccY	13-AccZ	13-GyroX	13-GyroY	13-GyroZ	14-AccX	14-AccY	14-AccZ	14-GyroX	14-GyroY	14-GyroZ	15-AccX	15-AccY	15-AccZ	15-GyroX	15-GyroY	15-GyroZ	16-AccX	16-AccY	16-AccZ	16-GyroX	16-GyroY	16-GyroZ	17-AccX	17-AccY	17-AccZ	17-GyroX	17-GyroY	17-GyroZ
0	0	0	0	0	0	0	0				0	0	0	0	0	0				-0.218172185430464	-0.145271523178808	-0.87194701986755	0.847417218543046	2.10649006622517	1.19973509933775				0	0	0	0	0	0				0.900026490066225	0.0674966887417219	0.229933774834437	-7.0482119205298	-11.1480794701987	7.50251655629139				0.495788079470199	-0.270834437086093	-0.724238410596026	-1.09960264900662	-1.80238410596026	-1.59470198675497			
1	20	-0.248158940397351	0.162754966887417	-0.919523178807947	-1.08662251655629	0.135364238410596	-1.46490066225166				0.848953642384106	0.0477880794701987	0.589139072847682	-11.8860927152318	11.5078145695364	-8.14596026490066				-0.218172185430464	-0.145271523178808	-0.85594701986755	1.40741721854305	1.54649006622517	0.91973509933775				0.608529801324503	-0.176529801324503	-0.709721854304636	6.12291390728477	-1.4964238410596	2.46437086092715				0.900026490066225	0.0514966887417219	0.213933774834437	-7.3282119205298	-6.94807947019868	6.66251655629139				0.495788079470199	-0.270834437086093	-0.692238410596026	-1.09960264900662	-4.60238410596027	-2.71470198675497			
2	40	-0.248158940397351	0.162754966887417	-0.903523178807947	-1.64662251655629	-0.704635761589404	-1.18490066225166				0.848953642384106	0.0477880794701987	0.573139072847682	-2.36609271523179	0.0278145695364242	-7.02596026490066				-0.218172185430464	-0.145271523178808	-0.85594701986755	0.287417218543046	-2.09350993377483	2.31973509933775				0.592529801324503	-0.144529801324503	-0.677721854304636	3.88291390728477	-4.0164238410596	2.46437086092715				0.900026490066225	0.0514966887417219	0.197933774834437	-8.1682119205298	-6.94807947019868	4.70251655629139				0.495788079470199	-0.254834437086093	-0.692238410596026	-2.77960264900662	-6.00238410596027	-1.87470198675497			
3	60	-0.248158940397351	0.162754966887417	-0.919523178807947	-1.36662251655629	-0.984635761589404	-0.624900662251656				0.864953642384106	0.0637880794701987	0.509139072847682	1.27390728476821	-6.41218543046358	-5.06596026490066				-0.218172185430464	-0.145271523178808	-0.85594701986755	0.00741721854304636	-0.693509933774834	2.31973509933775				0.592529801324503	-0.128529801324503	-0.709721854304636	9.20291390728477	-5.6964238410596	4.42437086092715				0.916026490066225	0.0674966887417219	0.197933774834437	-11.5282119205298	-13.1080794701987	5.82251655629139				0.511788079470199	-0.254834437086093	-0.724238410596026	-1.37960264900662	-8.52238410596027	-1.03470198675497			
4	80	-0.248158940397351	0.162754966887417	-0.919523178807947	-2.20662251655629	-1.5446357615894	-1.46490066225166				0.864953642384106	0.0797880794701987	0.461139072847682	-0.126092715231788	-3.61218543046358	-2.82596026490066				-0.234172185430464	-0.161271523178808	-0.90394701986755	2.24741721854305	-1.53350993377483	0.63973509933775				0.576529801324503	-0.144529801324503	-0.757721854304636	12.0029139072848	-3.7364238410596	5.54437086092715				0.916026490066225	0.0674966887417219	0.197933774834437	-11.5282119205298	-19.5480794701987	6.66251655629139				0.495788079470199	-0.238834437086093	-0.740238410596026	-1.65960264900662	-5.16238410596027	-2.99470198675497			
5	100	-0.248158940397351	0.162754966887417	-0.935523178807947	-1.08662251655629	-1.5446357615894	-2.02490066225166				0.880953642384106	0.0637880794701987	0.525139072847682	-4.04609271523179	-1.37218543046358	-0.86596026490066				-0.234172185430464	-0.145271523178808	-0.88794701986755	-0.552582781456954	-1.25350993377483	0.35973509933775				0.576529801324503	-0.176529801324503	-0.741721854304636	10.3229139072848	0.1835761589404	4.98437086092715				0.932026490066225	0.0674966887417219	0.165933774834437	-10.4082119205298	-20.1080794701987	4.42251655629139				0.479788079470199	-0.254834437086093	-0.724238410596026	-2.77960264900662	-3.48238410596027	-5.23470198675497			
6	120	-0.248158940397351	0.162754966887417	-0.935523178807947	0.0333774834437086	-1.5446357615894	-2.02490066225166				0.896953642384106	0.0477880794701987	0.541139072847682	1.27390728476821	-8.09218543046358	1.37403973509934				-0.234172185430464	-0.161271523178808	-0.87194701986755	0.567417218543046	0.426490066225167	0.0797350993377501				0.592529801324503	-0.160529801324503	-0.741721854304636	10.0429139072848	0.1835761589404	4.14437086092715				0.932026490066225	0.0514966887417219	0.133933774834437	-7.3282119205298	-19.5480794701987	4.42251655629139				0.479788079470199	-0.238834437086093	-0.724238410596026	-2.77960264900662	-2.36238410596027	-6.07470198675497			
7	140	-0.248158940397351	0.162754966887417	-0.919523178807947	0.313377483443709	-1.2646357615894	-2.58490066225166				0.880953642384106	0.0477880794701987	0.525139072847682	5.75390728476821	-12.0121854304636	1.93403973509934				-0.234172185430464	-0.161271523178808	-0.87194701986755	1.40741721854305	0.426490066225167	-1.32026490066225				0.576529801324503	-0.160529801324503	-0.805721854304636	13.4029139072848	2.1435761589404	3.02437086092715				0.948026490066225	0.0834966887417219	0.181933774834437	-6.2082119205298	-17.3080794701987	3.86251655629139				0.479788079470199	-0.238834437086093	-0.772238410596026	-2.21960264900662	-1.24238410596026	-6.07470198675497			
8	160	-0.264158940397351	0.178754966887417	-0.935523178807947	0.873377483443709	-0.144635761589404	-2.02490066225166				0.896953642384106	0.0797880794701987	0.461139072847682	6.31390728476821	-11.4521854304636	3.61403973509934				-0.234172185430464	-0.161271523178808	-0.88794701986755	0.287417218543046	0.146490066225167	-1.32026490066225				0.592529801324503	-0.208529801324503	-0.805721854304636	8.92291390728477	3.5435761589404	1.90437086092715				0.964026490066225	0.0834966887417219	0.197933774834437	-0.888211920529802	-16.7480794701987	2.74251655629139				0.495788079470199	-0.270834437086093	-0.788238410596027	0.300397350993377	0.717615894039735	-5.23470198675497			
9	180	-0.264158940397351	0.162754966887417	-0.935523178807947	2.83337748344371	-0.144635761589404	-1.46490066225166				0.912953642384106	0.0637880794701987	0.381139072847682	4.91390728476821	-6.13218543046358	4.73403973509934				-0.234172185430464	-0.161271523178808	-0.90394701986755	1.12741721854305	2.10649006622517	-1.04026490066225				0.608529801324503	-0.208529801324503	-0.773721854304636	1.92291390728477	-1.4964238410596	-0.335629139072848				0.948026490066225	0.0674966887417219	0.181933774834437	-1.4482119205298	-10.3080794701987	1.62251655629139				0.527788079470199	-0.286834437086093	-0.756238410596026	-3.05960264900662	2.39761589403974	-3.83470198675497			
10	200	-0.264158940397351	0.162754966887417	-0.919523178807947	3.95337748344371	1.5353642384106	-1.46490066225166				0.928953642384106	0.0637880794701987	0.381139072847682	6.59390728476821	5.06781456953642	5.01403973509934				-0.234172185430464	-0.161271523178808	-0.88794701986755	1.68741721854305	2.66649006622517	-0.48026490066225				0.592529801324503	-0.176529801324503	-0.757721854304636	-2.83708609271523	-2.3364238410596	-0.615629139072848				0.964026490066225	0.0514966887417219	0.133933774834437	-3.4082119205298	-6.10807947019868	1.34251655629139				0.543788079470199	-0.270834437086093	-0.772238410596026	-5.57960264900662	2.39761589403974	0.925298013245032			
11	220	-0.264158940397351	0.162754966887417	-0.903523178807947	3.39337748344371	0.415364238410596	-1.46490066225166				0.928953642384106	0.0637880794701987	0.477139072847682	5.19390728476821	0.0278145695364242	5.57403973509934				-0.234172185430464	-0.161271523178808	-0.87194701986755	1.96741721854305	-2.65350993377483	-0.76026490066225				0.560529801324503	-0.160529801324503	-0.773721854304636	3.32291390728477	2.1435761589404	0.504370860927152				0.948026490066225	0.0674966887417219	0.133933774834437	-2.0082119205298	-7.50807947019868	-0.0574834437086077				0.527788079470199	-0.238834437086093	-0.772238410596026	-4.17960264900662	-0.682384105960265	1.76529801324503			
12	240	-0.264158940397351	0.162754966887417	-0.919523178807947	2.83337748344371	-0.704635761589404	-0.904900662251656				0.896953642384106	0.0637880794701987	0.445139072847682	2.67390728476821	-9.77218543046358	5.29403973509934				-0.234172185430464	-0.177271523178808	-0.85594701986755	3.08741721854305	-2.65350993377483	0.0797350993377501				0.544529801324503	-0.160529801324503	-0.773721854304636	4.44291390728477	5.5035761589404	-0.615629139072848				0.932026490066225	0.0514966887417219	0.197933774834437	2.7517880794702	-7.78807947019868	0.222516556291392				0.495788079470199	-0.222834437086093	-0.740238410596026	-3.05960264900662	0.997615894039735	0.0852980132450323			
13	260	-0.264158940397351	0.146754966887417	-0.919523178807947	1.71337748344371	-0.984635761589404	-1.18490066225166				0.896953642384106	0.0477880794701987	0.365139072847682	-1.80609271523179	-4.17218543046358	5.29403973509934				-0.250172185430464	-0.177271523178808	-0.87194701986755	1.40741721854305	0.426490066225167	1.19973509933775				0.544529801324503	-0.176529801324503	-0.741721854304636	0.522913907284768	4.6635761589404	-0.615629139072848				0.916026490066225	0.0674966887417219	0.149933774834437	1.9117880794702	-6.10807947019868	0.502516556291392				0.511788079470199	-0.238834437086093	-0.724238410596026	-1.93960264900662	2.95761589403974	0.925298013245032			
14	280	-0.264158940397351	0.146754966887417	-0.919523178807947	0.873377483443709	-0.144635761589404	-1.74490066225166				0.912953642384106	0.0317880794701987	0.349139072847682	0.153907284768212	5.06781456953642	4.17403973509934				-0.234172185430464	-0.177271523178808	-0.88794701986755	1.96741721854305	2.10649006622517	1.47973509933775				0.544529801324503	-0.144529801324503	-0.709721854304636	-3.67708609271523	2.1435761589404	-0.895629139072848				0.916026490066225	0.0514966887417219	0.149933774834437	0.231788079470198	-3.58807947019868	0.502516556291392				0.495788079470199	-0.254834437086093	-0.724238410596026	-3.33960264900662	4.91761589403974	2.60529801324503			
15	300	-0.248158940397351	0.146754966887417	-0.903523178807947	0.593377483443709	-0.704635761589404	-0.904900662251656				0.912953642384106	0.0477880794701987	0.381139072847682	1.27390728476821	5.90781456953642	4.17403973509934				-0.218172185430464	-0.161271523178808	-0.87194701986755	2.52741721854305	0.706490066225167	0.63973509933775				0.544529801324503	-0.128529801324503	-0.725721854304636	-0.0370860927152318	1.8635761589404	0.504370860927152				0.932026490066225	0.0674966887417219	0.165933774834437	0.511788079470198	-1.90807947019868	1.62251655629139				0.511788079470199	-0.254834437086093	-0.724238410596026	-7.53960264900662	6.87761589403974	2.88529801324503			
16	320	-0.264158940397351	0.146754966887417	-0.919523178807947	-0.246622516556291	-2.3846357615894	-1.46490066225166				0.896953642384106	0.0477880794701987	0.445139072847682	-2.08609271523179	6.46781456953642	3.61403973509934				-0.234172185430464	-0.145271523178808	-0.85594701986755	1.68741721854305	-2.93350993377483	-0.20026490066225				0.560529801324503	-0.160529801324503	-0.773721854304636	5.56291390728477	1.8635761589404	1.06437086092715				0.964026490066225	0.0514966887417219	0.149933774834437	-0.608211920529802	-1.62807947019868	1.90251655629139				0.543788079470199	-0.254834437086093	-0.724238410596026	-8.09960264900662	7.43761589403974	3.16529801324503			
17	340	-0.264158940397351	0.146754966887417	-0.903523178807947	-1.08662251655629	-2.6646357615894	-0.624900662251656				0.928953642384106	0.0637880794701987	0.477139072847682	-1.80609271523179	-0.532185430463576	4.73403973509934				-0.250172185430464	-0.145271523178808	-0.87194701986755	2.24741721854305	-1.25350993377483	0.0797350993377501				0.560529801324503	-0.208529801324503	-0.789721854304636	8.92291390728477	1.8635761589404	1.34437086092715				0.980026490066225	0.0514966887417219	0.149933774834437	-2.5682119205298	-1.62807947019868	0.222516556291392				0.527788079470199	-0.254834437086093	-0.756238410596026	-9.21960264900662	11.3576158940397	2.88529801324503			
18	360	-0.280158940397351	0.162754966887417	-0.935523178807947	-1.36662251655629	-1.8246357615894	0.215099337748344				0.960953642384106	0.0637880794701987	0.397139072847682	0.993907284768212	-5.85218543046358	4.17403973509934				-0.266172185430464	-0.145271523178808	-0.88794701986755	4.48741721854305	-0.413509933774833	-1.04026490066225				0.560529801324503	-0.208529801324503	-0.789721854304636	4.16291390728477	1.5835761589404	-0.615629139072848				0.964026490066225	0.0354966887417219	0.149933774834437	-3.4082119205298	3.13192052980133	-0.897483443708608				0.511788079470199	-0.254834437086093	-0.772238410596026	-11.4596026490066	13.3176158940397	2.04529801324503			
19	380	-0.296158940397351	0.146754966887417	-0.935523178807947	-1.36662251655629	-0.984635761589404	1.05509933774834				0.960953642384106	0.0477880794701987	0.381139072847682	1.55390728476821	-6.41218543046358	3.05403973509934				-0.266172185430464	-0.145271523178808	-0.87194701986755	6.44741721854305	-0.413509933774833	-1.60026490066225				0.560529801324503	-0.192529801324503	-0.789721854304636	-0.597086092715232	3.8235761589404	-0.895629139072848				0.996026490066225	0.0194966887417219	0.117933774834437	-4.2482119205298	3.41192052980132	-1.17748344370861				0.511788079470199	-0.238834437086093	-0.756238410596026	-9.21960264900662	13.3176158940397	0.645298013245032			
20	400	-0.312158940397351	0.146754966887417	-0.935523178807947	-2.20662251655629	-0.144635761589404	0.495099337748344				0.976953642384106	0.0317880794701987	0.429139072847682	-0.966092715231788	-7.81218543046358	3.33403973509934				-0.266172185430464	-0.161271523178808	-0.88794701986755	5.60741721854305	1.26649006622517	-1.88026490066225				0.592529801324503	-0.208529801324503	-0.789721854304636	-1.99708609271523	4.9435761589404	-2.29562913907285				1.01202649006623	0.0514966887417219	0.117933774834437	-4.5282119205298	7.05192052980133	-2.85748344370861				0.511788079470199	-0.238834437086093	-0.788238410596027	-8.93960264900662	11.0776158940397	0.645298013245032			
21	420	-0.296158940397351	0.146754966887417	-0.935523178807947	-3.04662251655629	0.415364238410596	1.89509933774834				0.976953642384106	0.0317880794701987	0.413139072847682	-0.406092715231788	-14.2521854304636	4.17403973509934				-0.250172185430464	-0.177271523178808	-0.88794701986755	6.44741721854305	1.82649006622517	-2.16026490066225				0.592529801324503	-0.224529801324503	-0.821721854304636	0.522913907284768	3.8235761589404	-0.895629139072848				0.996026490066225	0.0354966887417219	0.0859337748344371	-7.3282119205298	1.17192052980133	-3.13748344370861				0.495788079470199	-0.238834437086093	-0.836238410596026	-12.5796026490066	16.9576158940397	3.16529801324503			
22	440	-0.280158940397351	0.146754966887417	-0.935523178807947	-3.88662251655629	1.8153642384106	1.61509933774834				0.960953642384106	0.0477880794701987	0.397139072847682	0.713907284768212	-15.0921854304636	4.73403973509934				-0.250172185430464	-0.177271523178808	-0.88794701986755	6.16741721854305	3.50649006622517	-4.12026490066225				0.576529801324503	-0.224529801324503	-0.805721854304636	-0.597086092715232	2.7035761589404	-1.17562913907285				0.996026490066225	0.0354966887417219	0.0699337748344371	-8.4482119205298	5.93192052980133	-3.69748344370861				0.479788079470199	-0.222834437086093	-0.852238410596026	-14.5396026490066	27.5976158940397	4.28529801324503			
23	460	-0.264158940397351	0.146754966887417	-0.919523178807947	-4.16662251655629	2.3753642384106	1.89509933774834				0.944953642384106	0.0637880794701987	0.333139072847682	-1.24609271523179	-20.6921854304636	2.49403973509934				-0.218172185430464	-0.177271523178808	-0.87194701986755	8.96741721854305	2.10649006622517	-4.68026490066225				0.544529801324503	-0.176529801324503	-0.805721854304636	-3.11708609271523	2.4235761589404	-2.29562913907285				0.980026490066225	0.0354966887417219	0.0699337748344371	-6.4882119205298	9.57192052980133	-3.97748344370861				0.463788079470199	-0.222834437086093	-0.836238410596026	-11.4596026490066	26.7576158940397	5.12529801324503			
24	480	-0.280158940397351	0.146754966887417	-0.919523178807947	-4.72662251655629	2.0953642384106	2.45509933774835				0.944953642384106	0.0157880794701987	0.301139072847682	-2.08609271523179	-20.6921854304636	4.17403973509934				-0.234172185430464	-0.177271523178808	-0.87194701986755	6.72741721854305	3.50649006622517	-3.84026490066225				0.512529801324503	-0.192529801324503	-0.821721854304636	0.802913907284768	2.4235761589404	-3.97562913907285				0.964026490066225	0.0354966887417219	0.0539337748344371	-2.8482119205298	8.73192052980133	-3.41748344370861				0.463788079470199	-0.238834437086093	-0.836238410596026	-9.49960264900662	18.6376158940397	6.24529801324503			
25	500	-0.264158940397351	0.146754966887417	-0.919523178807947	-5.00662251655629	0.415364238410596	3.85509933774834				0.944953642384106	0.0317880794701987	0.333139072847682	-1.80609271523179	-24.3321854304636	5.01403973509934				-0.202172185430464	-0.209271523178808	-0.87194701986755	9.80741721854305	2.66649006622517	-5.24026490066225				0.496529801324503	-0.224529801324503	-0.837721854304636	6.40291390728477	1.5835761589404	-9.01562913907285				0.980026490066225	0.0194966887417219	0.0219337748344371	-0.0482119205298018	7.05192052980133	-3.41748344370861				0.463788079470199	-0.254834437086093	-0.868238410596026	-7.53960264900662	11.6376158940397	11.285298013245			
26	520	-0.248158940397351	0.130754966887417	-0.935523178807947	-7.24662251655629	0.135364238410596	3.57509933774835				0.960953642384106	0.0797880794701987	0.317139072847682	-3.20609271523179	-38.0521854304636	4.17403973509934				-0.202172185430464	-0.225271523178808	-0.85594701986755	12.327417218543	2.10649006622517	-7.20026490066225				0.528529801324503	-0.208529801324503	-0.837721854304636	5.56291390728477	1.5835761589404	-13.2156291390728				0.948026490066225	0.0194966887417219	0.0219337748344371	0.231788079470198	7.89192052980133	-3.13748344370861				0.447788079470199	-0.238834437086093	-0.868238410596026	-9.21960264900662	8.83761589403974	17.725298013245			
27	540	-0.232158940397351	0.146754966887417	-0.919523178807947	-8.08662251655629	-1.5446357615894	4.69509933774834				0.912953642384106	0.0957880794701987	0.253139072847682	6.03390728476821	-39.4521854304636	7.25403973509934				-0.218172185430464	-0.209271523178808	-0.83994701986755	10.087417218543	2.38649006622517	-6.36026490066225				0.512529801324503	-0.224529801324503	-0.853721854304636	-1.99708609271523	-2.0564238410596	-17.1356291390729				0.948026490066225	0.0514966887417219	-0.0100662251655629	-0.0482119205298018	10.1319205298013	-3.13748344370861				0.399788079470199	-0.206834437086093	-0.884238410596026	-11.7396026490066	11.3576158940397	25.565298013245			
28	560	-0.264158940397351	0.178754966887417	-0.903523178807947	-6.96662251655629	-2.1046357615894	5.53509933774834				0.912953642384106	0.0317880794701987	0.237139072847682	12.1939072847682	-34.4121854304636	10.0540397350993				-0.266172185430464	-0.161271523178808	-0.82394701986755	5.32741721854305	1.26649006622517	-3.56026490066225				0.464529801324503	-0.176529801324503	-0.805721854304636	-10.1170860927152	-2.8964238410596	-20.7756291390729				0.948026490066225	0.0354966887417219	-0.0580662251655629	0.231788079470198	10.4119205298013	-2.01748344370861				0.399788079470199	-0.158834437086093	-0.868238410596026	-5.01960264900662	14.4376158940397	32.845298013245			
29	580	-0.312158940397351	0.178754966887417	-0.903523178807947	-8.92662251655629	-1.2646357615894	5.53509933774834				0.896953642384106	0.0317880794701987	0.221139072847682	13.0339072847682	-31.6121854304636	10.0540397350993				-0.282172185430464	-0.177271523178808	-0.85594701986755	7.28741721854305	0.706490066225167	-1.32026490066225				0.432529801324503	-0.176529801324503	-0.821721854304636	-3.95708609271523	-5.6964238410596	-21.8956291390728				0.948026490066225	0.0194966887417219	-0.0740662251655629	4.7117880794702	9.01192052980133	-2.01748344370861				0.351788079470199	-0.142834437086093	-0.868238410596026	1.42039735099338	11.3576158940397	37.605298013245			
30	600	-0.360158940397351	0.162754966887417	-0.887523178807947	-12.5666225165563	-0.144635761589404	5.81509933774834				0.912953642384106	0.0157880794701987	0.173139072847682	9.11390728476821	-2.49218543046358	13.1340397350993				-0.314172185430464	-0.209271523178808	-0.87194701986755	10.927417218543	-2.09350993377483	-1.60026490066225				0.448529801324503	-0.256529801324503	-0.837721854304636	-3.95708609271523	-7.9364238410596	-20.2156291390728				0.932026490066225	0.0514966887417219	-0.0260662251655629	10.5917880794702	10.6919205298013	-0.897483443708608				0.335788079470199	-0.126834437086093	-0.916238410596027	5.62039735099338	16.9576158940397	38.725298013245			
31	620	-0.344158940397351	0.194754966887417	-0.903523178807947	-15.9266225165563	0.135364238410596	4.69509933774834				0.928953642384106	-0.0162119205298013	0.189139072847682	2.95390728476821	22.9878145695364	10.0540397350993				-0.282172185430464	-0.241271523178808	-0.85594701986755	15.127417218543	2.38649006622517	-2.16026490066225				0.416529801324503	-0.272529801324503	-0.837721854304636	-9.55708609271523	-4.0164238410596	-18.8156291390729				0.948026490066225	0.0194966887417219	-0.0580662251655629	12.2717880794702	14.6119205298013	0.222516556291392				0.351788079470199	-0.158834437086093	-0.916238410596027	20.1803973509934	19.4776158940397	38.725298013245			
32	640	-0.328158940397351	0.178754966887417	-0.903523178807947	-18.4466225165563	2.0953642384106	5.81509933774834				0.912953642384106	0.0157880794701987	0.237139072847682	1.83390728476821	38.3878145695364	8.93403973509934				-0.266172185430464	-0.193271523178808	-0.85594701986755	10.367417218543	2.66649006622517	-1.60026490066225				0.368529801324503	-0.240529801324503	-0.821721854304636	-10.3970860927152	1.8635761589404	-17.6956291390729				0.948026490066225	-0.0125033112582781	-0.0740662251655629	11.9917880794702	21.6119205298013	-1.17748344370861				0.367788079470199	-0.190834437086093	-0.868238410596026	27.1803973509934	21.7176158940397	42.365298013245			
33	660	-0.296158940397351	0.194754966887417	-0.903523178807947	-20.1266225165563	4.8953642384106	6.09509933774834				0.960953642384106	0.0477880794701987	0.333139072847682	3.79390728476821	49.3078145695364	10.0540397350993				-0.282172185430464	-0.209271523178808	-0.85594701986755	8.12741721854305	3.22649006622517	-1.04026490066225				0.336529801324503	-0.224529801324503	-0.837721854304636	-2.27708609271523	7.4635761589404	-15.1756291390728				0.948026490066225	-0.0125033112582781	-0.0260662251655629	11.7117880794702	29.7319205298013	-3.13748344370861				0.367788079470199	-0.222834437086093	-0.836238410596026	26.0603973509934	27.3176158940397	48.245298013245			
34	680	-0.280158940397351	0.226754966887417	-0.903523178807947	-22.0866225165563	3.4953642384106	5.81509933774834				0.912953642384106	0.0157880794701987	0.333139072847682	5.75390728476821	53.5078145695364	11.1740397350993				-0.266172185430464	-0.193271523178808	-0.88794701986755	14.007417218543	1.54649006622517	-0.20026490066225				0.368529801324503	-0.208529801324503	-0.853721854304636	7.80291390728477	13.9035761589404	-13.2156291390728				0.948026490066225	0.0354966887417219	0.0219337748344371	11.4317880794702	29.4519205298013	-3.13748344370861				0.383788079470199	-0.206834437086093	-0.836238410596026	19.3403973509934	29.2776158940397	48.245298013245			
35	700	-0.280158940397351	0.226754966887417	-0.935523178807947	-21.8066225165563	3.2153642384106	6.93509933774835				0.912953642384106	0.0317880794701987	0.333139072847682	2.67390728476821	60.2278145695364	10.8940397350993				-0.234172185430464	-0.193271523178808	-0.87194701986755	15.967417218543	4.34649006622517	0.35973509933775				0.496529801324503	-0.208529801324503	-0.853721854304636	4.72291390728477	16.7035761589404	-9.85562913907285				0.932026490066225	0.0194966887417219	0.00593377483443711	11.9917880794702	30.8519205298013	-5.37748344370861				0.415788079470199	-0.190834437086093	-0.772238410596026	20.1803973509934	37.1176158940397	46.845298013245			
36	720	-0.280158940397351	0.210754966887417	-0.919523178807947	-20.9666225165563	7.1353642384106	8.33509933774834				0.896953642384106	0.0477880794701987	0.365139072847682	1.27390728476821	61.6278145695364	12.5740397350993				-0.234172185430464	-0.193271523178808	-0.87194701986755	20.1674172185431	6.30649006622517	-0.48026490066225				0.544529801324503	-0.272529801324503	-0.837721854304636	-4.79708609271523	11.1035761589404	-8.17562913907285				0.916026490066225	0.0514966887417219	0.0219337748344371	14.5117880794702	30.0119205298013	-6.21748344370861				0.399788079470199	-0.206834437086093	-0.724238410596026	27.1803973509934	33.4776158940397	47.125298013245			
37	740	-0.280158940397351	0.210754966887417	-0.903523178807947	-21.8066225165563	7.9753642384106	11.1350993377483				0.896953642384106	0.0477880794701987	0.429139072847682	-1.52609271523179	65.5478145695364	14.8140397350993				-0.266172185430464	-0.209271523178808	-0.87194701986755	17.647417218543	8.54649006622517	-1.60026490066225				0.576529801324503	-0.240529801324503	-0.821721854304636	-11.2370860927152	15.3035761589404	-9.01562913907285				0.884026490066225	0.0674966887417219	0.0699337748344371	17.3117880794702	36.1719205298013	-9.01748344370861				0.399788079470199	-0.270834437086093	-0.660238410596027	30.2603973509934	38.5176158940397	49.085298013245			
38	760	-0.328158940397351	0.210754966887417	-0.919523178807947	-22.6466225165563	7.1353642384106	12.5350993377483				0.928953642384106	0.0637880794701987	0.397139072847682	2.11390728476821	67.7878145695364	17.0540397350993				-0.298172185430464	-0.193271523178808	-0.87194701986755	22.127417218543	5.18649006622517	-3.56026490066225				0.592529801324503	-0.144529801324503	-0.917721854304636	-13.7570860927152	11.1035761589404	-11.8156291390728				0.884026490066225	0.0994966887417219	0.165933774834437	20.3917880794702	44.8519205298013	-12.0974834437086				0.431788079470199	-0.238834437086093	-0.692238410596026	22.7003973509934	40.4776158940397	49.645298013245			
39	780	-0.312158940397351	0.258754966887417	-0.871523178807947	-23.7666225165563	7.9753642384106	14.7750993377483				0.896953642384106	0.0637880794701987	0.349139072847682	11.6339072847682	73.6678145695364	16.7740397350993				-0.298172185430464	-0.177271523178808	-0.88794701986755	25.767417218543	9.66649006622517	-5.52026490066225				0.704529801324503	-0.0645298013245033	-0.917721854304636	-35.5970860927152	-4.2964238410596	-16.0156291390729				0.932026490066225	0.131496688741722	0.213933774834437	26.8317880794702	45.1319205298013	-14.6174834437086				0.479788079470199	-0.238834437086093	-0.676238410596026	18.2203973509934	44.6776158940397	47.405298013245			
40	800	-0.296158940397351	0.258754966887417	-0.919523178807947	-23.4866225165563	9.3753642384106	18.1350993377483				0.848953642384106	0.0477880794701987	0.413139072847682	11.6339072847682	90.4678145695364	16.2140397350993				-0.282172185430464	-0.161271523178808	-0.85594701986755	30.8074172185431	15.8264900662252	-6.64026490066225				0.736529801324503	-0.176529801324503	-0.901721854304636	-46.2370860927152	-17.1764238410596	-19.3756291390728				0.932026490066225	0.163496688741722	0.245933774834437	37.4717880794702	41.7719205298013	-16.0174834437086				0.479788079470199	-0.238834437086093	-0.692238410596026	17.3803973509934	51.3976158940397	39.565298013245			
41	820	-0.296158940397351	0.258754966887417	-0.919523178807947	-20.1266225165563	11.3353642384106	20.9350993377483				0.896953642384106	0.111788079470199	0.525139072847682	12.4739072847682	97.7478145695364	16.7740397350993				-0.250172185430464	-0.177271523178808	-0.85594701986755	35.567417218543	15.8264900662252	-7.76026490066225				0.688529801324503	-0.128529801324503	-0.853721854304636	-35.3170860927152	-6.8164238410596	-24.9756291390729				0.948026490066225	0.227496688741722	0.261933774834437	44.4717880794702	40.6519205298013	-23.0174834437086				0.527788079470199	-0.206834437086093	-0.612238410596026	27.7403973509934	61.1976158940397	34.525298013245			
42	840	-0.328158940397351	0.274754966887417	-0.951523178807947	-20.1266225165563	12.1753642384106	23.4550993377483				0.896953642384106	0.0317880794701987	0.525139072847682	14.4339072847682	92.1478145695364	22.6540397350993				-0.282172185430464	-0.209271523178808	-0.88794701986755	40.3274172185431	19.1864900662252	-11.1202649006623				0.592529801324503	-0.0165298013245033	-0.789721854304636	-32.5170860927152	-6.2564238410596	-32.5356291390729				0.948026490066225	0.163496688741722	0.309933774834437	55.3917880794702	38.1319205298013	-28.0574834437086				0.495788079470199	-0.270834437086093	-0.564238410596026	45.1003973509934	49.7176158940397	26.685298013245			
43	860	-0.408158940397351	0.322754966887417	-1.12752317880795	-30.2066225165563	7.4153642384106	30.1750993377483				0.896953642384106	-0.000211920529801304	0.477139072847682	6.87390728476821	85.1478145695364	26.0140397350993				-0.298172185430464	-0.257271523178808	-0.88794701986755	42.287417218543	16.1064900662252	-16.1602649006623				0.480529801324503	-0.0485298013245033	-0.773721854304636	-30.8370860927152	-4.0164238410596	-42.3356291390729				0.980026490066225	0.0994966887417219	0.341933774834437	55.9517880794702	33.3719205298013	-31.4174834437086				0.543788079470199	-0.382834437086093	-0.580238410596026	37.2603973509934	44.3976158940397	14.645298013245			
44	880	-0.296158940397351	0.274754966887417	-0.935523178807947	-46.1666225165563	31.4953642384106	34.3750993377484				0.896953642384106	-0.000211920529801304	0.541139072847682	0.433907284768212	89.0678145695364	27.4140397350993				-0.314172185430464	-0.289271523178808	-0.90394701986755	48.7274172185431	21.1464900662252	-21.4802649006623				0.544529801324503	0.0794701986754967	-0.629721854304636	-14.3170860927152	0.7435761589404	-45.6956291390729				0.996026490066225	0.0674966887417219	0.309933774834437	35.7917880794702	16.2919205298013	-35.3374834437086				0.623788079470199	-0.494834437086093	-0.596238410596026	39.2203973509934	37.1176158940397	-1.03470198675497			
45	900	-0.328158940397351	0.274754966887417	-0.951523178807947	-23.4866225165563	26.1753642384106	36.3350993377484				0.896953642384106	0.0477880794701987	0.845139072847682	-1.24609271523179	84.8678145695364	33.2940397350993				-0.394172185430464	-0.337271523178808	-0.95194701986755	42.567417218543	16.6664900662252	-25.9602649006623				0.752529801324503	0.271470198675497	-0.597721854304636	10.8829139072848	-14.3764238410596	-39.8156291390729				0.964026490066225	0.243496688741722	0.341933774834437	20.9517880794702	13.2119205298013	-40.3774834437086				0.735788079470199	-0.478834437086093	-0.644238410596026	26.0603973509934	27.3176158940397	-13.914701986755			
46	920	-0.392158940397351	0.354754966887417	-0.839523178807947	-47.0066225165563	36.5353642384106	41.0950993377484				0.896953642384106	-0.0162119205298013	1.05313907284768	-4.04609271523179	63.5878145695364	37.2140397350993				-0.378172185430464	-0.273271523178808	-0.88794701986755	50.9674172185431	30.1064900662252	-30.7202649006623				0.896529801324503	-0.000529801324503289	-0.869721854304636	17.6029139072848	-29.4964238410596	-37.2956291390729				0.900026490066225	0.483496688741722	0.501933774834437	48.9517880794702	24.1319205298013	-34.2174834437086				0.815788079470199	-0.494834437086093	-0.644238410596026	19.9003973509934	24.7976158940397	-18.954701986755			
47	940	-0.424158940397351	0.386754966887417	-0.855523178807947	-41.4066225165563	32.8953642384106	41.3750993377484				0.864953642384106	-0.0962119205298013	0.781139072847682	-3.20609271523179	56.8678145695364	33.0140397350993				-0.314172185430464	-0.385271523178808	-0.85594701986755	24.647417218543	32.9064900662252	-25.9602649006623				0.848529801324503	-0.112529801324503	-1.01372185430464	13.4029139072848	-5.1364238410596	-48.7756291390729				0	0	0	0	0	0				0.863788079470199	-0.574834437086093	-0.596238410596026	29.4203973509934	25.9176158940397	-10.554701986755			
48	960	-0.424158940397351	0.466754966887417	-0.855523178807947	-20.9666225165563	39.8953642384106	38.2950993377484				0	0	0	0	0	0				0	0	0	0	0	0				0.720529801324503	-0.0645298013245033	-0.837721854304636	-9.83708609271523	-2.8964238410596	-44.8556291390729				1.18802649006623	0.355496688741722	0.581933774834437	73.5917880794702	40.6519205298013	-35.3374834437086				0.975788079470199	-0.734834437086093	-0.548238410596027	38.3803973509934	18.0776158940397	-2.71470198675497			
49	980	-0.376158940397351	0.530754966887417	-0.935523178807947	-8.08662251655629	46.6153642384106	37.4550993377484				1.07295364238411	-0.128211920529801	1.13313907284768	7.15390728476821	50.9878145695364	31.3340397350993				-0.298172185430464	-0.465271523178808	-0.79194701986755	0.847417218543046	56.1464900662252	-20.6402649006623				0.592529801324503	0.223470198675497	-0.901721854304636	7.52291390728477	2.9835761589404	-36.4556291390729				1.09202649006623	0.355496688741722	0.773933774834437	53.7117880794702	45.6919205298013	-31.4174834437086				1.1037880794702	-0.894834437086093	-0.516238410596026	28.8603973509934	3.79761589403974	9.04529801324503			
50	1000	-0.312158940397351	0.498754966887417	-0.871523178807947	4.51337748344371	53.3353642384106	36.0550993377484				1.04095364238411	-0.0802119205298013	1.19713907284768	12.7539072847682	19.0678145695364	23.7740397350993				-0.282172185430464	-0.465271523178808	-0.88794701986755	-14.272582781457	60.9064900662252	-15.8802649006623				0.720529801324503	0.287470198675497	-0.949721854304636	11.4429139072848	11.9435761589404	-38.9756291390729				1.30002649006623	0.243496688741722	0.725933774834437	35.2317880794702	40.6519205298013	-24.6974834437086				1.2477880794702	-1.07083443708609	-0.484238410596026	2.82039735099338	11.6376158940397	13.245298013245			
51	1020	-0.264158940397351	0.498754966887417	-0.871523178807947	16.5533774834437	62.8553642384106	30.1750993377483				0.944953642384106	-0.128211920529801	0.925139072847682	18.9139072847682	-2.21218543046358	19.0140397350993				-0.234172185430464	-0.497271523178808	-0.87194701986755	-13.432582781457	70.9864900662252	-15.3202649006623				0.768529801324503	0.0634701986754967	-0.933721854304636	4.44291390728477	25.1035761589404	-42.6156291390729				1.18802649006623	0.323496688741722	0.757933774834437	19.5517880794702	31.4119205298013	-17.6974834437086				1.3437880794702	-1.07083443708609	-0.516238410596026	-19.8596026490066	20.0376158940397	19.125298013245			
52	1040	-0.232158940397351	0.498754966887417	-0.919523178807947	27.7533774834437	70.9753642384106	26.5350993377483				0.992953642384106	-0.208211920529801	1.02113907284768	27.8739072847682	13.1878145695364	11.7340397350993				-0.154172185430464	-0.449271523178808	-0.88794701986755	-13.152582781457	81.0664900662252	-11.4002649006623				0.800529801324503	0.111470198675497	-0.837721854304636	0.802913907284768	34.9035761589404	-29.4556291390729				1.14002649006623	0.387496688741722	0.677933774834437	3.8717880794702	27.2119205298013	-10.6974834437086				1.2797880794702	-0.894834437086093	-0.532238410596027	-24.6196026490066	5.75761589403974	21.925298013245			
53	1060	-0.168158940397351	0.482754966887417	-0.951523178807947	40.9133774834437	78.8153642384106	24.2950993377483				0.944953642384106	-0.176211920529801	1.06913907284768	29.2739072847682	5.34781456953642	1.37403973509934				-0.0261721854304636	-0.417271523178808	-0.91994701986755	-20.152582781457	88.6264900662252	-9.16026490066225				0.832529801324503	0.207470198675497	-0.789721854304636	18.7229139072848	43.5835761589404	-6.49562913907285				1.17202649006623	0.419496688741722	0.645933774834437	-2.5682119205298	29.1719205298013	-4.25748344370861				1.1997880794702	-0.734834437086093	-0.500238410596026	-12.5796026490066	8.55761589403974	18.285298013245			
54	1080	-0.008158940397351	0.354754966887417	-1.06352317880795	44.2733774834437	88.8953642384106	21.2150993377483				0.912953642384106	-0.0962119205298013	0.989139072847682	20.3139072847682	2.82781456953642	-2.26596026490066				0.117827814569536	-0.417271523178808	-0.93594701986755	-16.232582781457	95.9064900662252	-13.0802649006623				0.944529801324503	0.159470198675497	-0.885721854304636	24.3229139072848	51.1435761589404	12.5443708609272				1.18802649006623	0.387496688741722	0.661933774834437	2.1917880794702	26.3719205298013	2.46251655629139				1.1037880794702	-0.638834437086093	-0.500238410596026	0.300397350993377	13.8776158940397	6.52529801324503			
55	1100	0.167841059602649	0.258754966887417	-1.07952317880795	41.4733774834437	94.2153642384106	22.6150993377483				0.896953642384106	-0.0962119205298013	0.989139072847682	21.9939072847682	1.70781456953642	-1.14596026490066				0.229827814569536	-0.353271523178808	-1.01594701986755	-14.272582781457	101.506490066225	-16.7202649006623				0.896529801324503	0.0794701986754967	-0.917721854304636	24.0429139072848	56.1835761589404	24.8643708609272				1.14002649006623	0.403496688741722	0.629933774834437	-6.7682119205298	15.7319205298013	6.38251655629139				0.959788079470199	-0.654834437086093	-0.500238410596026	10.3803973509934	16.9576158940397	-8.31470198675497			
56	1120	0.247841059602649	0.258754966887417	-1.07952317880795	39.2333774834437	97.8553642384106	24.2950993377483				0.928953642384106	-0.112211920529801	1.10113907284768	21.7139072847682	-6.69218543046358	-6.46596026490066				0.357827814569536	-0.337271523178808	-0.99994701986755	-2.23258278145695	107.106490066225	-20.9202649006623				0.928529801324503	0.0474701986754967	-0.949721854304636	21.8029139072848	50.0235761589404	25.9843708609272				1.14002649006623	0.403496688741722	0.565933774834437	-10.1282119205298	17.4119205298013	7.78251655629139				0.975788079470199	-0.734834437086093	-0.548238410596027	16.5403973509934	22.2776158940397	-26.514701986755			
57	1140	0.247841059602649	0.274754966887417	-1.07952317880795	39.2333774834437	103.735364238411	30.1750993377483				0.992953642384106	-0.0642119205298013	1.08513907284768	23.9539072847682	-25.1721854304636	-8.14596026490066				0.357827814569536	-0.401271523178808	-0.99994701986755	8.96741721854305	113.266490066225	-27.6402649006623				0.944529801324503	0.0314701986754967	-0.933721854304636	17.0429139072848	37.9835761589404	23.4643708609272				1.15602649006623	0.371496688741722	0.549933774834437	-10.9682119205298	17.6919205298013	7.22251655629139				0.959788079470199	-0.750834437086093	-0.612238410596026	2.54039735099338	30.1176158940397	-32.394701986755			
58	1160	0.231841059602649	0.290754966887417	-1.03152317880795	46.7933774834437	109.615364238411	31.5750993377483				0.880953642384106	-0.0802119205298013	1.10113907284768	4.07390728476821	-28.5321854304636	-6.18596026490066				0.373827814569536	-0.385271523178808	-0.96794701986755	5.32741721854305	117.466490066225	-33.5202649006623				0.912529801324503	0.0314701986754967	-0.885721854304636	13.1229139072848	37.1435761589404	21.5043708609272				1.15602649006623	0.371496688741722	0.565933774834437	-20.7682119205298	9.29192052980133	8.06251655629139				0.959788079470199	-0.718834437086093	-0.628238410596026	-5.29960264900662	22.2776158940397	-28.194701986755			
59	1180	0.231841059602649	0.258754966887417	-1.01552317880795	56.8733774834437	118.575364238411	31.5750993377483				0.880953642384106	-0.0802119205298013	1.06913907284768	-7.68609271523179	-26.2921854304636	-7.58596026490066				0.389827814569536	-0.449271523178808	-0.95194701986755	-3.91258278145695	124.186490066225	-34.9202649006623				0.880529801324503	-0.000529801324503289	-0.821721854304636	35.5229139072848	44.7035761589404	25.4243708609272				1.12402649006623	0.339496688741722	0.581933774834437	-18.5282119205298	5.93192052980133	9.46251655629139				0.927788079470199	-0.718834437086093	-0.596238410596026	-13.9796026490066	28.7176158940397	-21.194701986755			
60	1200	0.359841059602649	0.258754966887417	-0.999523178807947	64.7133774834437	128.375364238411	32.1350993377484				0.944953642384106	-0.0322119205298013	0.989139072847682	-4.60609271523179	-22.3721854304636	-6.46596026490066				0.469827814569536	-0.417271523178808	-0.93594701986755	-10.632582781457	130.066490066225	-36.6002649006623				0.944529801324503	-0.0485298013245033	-0.821721854304636	43.3629139072848	54.2235761589404	30.1843708609272				1.07602649006623	0.323496688741722	0.597933774834437	-26.3682119205298	-2.46807947019868	9.74251655629139				0.975788079470199	-0.670834437086093	-0.660238410596027	-22.3796026490066	32.9176158940397	-8.87470198675497			
61	1220	0.439841059602649	0.210754966887417	-0.951523178807947	63.0333774834437	139.015364238411	32.1350993377484				0.944953642384106	0.0157880794701987	0.925139072847682	6.87390728476821	-19.2921854304636	-5.62596026490066				0.501827814569536	-0.369271523178808	-0.90394701986755	-12.312582781457	132.026490066225	-34.6402649006623				1.0085298013245	-0.128529801324503	-0.821721854304636	25.4429139072848	50.3035761589404	29.0643708609272				1.10802649006623	0.323496688741722	0.565933774834437	-32.2482119205298	-6.66807947019868	14.2225165562914				0.975788079470199	-0.670834437086093	-0.676238410596026	3.38039735099338	17.5176158940397	-0.754701986754968			
62	1240	0.471841059602649	0.162754966887417	-0.935523178807947	63.8733774834437	142.095364238411	32.4150993377484				1.00895364238411	-0.0322119205298013	0.797139072847682	11.0739072847682	-32.1721854304636	-0.86596026490066				0.485827814569536	-0.321271523178808	-0.85594701986755	-5.87258278145695	136.506490066225	-31.8402649006623				1.0565298013245	-0.0485298013245033	-0.821721854304636	13.1229139072848	39.1035761589404	22.0643708609272				1.09202649006623	0.355496688741722	0.533933774834437	-26.6482119205298	-0.788079470198675	16.4625165562914				0.975788079470199	-0.670834437086093	-0.612238410596026	10.1003973509934	13.0376158940397	0.0852980132450323			
63	1260	0.407841059602649	0.178754966887417	-0.807523178807947	53.7933774834437	137.895364238411	33.5350993377483				0.928953642384106	-0.0482119205298013	0.749139072847682	3.79390728476821	-15.0921854304636	3.61403973509934				0.501827814569536	-0.337271523178808	-0.82394701986755	0.00741721854304636	141.266490066225	-29.8802649006623				1.0885298013245	-0.0165298013245033	-0.821721854304636	9.48291390728477	25.9435761589404	17.8643708609272				1.07602649006623	0.339496688741722	0.565933774834437	-19.3682119205298	-5.82807947019868	15.0625165562914				0.895788079470199	-0.606834437086093	-0.676238410596026	-17.6196026490066	4.91761589403974	5.96529801324503			
64	1280	0.359841059602649	0.226754966887417	-0.743523178807947	67.5133774834437	143.775364238411	29.8950993377483				0.912953642384106	-0.0642119205298013	0.861139072847682	-3.48609271523179	-11.4521854304636	2.77403973509934				0.533827814569536	-0.353271523178808	-0.74394701986755	-5.87258278145695	144.906490066225	-28.2002649006623				0.960529801324503	-0.0965298013245033	-0.773721854304636	13.4029139072848	11.9435761589404	9.46437086092715				1.01202649006623	0.275496688741722	0.581933774834437	-21.3282119205298	-18.1480794701987	16.4625165562914				0.815788079470199	-0.542834437086093	-0.692238410596026	-7.25960264900662	-6.00238410596027	9.88529801324503			
65	1300	0.471841059602649	0.114754966887417	-0.679523178807947	72.5533774834437	154.135364238411	25.6950993377483				1.00895364238411	-0.0802119205298013	0.861139072847682	-7.96609271523179	-23.7721854304636	1.65403973509934				0.533827814569536	-0.305271523178808	-0.72794701986755	-10.072582781457	149.386490066225	-27.0802649006623				0.784529801324503	-0.112529801324503	-0.677721854304636	12.8429139072848	4.9435761589404	4.98437086092715				0.948026490066225	0.243496688741722	0.485933774834437	-20.7682119205298	-17.8680794701987	16.7425165562914				0.767788079470199	-0.542834437086093	-0.596238410596026	7.86039735099338	-16.0823841059603	9.32529801324503			
66	1320	0.567841059602649	-0.0132450331125828	-0.695523178807947	67.2333774834437	159.455364238411	21.4950993377483				0.896953642384106	-0.0482119205298013	0.829139072847682	-7.68609271523179	-52.3321854304636	0.53403973509934				0.565827814569536	-0.321271523178808	-0.63194701986755	-5.59258278145695	155.266490066225	-28.2002649006623				0.736529801324503	-0.0805298013245033	-0.597721854304636	23.4829139072848	8.0235761589404	6.10437086092715				0.916026490066225	0.195496688741722	0.437933774834437	-16.2882119205298	-12.8280794701987	14.5025165562914				0.751788079470199	-0.542834437086093	-0.532238410596027	-23.7796026490066	-9.08238410596027	10.165298013245			
67	1340	0.679841059602649	-0.0772450331125828	-0.679523178807947	50.4333774834437	162.535364238411	18.6950993377483				0.736953642384106	-0.0322119205298013	0.637139072847682	-7.12609271523179	-63.5321854304636	3.05403973509934				0.597827814569536	-0.273271523178808	-0.53594701986755	-14.272582781457	159.746490066225	-26.5202649006623				0.800529801324503	-0.112529801324503	-0.549721854304636	29.3629139072848	19.2235761589404	8.34437086092715				0.884026490066225	0.179496688741722	0.469933774834437	-16.0082119205298	-14.5080794701987	16.1825165562914				0.703788079470199	-0.494834437086093	-0.532238410596027	-30.2196026490066	-9.92238410596027	12.965298013245			
68	1360	0.791841059602649	-0.0772450331125828	-0.615523178807947	34.1933774834437	161.695364238411	17.0150993377483				0.752953642384106	-0.0642119205298013	0.573139072847682	-10.2060927152318	-50.6521854304636	-0.0259602649006601				0.645827814569536	-0.225271523178808	-0.47194701986755	-27.432582781457	163.666490066225	-23.7202649006623				0.752529801324503	-0.192529801324503	-0.469721854304636	17.0429139072848	21.1835761589404	10.5843708609272				0.772026490066225	0.163496688741722	0.405933774834437	-15.4482119205298	-22.0680794701987	18.4225165562914				0.623788079470199	-0.430834437086093	-0.420238410596026	-11.4596026490066	-20.2823841059603	14.925298013245			
69	1380	0.807841059602649	-0.0132450331125828	-0.583523178807947	33.6333774834437	164.775364238411	11.9750993377483				0.720953642384106	-0.128211920529801	0.557139072847682	-16.0860927152318	-57.0921854304636	0.25403973509934				0.741827814569536	-0.177271523178808	-0.39194701986755	-33.872582781457	165.626490066225	-20.6402649006623				0.528529801324503	-0.0645298013245033	-0.421721854304636	8.64291390728477	17.8235761589404	6.38437086092715				0.644026490066225	0.115496688741722	0.389933774834437	-14.8882119205298	-22.6280794701987	19.5425165562914				0.527788079470199	-0.414834437086093	-0.292238410596026	-3.89960264900662	-15.5223841059603	13.245298013245			
70	1400	0.775841059602649	0.0507549668874172	-0.439523178807947	24.9533774834437	165.895364238411	2.73509933774834				0.608953642384106	-0.144211920529801	0.605139072847682	-22.8060927152318	-62.9721854304636	-0.585960264900661				0.821827814569536	-0.113271523178808	-0.32794701986755	-39.472582781457	164.786490066225	-15.6002649006622				0.480529801324503	0.0314701986754967	-0.357721854304636	17.6029139072848	19.2235761589404	3.58437086092715				0.596026490066225	0.0514966887417219	0.373933774834437	-12.9282119205298	-17.5880794701987	20.1025165562914				0.495788079470199	-0.366834437086093	-0.244238410596026	-14.8196026490066	-6.84238410596027	6.24529801324503			
71	1420	0.727841059602649	0.114754966887417	-0.375523178807947	20.7533774834437	166.175364238411	-8.74490066225166				0.496953642384106	-0.0962119205298013	0.525139072847682	-14.1260927152318	-63.5321854304636	1.93403973509934				0.789827814569536	-0.177271523178808	-0.26394701986755	-33.032582781457	167.866490066225	-17.8402649006623				0.480529801324503	-0.0485298013245033	-0.325721854304636	26.0029139072848	20.0635761589404	3.02437086092715				0.548026490066225	0.0674966887417219	0.373933774834437	-17.1282119205298	-12.8280794701987	21.7825165562914				0.495788079470199	-0.318834437086093	-0.244238410596026	-16.4996026490066	0.997615894039735	0.0852980132450323			
72	1440	0.727841059602649	0.130754966887417	-0.359523178807947	28.8733774834437	165.615364238411	-17.4249006622517				0.544953642384106	-0.0162119205298013	0.397139072847682	-14.9660927152318	-44.2121854304636	2.49403973509934				0.709827814569536	-0.177271523178808	-0.27994701986755	-29.952582781457	168.706490066225	-17.8402649006623				0.496529801324503	-0.0965298013245033	-0.277721854304636	22.3629139072848	22.8635761589404	2.74437086092715				0.500026490066225	0.131496688741722	0.373933774834437	-21.3282119205298	-10.5880794701987	21.7825165562914				0.463788079470199	-0.286834437086093	-0.212238410596026	-9.49960264900662	2.67761589403974	-5.23470198675497			
73	1460	0.823841059602649	0.0667549668874172	-0.263523178807947	30.5533774834437	171.215364238411	-23.5849006622517				0.496953642384106	0.0317880794701987	0.397139072847682	-14.9660927152318	-30.4921854304636	-4.22596026490066				0.677827814569536	-0.129271523178808	-0.16794701986755	-32.472582781457	174.586490066225	-15.3202649006623				0.512529801324503	-0.0805298013245033	-0.197721854304636	18.7229139072848	23.9835761589404	4.70437086092715				0.436026490066225	0.147496688741722	0.373933774834437	-19.6482119205298	-5.82807947019868	20.1025165562914				0.399788079470199	-0.270834437086093	-0.132238410596026	6.46039735099338	-3.48238410596027	-14.194701986755			
74	1480	0.839841059602649	0.0347549668874172	-0.295523178807947	40.9133774834437	164.215364238411	-30.5849006622517				0.480953642384106	0.0157880794701987	0.397139072847682	-19.1660927152318	-23.2121854304636	-2.26596026490066				0.693827814569536	-0.0972715231788079	-0.0879470198675496	-34.992582781457	175.426490066225	-10.0002649006623				0.512529801324503	-0.000529801324503289	-0.165721854304636	17.8829139072848	33.7835761589404	4.42437086092715				0.436026490066225	0.131496688741722	0.277933774834437	-22.4482119205298	-13.1080794701987	19.2625165562914				0.351788079470199	-0.238834437086093	-0.116238410596026	14.5803973509934	-2.92238410596027	-21.474701986755			
75	1500	0.743841059602649	0.00275496688741723	-0.199523178807947	42.0333774834437	163.935364238411	-30.0249006622517				0.384953642384106	-0.112211920529801	0.333139072847682	-16.0860927152318	-34.4121854304636	6.69403973509934				0.741827814569536	-0.113271523178808	-0.0559470198675496	-16.792582781457	174.586490066225	-8.60026490066225				0.640529801324503	-0.0165298013245033	-0.197721854304636	19.5629139072848	38.2635761589404	10.8643708609272				0.468026490066225	0.131496688741722	0.309933774834437	-17.6882119205298	-5.82807947019868	20.6625165562914				0.399788079470199	-0.270834437086093	-0.148238410596026	2.54039735099338	5.47761589403974	-24.274701986755			
76	1520	0.599841059602649	-0.0452450331125828	-0.215523178807947	47.3533774834437	157.215364238411	-27.7849006622517				0.384953642384106	-0.000211920529801304	0.573139072847682	-7.68609271523179	-27.4121854304636	10.6140397350993				0.757827814569536	-0.129271523178808	-0.0559470198675496	-1.39258278145695	175.706490066225	-7.48026490066225				0.640529801324503	-0.0485298013245033	-0.181721854304636	-0.597086092715232	32.9435761589404	10.0243708609272				0.468026490066225	0.0994966887417219	0.405933774834437	-9.8482119205298	-9.18807947019868	19.2625165562914				0.463788079470199	-0.334834437086093	-0.196238410596026	0.860397350993377	4.35761589403974	-23.154701986755			
77	1540	0.647841059602649	-0.0932450331125828	-0.167523178807947	48.7533774834437	151.895364238411	-31.4249006622517				0.368953642384106	-0.0162119205298013	0.269139072847682	-12.7260927152318	-47.0121854304636	7.81403973509934				0.821827814569536	-0.177271523178808	-0.0559470198675496	0.287417218543046	168.986490066225	-4.96026490066225				0.544529801324503	-0.0645298013245033	-0.133721854304636	8.36291390728477	18.3835761589404	13.3843708609272				0.404026490066225	0.0674966887417219	0.357933774834437	-13.2082119205298	-21.7880794701987	17.3025165562914				0.415788079470199	-0.350834437086093	-0.164238410596026	3.94039735099338	-4.60238410596027	-20.634701986755			
78	1560	0.759841059602649	-0.141245033112583	-0.167523178807947	46.5133774834437	147.135364238411	-27.7849006622517				0.304953642384106	0.0957880794701987	0.413139072847682	-15.5260927152318	-13.1321854304636	6.69403973509934				0.869827814569536	-0.209271523178808	-0.0399470198675496	-3.07258278145695	156.106490066225	-6.08026490066225				0.496529801324503	-0.0165298013245033	-0.197721854304636	-0.877086092715232	6.6235761589404	15.6243708609272				0.372026490066225	0.0994966887417219	0.325933774834437	-13.2082119205298	-24.3080794701987	16.1825165562914				0.367788079470199	-0.318834437086093	-0.180238410596026	-0.259602649006623	-14.9623841059603	-22.594701986755			
79	1580	0.791841059602649	-0.157245033112583	-0.183523178807947	30.8333774834437	136.775364238411	-18.5449006622517				0.320953642384106	-0.0322119205298013	0.509139072847682	-13.8460927152318	-15.9321854304636	11.7340397350993				0.757827814569536	-0.257271523178808	-0.0239470198675496	-8.11258278145695	140.426490066225	-3.84026490066225				0.592529801324503	-0.000529801324503289	-0.165721854304636	7.80291390728477	5.7835761589404	17.3043708609272				0.436026490066225	0.115496688741722	0.341933774834437	-12.0882119205298	-22.3480794701987	15.0625165562914				0.415788079470199	-0.302834437086093	-0.180238410596026	-1.09960264900662	-24.2023841059603	-26.234701986755			
80	1600	0.791841059602649	-0.125245033112583	-0.119523178807947	22.9933774834437	125.575364238411	-14.9049006622517				0.416953642384106	-0.112211920529801	0.541139072847682	-0.126092715231788	-31.8921854304636	12.8540397350993				0.677827814569536	-0.289271523178808	-0.00794701986754963	-27.712582781457	115.226490066225	1.47973509933775				0.608529801324503	-0.0325298013245033	-0.149721854304636	10.8829139072848	-2.0564238410596	22.3443708609272				0.532026490066225	0.0514966887417219	0.341933774834437	-3.4082119205298	-18.1480794701987	13.3825165562914				0.447788079470199	-0.334834437086093	-0.260238410596026	-12.5796026490066	-28.9623841059603	-26.234701986755			
81	1620	0.775841059602649	-0.0452450331125828	0.00847682119205304	11.7933774834437	114.095364238411	-9.58490066225166				0.384953642384106	-0.144211920529801	0.445139072847682	-6.28609271523179	-43.6521854304636	9.21403973509934				0.757827814569536	-0.385271523178808	-0.0239470198675496	-37.792582781457	87.2264900662252	9.59973509933775				0.624529801324503	-0.128529801324503	-0.229721854304636	11.1629139072848	-10.1764238410596	27.3843708609272				0.500026490066225	-0.0125033112582781	0.373933774834437	-3.9682119205298	-28.7880794701987	13.3825165562914				0.431788079470199	-0.414834437086093	-0.324238410596026	-6.97960264900662	-27.8423841059603	-22.594701986755			
82	1640	0.759841059602649	0.0507549668874172	0.104476821192053	-0.526622516556291	105.135364238411	-5.38490066225166				0.368953642384106	-0.112211920529801	0.365139072847682	-28.9660927152318	-24.3321854304636	4.45403973509934				0.885827814569536	-0.449271523178808	-0.0399470198675496	-47.032582781457	54.4664900662252	18.8397350993378				0.656529801324503	-0.208529801324503	-0.293721854304636	5.00291390728477	-17.7364238410596	26.5443708609272				0.500026490066225	-0.0125033112582781	0.357933774834437	-7.8882119205298	-31.5880794701987	13.6625165562914				0.495788079470199	-0.398834437086093	-0.308238410596026	-10.8996026490066	-30.3623841059603	-17.554701986755			
83	1660	0.855841059602649	0.0507549668874172	0.152476821192053	-5.28662251655629	98.4153642384106	-7.34490066225166				0.448953642384106	-0.0802119205298013	0.509139072847682	-30.6460927152318	6.18781456953642	3.05403973509934				0.901827814569536	-0.369271523178808	-0.0399470198675496	-54.032582781457	26.1864900662252	23.5997350993378				0.640529801324503	-0.208529801324503	-0.325721854304636	-11.2370860927152	-22.4964238410596	22.3443708609272				0.612026490066225	0.00349668874172187	0.357933774834437	-5.3682119205298	-27.3880794701987	11.1425165562914				0.511788079470199	-0.382834437086093	-0.324238410596026	-2.21960264900662	-39.0423841059603	-11.114701986755			
84	1680	0.839841059602649	0.0187549668874172	0.168476821192053	-13.6866225165563	81.3353642384106	-5.66490066225166				0.576953642384106	-0.0962119205298013	0.589139072847682	-12.1660927152318	0.587814569536424	4.73403973509934				0.821827814569536	-0.145271523178808	-0.0239470198675496	-66.352582781457	4.62649006622517	19.1197350993378				0.672529801324503	-0.0965298013245033	-0.405721854304636	-19.3570860927152	-32.2964238410596	17.3043708609272				0.676026490066225	0.0194966887417219	0.421933774834437	-4.5282119205298	-18.7080794701987	7.22251655629139				0.479788079470199	-0.398834437086093	-0.308238410596026	13.7403973509934	-44.9223841059603	-8.87470198675497			
85	1700	0.951841059602649	0.0187549668874172	0.120476821192053	-27.9666225165563	65.9353642384106	-5.94490066225166				0.720953642384106	-0.224211920529801	0.605139072847682	-14.4060927152318	-21.8121854304636	2.21403973509934				0.869827814569536	0.0467284768211921	0.0240529801324504	-62.712582781457	-8.53350993377483	8.75973509933775				0.752529801324503	-0.0645298013245033	-0.469721854304636	-6.47708609271523	-41.8164238410596	10.3043708609272				0.692026490066225	0.00349668874172187	0.453933774834437	-3.6882119205298	-21.5080794701987	5.54251655629139				0.495788079470199	-0.462834437086093	-0.340238410596026	4.50039735099338	-33.1623841059603	-8.59470198675497			
86	1720	1.20784105960265	0.0347549668874172	0.104476821192053	-26.0066225165563	50.2553642384106	-7.90490066225166				0.704953642384106	-0.208211920529801	0.669139072847682	-39.3260927152318	-10.6121854304636	-6.74596026490066				1.06182781456954	0.126728476821192	0.10405298013245	-39.192582781457	-18.0535099337748	2.87973509933775				0.816529801324503	-0.192529801324503	-0.549721854304636	-6.47708609271523	-44.0564238410596	0.224370860927152				0.772026490066225	0.0514966887417219	0.405933774834437	-9.2882119205298	-18.4280794701987	4.70251655629139				0.575788079470199	-0.494834437086093	-0.436238410596026	-11.1796026490066	-18.0423841059603	-7.75470198675497			
87	1740	1.33584105960265	0.0507549668874172	0.024476821192053	-22.0866225165563	32.6153642384106	-5.38490066225166				0.832953642384106	-0.0162119205298013	0.733139072847682	-42.1260927152318	12.3478145695364	-9.82596026490066				1.07782781456954	0.0787284768211921	0.18405298013245	-3.91258278145695	-23.6535099337748	-3.00026490066225				0.768529801324503	-0.288529801324503	-0.565721854304636	-25.5170860927152	-39.8564238410596	-9.01562913907285				0.868026490066225	0.115496688741722	0.373933774834437	-5.6482119205298	-5.26807947019868	-0.0574834437086077				0.607788079470199	-0.446834437086093	-0.516238410596026	-9.21960264900662	-15.8023841059603	0.925298013245032			
88	1760	1.15984105960265	0.0667549668874172	-0.071523178807947	-20.6866225165563	19.4553642384106	-2.02490066225166				0.864953642384106	0.0797880794701987	0.653139072847682	-4.60609271523179	3.66781456953642	-8.70596026490066				1.01382781456954	-0.00127152317880793	0.16805298013245	21.0074172185431	-27.2935099337748	-3.28026490066225				0.688529801324503	-0.144529801324503	-0.533721854304636	-24.9570860927152	-26.4164238410596	-18.8156291390729				0.884026490066225	0.163496688741722	0.389933774834437	-4.5282119205298	11.2519205298013	-5.65748344370861				0.639788079470199	-0.366834437086093	-0.532238410596027	-6.41960264900662	-14.6823841059603	12.685298013245			
89	1780	1.03184105960265	0.0827549668874172	-0.087523178807947	-10.8866225165563	7.4153642384106	-1.46490066225166				0.896953642384106	-0.0482119205298013	0.589139072847682	21.7139072847682	8.70781456953642	-1.70596026490066				1.06182781456954	-0.113271523178808	0.12005298013245	40.8874172185431	-28.9735099337748	-1.88026490066225				0.768529801324503	-0.0325298013245033	-0.453721854304636	6.68291390728477	-5.9764238410596	-19.6556291390729				0.916026490066225	0.115496688741722	0.373933774834437	3.8717880794702	21.6119205298013	-6.21748344370861				0.687788079470199	-0.366834437086093	-0.500238410596026	5.06039735099338	-4.88238410596027	11.005298013245			
90	1800	1.01584105960265	0.0187549668874172	0.072476821192053	7.31337748344371	-10.2246357615894	0.495099337748344				0.816953642384106	-0.0962119205298013	0.621139072847682	25.9139072847682	17.9478145695364	-3.94596026490066				1.01382781456954	-0.209271523178808	0.15205298013245	47.607417218543	-25.3335099337748	-3.28026490066225				0.864529801324503	-0.128529801324503	-0.437721854304636	19.5629139072848	7.4635761589404	-16.8556291390729				0.868026490066225	0.115496688741722	0.373933774834437	3.3117880794702	14.3319205298013	-5.65748344370861				0.751788079470199	-0.398834437086093	-0.468238410596026	2.54039735099338	6.03761589403974	0.0852980132450323			
91	1820	0.871841059602649	-0.0292450331125828	0.168476821192053	15.4333774834437	-14.1446357615894	3.85509933774834				0.800953642384106	-0.0322119205298013	0.573139072847682	11.3539072847682	19.0678145695364	-5.62596026490066				0.933827814569536	-0.273271523178808	0.15205298013245	42.287417218543	-14.9735099337748	-7.20026490066225				0.768529801324503	-0.128529801324503	-0.501721854304636	-7.31708609271523	6.6235761589404	-16.8556291390729				0.852026490066225	0.147496688741722	0.437933774834437	-1.4482119205298	10.6919205298013	-4.81748344370861				0.751788079470199	-0.398834437086093	-0.516238410596026	5.90039735099338	4.07761589403974	-5.51470198675497			
92	1840	0.871841059602649	-0.0612450331125828	0.152476821192053	6.19337748344371	-9.38463576158941	4.13509933774834				0.816953642384106	0.0317880794701987	0.493139072847682	0.993907284768212	16.8278145695364	-4.22596026490066				0.853827814569536	-0.305271523178808	0.10405298013245	25.767417218543	-9.93350993377483	-7.48026490066225				0.640529801324503	-0.000529801324503289	-0.517721854304636	-3.11708609271523	19.7835761589404	-12.6556291390728				0.884026490066225	0.195496688741722	0.421933774834437	-9.8482119205298	6.77192052980133	-3.69748344370861				0.735788079470199	-0.430834437086093	-0.484238410596026	22.1403973509934	-7.40238410596027	-7.19470198675497			
93	1860	0.951841059602649	-0.0612450331125828	0.120476821192053	-2.48662251655629	-4.6246357615894	1.89509933774834				0.880953642384106	-0.128211920529801	0.477139072847682	8.83390728476821	7.86781456953642	5.29403973509934				0.821827814569536	-0.353271523178808	0.0400529801324504	20.1674172185431	-4.05350993377483	-5.52026490066225				0.784529801324503	0.0314701986754967	-0.549721854304636	27.9629139072848	29.0235761589404	-6.77562913907285				0.900026490066225	0.147496688741722	0.357933774834437	-2.0082119205298	6.21192052980133	-2.29748344370861				0.719788079470199	-0.430834437086093	-0.484238410596026	6.46039735099338	-3.20238410596026	-7.75470198675497			
94	1880	1.03184105960265	0.0187549668874172	0.088476821192053	-3.04662251655629	-4.0646357615894	0.215099337748344				0.928953642384106	-0.240211920529801	0.541139072847682	7.15390728476821	9.26781456953642	11.7340397350993				0.901827814569536	-0.353271523178808	0.0400529801324504	14.567417218543	3.50649006622517	-2.44026490066225				0.896529801324503	-0.144529801324503	-0.565721854304636	13.1229139072848	21.7435761589404	-5.93562913907285				0.916026490066225	0.0514966887417219	0.373933774834437	5.8317880794702	8.17192052980133	-0.337483443708608				0.719788079470199	-0.398834437086093	-0.564238410596026	0.860397350993377	4.91761589403974	-9.15470198675497			
95	1900	0.983841059602649	0.0347549668874172	0.072476821192053	-5.56662251655629	-2.3846357615894	-0.344900662251656				0.896953642384106	-0.144211920529801	0.589139072847682	-9.92609271523179	4.22781456953642	7.81403973509934				0.981827814569536	-0.289271523178808	0.0240529801324504	-1.39258278145695	5.46649006622517	0.35973509933775				0.800529801324503	-0.144529801324503	-0.581721854304636	-12.3570860927152	2.9835761589404	-8.45562913907285				0.916026490066225	0.0514966887417219	0.421933774834437	-0.328211920529802	4.25192052980133	3.02251655629139				0.703788079470199	-0.366834437086093	-0.628238410596026	9.54039735099338	1.83761589403974	-6.63470198675497			
96	1920	0.967841059602649	0.0667549668874172	0.072476821192053	-7.52662251655629	0.695364238410596	-0.344900662251656				0.848953642384106	-0.0642119205298013	0.525139072847682	-16.0860927152318	2.26781456953642	4.45403973509934				0.965827814569536	-0.193271523178808	0.0240529801324504	-14.552582781457	4.06649006622517	1.75973509933775				0.736529801324503	-0.0965298013245033	-0.549721854304636	5.84291390728477	-0.3764238410596	-7.61562913907285				0.932026490066225	0.0674966887417219	0.357933774834437	-0.0482119205298018	1.45192052980132	4.98251655629139				0.687788079470199	-0.398834437086093	-0.612238410596026	28.0203973509934	-8.24238410596027	-5.79470198675497			
97	1940	0.999841059602649	0.0507549668874172	0.040476821192053	-5.28662251655629	2.0953642384106	-1.18490066225166				0.880953642384106	-0.112211920529801	0.509139072847682	-1.52609271523179	6.18781456953642	4.45403973509934				0.965827814569536	-0.129271523178808	0.0240529801324504	-8.39258278145695	4.34649006622517	2.03973509933775				0.768529801324503	-0.128529801324503	-0.533721854304636	28.2429139072848	6.9035761589404	-5.09562913907285				0.964026490066225	0.0354966887417219	0.341933774834437	8.9117880794702	5.65192052980133	5.26251655629139				0.687788079470199	-0.462834437086093	-0.580238410596026	28.3003973509934	-8.52238410596027	-6.91470198675497			
98	1960	0	0	0	0	0	0				0	0	0	0	0	0				0	0	0	0	0	0				0.832529801324503	-0.224529801324503	-0.533721854304636	24.3229139072848	10.2635761589404	-4.25562913907285				0.964026490066225	0.0194966887417219	0.357933774834437	5.5517880794702	2.57192052980133	5.82251655629139				0.719788079470199	-0.510834437086093	-0.580238410596026	17.1003973509934	-5.16238410596027	-10.834701986755			
99	1980	0.999841059602649	0.0347549668874172	-0.00752317880794696	-1.08662251655629	-8.26463576158941	-0.624900662251656				0.912953642384106	-0.144211920529801	0.541139072847682	6.87390728476821	2.82781456953642	5.01403973509934				1.02982781456954	-0.145271523178808	0.00805298013245037	9.52741721854305	2.94649006622517	0.63973509933775				0.848529801324503	-0.256529801324503	-0.581721854304636	7.80291390728477	4.9435761589404	-3.41562913907285				0.932026490066225	0.0194966887417219	0.357933774834437	-0.888211920529802	-1.90807947019868	6.94251655629139				0.703788079470199	-0.478834437086093	-0.596238410596026	2.26039735099338	-6.84238410596027	-10.834701986755			
100	2000	0.951841059602649	0.0187549668874172	0.040476821192053	-4.72662251655629	-8.26463576158941	0.775099337748344				0.880953642384106	-0.0802119205298013	0.525139072847682	-4.60609271523179	7.02781456953642	-0.585960264900661				0.997827814569536	-0.177271523178808	-0.0239470198675496	8.40741721854305	2.66649006622517	-0.76026490066225				0.768529801324503	-0.208529801324503	-0.613721854304636	6.68291390728477	4.1035761589404	-3.13562913907285				0.948026490066225	0.0674966887417219	0.341933774834437	-0.888211920529802	-3.58807947019868	6.38251655629139				0.655788079470199	-0.430834437086093	-0.596238410596026	1.42039735099338	-11.3223841059603	-8.87470198675497			
101	2020	0.967841059602649	0.00275496688741723	0.088476821192053	-5.00662251655629	-2.9446357615894	0.775099337748344				0.880953642384106	-0.0642119205298013	0.541139072847682	-8.24609271523179	8.14781456953643	0.25403973509934				0.949827814569536	-0.177271523178808	-0.0239470198675496	5.88741721854305	5.46649006622517	-0.48026490066225				0.720529801324503	-0.160529801324503	-0.597721854304636	14.8029139072848	6.3435761589404	-2.57562913907285				0.916026490066225	0.0834966887417219	0.325933774834437	2.1917880794702	-0.508079470198675	5.54251655629139				0.639788079470199	-0.414834437086093	-0.564238410596026	7.02039735099338	-13.8423841059603	-7.47470198675497			
102	2040	0.999841059602649	0.0507549668874172	0.072476821192053	-3.32662251655629	-0.144635761589404	-0.0649006622516557				0.896953642384106	-0.128211920529801	0.525139072847682	4.63390728476821	3.66781456953642	2.21403973509934				0.965827814569536	-0.193271523178808	-0.0239470198675496	1.40741721854305	7.14649006622517	0.91973509933775				0.768529801324503	-0.144529801324503	-0.581721854304636	13.1229139072848	5.5035761589404	-1.73562913907285				0.916026490066225	0.0514966887417219	0.325933774834437	0.511788079470198	3.97192052980133	3.30251655629139				0.655788079470199	-0.462834437086093	-0.564238410596026	-1.65960264900662	-6.00238410596027	-5.51470198675497			
103	2060	0.967841059602649	0.0507549668874172	0.024476821192053	1.43337748344371	-2.1046357615894	-0.0649006622516557				0.880953642384106	-0.144211920529801	0.541139072847682	5.75390728476821	1.42781456953642	1.37403973509934				0.981827814569536	-0.209271523178808	-0.00794701986754963	-6.43258278145695	5.74649006622517	0.35973509933775				0.768529801324503	-0.224529801324503	-0.565721854304636	7.52291390728477	7.4635761589404	-0.335629139072848				0.900026490066225	0.0514966887417219	0.357933774834437	-4.2482119205298	0.891920529801325	3.30251655629139				0.703788079470199	-0.446834437086093	-0.596238410596026	-3.61960264900662	-7.40238410596027	-1.31470198675497			
104	2080	0.935841059602649	0.0347549668874172	0.024476821192053	3.39337748344371	-4.0646357615894	-0.624900662251656				0.832953642384106	-0.112211920529801	0.573139072847682	-9.36609271523179	3.66781456953642	0.25403973509934				0.981827814569536	-0.193271523178808	-0.0399470198675496	-11.192582781457	4.62649006622517	-1.32026490066225				0.752529801324503	-0.176529801324503	-0.597721854304636	-1.71708609271523	5.7835761589404	0.504370860927152				0.884026490066225	0.0514966887417219	0.373933774834437	-5.6482119205298	3.69192052980133	4.98251655629139				0.687788079470199	-0.430834437086093	-0.548238410596027	7.02039735099338	-10.4823841059603	2.04529801324503			
105	2100	0.951841059602649	0.0187549668874172	0.056476821192053	-0.246622516556291	-0.984635761589404	0.215099337748344				0.832953642384106	-0.0962119205298013	0.525139072847682	-16.6460927152318	4.22781456953642	-0.30596026490066				0.965827814569536	-0.177271523178808	-0.0239470198675496	-6.43258278145695	2.66649006622517	-1.60026490066225				0.768529801324503	-0.112529801324503	-0.549721854304636	0.802913907284768	8.0235761589404	1.90437086092715				0.900026490066225	0.0354966887417219	0.373933774834437	-5.9282119205298	7.33192052980133	4.14251655629139				0.655788079470199	-0.414834437086093	-0.516238410596026	9.26039735099338	-9.08238410596027	5.96529801324503			
106	2120	0.983841059602649	0.0187549668874172	0.104476821192053	-1.08662251655629	3.2153642384106	0.775099337748344				0.880953642384106	-0.112211920529801	0.509139072847682	-7.12609271523179	5.62781456953642	-0.0259602649006601				0.981827814569536	-0.177271523178808	0.00805298013245037	0.567417218543046	-0.133509933774833	-2.16026490066225				0.848529801324503	-0.160529801324503	-0.549721854304636	3.60291390728477	3.8235761589404	4.14437086092715				0.932026490066225	0.0674966887417219	0.389933774834437	-0.888211920529802	3.97192052980133	4.42251655629139				0.671788079470199	-0.462834437086093	-0.500238410596026	4.78039735099338	-3.48238410596027	5.12529801324503			
107	2140	0.999841059602649	0.0187549668874172	0.088476821192053	0.313377483443709	3.4953642384106	0.495099337748344				0.896953642384106	-0.128211920529801	0.525139072847682	2.39390728476821	-2.49218543046358	-0.30596026490066				0.997827814569536	-0.209271523178808	0.00805298013245037	2.24741721854305	-5.73350993377484	-0.48026490066225				0.816529801324503	-0.208529801324503	-0.565721854304636	-8.99708609271523	-3.1764238410596	5.82437086092715				0.916026490066225	0.0514966887417219	0.373933774834437	-4.5282119205298	0.331920529801325	5.82251655629139				0.687788079470199	-0.478834437086093	-0.516238410596026	-2.77960264900662	-0.682384105960265	4.00529801324503			
108	2160	0.967841059602649	0.0187549668874172	0.072476821192053	-1.36662251655629	-2.1046357615894	-0.344900662251656				0.848953642384106	-0.112211920529801	0.541139072847682	-4.60609271523179	-4.45218543046358	0.25403973509934				0.965827814569536	-0.209271523178808	-0.0239470198675496	0.847417218543046	-7.41350993377483	-0.20026490066225				0.752529801324503	-0.192529801324503	-0.565721854304636	-9.27708609271523	-1.7764238410596	7.78437086092715				0.900026490066225	0.0194966887417219	0.373933774834437	-7.8882119205298	-1.34807947019868	4.98251655629139				0.655788079470199	-0.446834437086093	-0.532238410596027	-2.49960264900662	-2.92238410596027	3.16529801324503			
109	2180	0.967841059602649	0.0187549668874172	0.040476821192053	-2.76662251655629	-4.3446357615894	-0.904900662251656				0.848953642384106	-0.112211920529801	0.541139072847682	-7.96609271523179	1.42781456953642	1.09403973509934				0.965827814569536	-0.193271523178808	-0.0239470198675496	0.567417218543046	-4.05350993377483	-0.48026490066225				0.752529801324503	-0.176529801324503	-0.533721854304636	-1.15708609271523	3.2635761589404	10.0243708609272				0.900026490066225	0.0354966887417219	0.373933774834437	-5.6482119205298	0.331920529801325	3.30251655629139				0.623788079470199	-0.414834437086093	-0.516238410596026	-1.65960264900662	1.55761589403974	2.32529801324503			
110	2200	0.983841059602649	0.00275496688741723	0.024476821192053	-2.76662251655629	-2.9446357615894	0.495099337748344				0.880953642384106	-0.0962119205298013	0.525139072847682	-5.16609271523179	0.587814569536424	0.25403973509934				0.981827814569536	-0.193271523178808	0.00805298013245037	1.12741721854305	-4.33350993377483	-0.76026490066225				0.768529801324503	-0.176529801324503	-0.549721854304636	-2.83708609271523	3.5435761589404	10.0243708609272				0.900026490066225	0.0354966887417219	0.357933774834437	-7.3282119205298	-0.228079470198675	3.02251655629139				0.623788079470199	-0.414834437086093	-0.548238410596027	-3.05960264900662	8.27761589403974	-1.03470198675497			
111	2220	0.967841059602649	0.00275496688741723	0.040476821192053	0.0333774834437086	-0.984635761589404	0.495099337748344				0.864953642384106	-0.0962119205298013	0.509139072847682	-2.08609271523179	-3.89218543046358	1.37403973509934				0.965827814569536	-0.209271523178808	0.0240529801324504	0.287417218543046	-4.33350993377483	-0.20026490066225				0.768529801324503	-0.208529801324503	-0.581721854304636	-5.63708609271523	3.2635761589404	8.90437086092715				0.900026490066225	0.0354966887417219	0.341933774834437	-8.1682119205298	-0.228079470198675	1.62251655629139				0.639788079470199	-0.446834437086093	-0.564238410596026	-1.09960264900662	10.2376158940397	-4.11470198675497			
112	2240	0.967841059602649	0.00275496688741723	0.072476821192053	3.39337748344371	0.975364238410596	1.05509933774834				0.864953642384106	-0.112211920529801	0.509139072847682	-6.56609271523179	-4.17218543046358	1.93403973509934				0.949827814569536	-0.193271523178808	0.00805298013245037	-0.832582781456954	-5.45350993377483	1.47973509933775				0.768529801324503	-0.224529801324503	-0.565721854304636	-4.51708609271523	2.9835761589404	8.06437086092715				0.900026490066225	0.0194966887417219	0.341933774834437	-9.2882119205298	0.891920529801325	1.34251655629139				0.655788079470199	-0.446834437086093	-0.596238410596026	-3.05960264900662	8.27761589403974	-3.27470198675497			
113	2260	0.967841059602649	0.0187549668874172	0.056476821192053	2.27337748344371	1.5353642384106	0.495099337748344				0.880953642384106	-0.128211920529801	0.509139072847682	-8.52609271523179	-3.33218543046358	1.37403973509934				0.965827814569536	-0.193271523178808	0.00805298013245037	-1.95258278145695	-2.37350993377483	1.19973509933775				0.784529801324503	-0.176529801324503	-0.549721854304636	-5.35708609271523	3.5435761589404	8.06437086092715				0.932026490066225	0.0194966887417219	0.341933774834437	-8.7282119205298	1.17192052980133	1.06251655629139				0.639788079470199	-0.446834437086093	-0.612238410596026	-2.21960264900662	4.35761589403974	1.76529801324503			
114	2280	0.983841059602649	0.0347549668874172	0.056476821192053	-4.44662251655629	1.2553642384106	-0.344900662251656				0.864953642384106	-0.112211920529801	0.525139072847682	-6.84609271523179	-3.89218543046358	1.09403973509934				0.949827814569536	-0.193271523178808	0.00805298013245037	-1.67258278145695	-2.37350993377483	0.0797350993377501				0.784529801324503	-0.160529801324503	-0.533721854304636	-4.79708609271523	4.3835761589404	7.22437086092715				0.916026490066225	0.0354966887417219	0.357933774834437	-6.4882119205298	-1.34807947019868	1.34251655629139				0.623788079470199	-0.430834437086093	-0.596238410596026	-3.89960264900662	3.51761589403974	4.00529801324503			
115	2300	0.983841059602649	0.0347549668874172	0.040476821192053	-5.84662251655629	-0.144635761589404	-0.0649006622516557				0.864953642384106	-0.0962119205298013	0.509139072847682	-3.76609271523179	-6.13218543046358	1.65403973509934				0.949827814569536	-0.177271523178808	0.00805298013245037	-1.67258278145695	-2.09350993377483	0.35973509933775				0.784529801324503	-0.176529801324503	-0.517721854304636	-0.317086092715232	4.1035761589404	6.66437086092715				0.916026490066225	0.0354966887417219	0.325933774834437	-4.2482119205298	-3.86807947019868	2.46251655629139				0.623788079470199	-0.414834437086093	-0.596238410596026	-8.09960264900662	4.07761589403974	4.84529801324503			
116	2320	0.967841059602649	0.0187549668874172	0.040476821192053	-1.36662251655629	-0.984635761589404	0.775099337748344				0.848953642384106	-0.128211920529801	0.477139072847682	-2.08609271523179	-4.17218543046358	2.49403973509934				0.949827814569536	-0.177271523178808	0.00805298013245037	0.00741721854304636	-0.693509933774834	0.91973509933775				0.800529801324503	-0.192529801324503	-0.517721854304636	-0.317086092715232	-0.6564238410596	7.50437086092715				0.900026490066225	0.0194966887417219	0.373933774834437	-2.5682119205298	-0.228079470198675	2.18251655629139				0.639788079470199	-0.398834437086093	-0.612238410596026	-12.0196026490066	4.63761589403974	4.84529801324503			
117	2340	0.967841059602649	0.0187549668874172	0.040476821192053	0.873377483443709	-0.424635761589404	1.05509933774834				0.848953642384106	-0.128211920529801	0.461139072847682	-2.08609271523179	1.42781456953642	1.93403973509934				0.965827814569536	-0.193271523178808	-0.00794701986754963	0.567417218543046	-1.25350993377483	0.35973509933775				0.800529801324503	-0.208529801324503	-0.549721854304636	-1.43708609271523	-2.3364238410596	6.94437086092715				0.916026490066225	0.00349668874172187	0.325933774834437	-3.6882119205298	-2.18807947019868	2.74251655629139				0.639788079470199	-0.414834437086093	-0.612238410596026	-3.33960264900662	0.717615894039735	2.88529801324503			
118	2360	0.951841059602649	0.0187549668874172	0.056476821192053	-0.526622516556291	0.695364238410596	0.495099337748344				0.848953642384106	-0.128211920529801	0.509139072847682	-2.64609271523179	4.50781456953642	1.09403973509934				0.965827814569536	-0.193271523178808	-0.00794701986754963	-1.39258278145695	-1.25350993377483	0.0797350993377501				0.768529801324503	-0.208529801324503	-0.565721854304636	-2.27708609271523	1.3035761589404	5.54437086092715				0.916026490066225	0.00349668874172187	0.357933774834437	0.511788079470198	-1.90807947019868	2.18251655629139				0.623788079470199	-0.430834437086093	-0.596238410596026	1.14039735099338	-0.402384105960265	1.48529801324503			
119	2380	0.983841059602649	0.0187549668874172	0.072476821192053	-0.806622516556291	2.3753642384106	0.215099337748344				0.880953642384106	-0.128211920529801	0.541139072847682	-2.08609271523179	3.10781456953642	0.81403973509934				0.965827814569536	-0.193271523178808	-0.00794701986754963	-1.11258278145695	0.986490066225167	-0.76026490066225				0.752529801324503	-0.208529801324503	-0.581721854304636	0.522913907284768	5.5035761589404	3.86437086092715				0.916026490066225	-0.0125033112582781	0.373933774834437	2.1917880794702	-1.90807947019868	1.34251655629139				0.623788079470199	-0.446834437086093	-0.596238410596026	-8.09960264900662	-0.682384105960265	1.20529801324503			
120	2400	0.983841059602649	0.0187549668874172	0.072476821192053	-0.806622516556291	2.6553642384106	-0.344900662251656				0.896953642384106	-0.144211920529801	0.541139072847682	-1.52609271523179	-0.532185430463576	0.53403973509934				0.965827814569536	-0.209271523178808	-0.00794701986754963	0.567417218543046	0.146490066225167	-0.76026490066225				0.800529801324503	-0.240529801324503	-0.549721854304636	-4.51708609271523	3.2635761589404	3.30437086092715				0.900026490066225	0.00349668874172187	0.357933774834437	1.9117880794702	0.331920529801325	1.90251655629139				0.639788079470199	-0.430834437086093	-0.596238410596026	-5.85960264900662	-1.52238410596026	1.76529801324503			
121	2420	0.967841059602649	0.00275496688741723	0.072476821192053	-1.08662251655629	2.3753642384106	-0.0649006622516557				0.880953642384106	-0.160211920529801	0.509139072847682	0.433907284768212	-2.21218543046358	0.25403973509934				0.981827814569536	-0.209271523178808	0.00805298013245037	0.00741721854304636	0.986490066225167	-0.20026490066225				0.832529801324503	-0.224529801324503	-0.533721854304636	-11.5170860927152	-5.4164238410596	2.74437086092715				0.916026490066225	0.00349668874172187	0.357933774834437	1.3517880794702	1.45192052980132	0.782516556291392				0.639788079470199	-0.414834437086093	-0.580238410596026	1.42039735099338	-2.92238410596027	-2.15470198675497			
122	2440	0.967841059602649	0.00275496688741723	0.056476821192053	-2.48662251655629	2.0953642384106	-0.0649006622516557				0.848953642384106	-0.128211920529801	0.525139072847682	-0.126092715231788	1.14781456953642	-1.14596026490066				0.965827814569536	-0.225271523178808	0.00805298013245037	-1.95258278145695	0.426490066225167	0.35973509933775				0.784529801324503	-0.224529801324503	-0.533721854304636	-11.5170860927152	-5.6964238410596	1.34437086092715				0.900026490066225	0.0194966887417219	0.373933774834437	-0.328211920529802	0.891920529801325	-0.897483443708608				0.655788079470199	-0.414834437086093	-0.580238410596026	0.300397350993377	-1.52238410596026	-7.19470198675497			
123	2460	0.967841059602649	0.00275496688741723	0.040476821192053	-1.92662251655629	1.8153642384106	0.215099337748344				0.848953642384106	-0.128211920529801	0.525139072847682	-0.686092715231788	0.587814569536424	-0.86596026490066				0.965827814569536	-0.209271523178808	-0.00794701986754963	-1.95258278145695	1.54649006622517	0.35973509933775				0.752529801324503	-0.208529801324503	-0.517721854304636	-4.23708609271523	-1.4964238410596	2.74437086092715				0.916026490066225	0.00349668874172187	0.357933774834437	-1.4482119205298	-1.62807947019868	-1.17748344370861				0.639788079470199	-0.446834437086093	-0.564238410596026	0.0203973509933773	-1.24238410596026	-6.91470198675497			
124	2480	0.983841059602649	0.00275496688741723	0.056476821192053	0.0333774834437086	0.975364238410596	-0.624900662251656				0.848953642384106	-0.144211920529801	0.525139072847682	-0.406092715231788	-0.252185430463576	-0.30596026490066				0.965827814569536	-0.209271523178808	0.00805298013245037	-1.11258278145695	0.706490066225167	-0.20026490066225				0.752529801324503	-0.192529801324503	-0.533721854304636	-1.99708609271523	1.5835761589404	2.46437086092715				0.900026490066225	0.00349668874172187	0.373933774834437	2.4717880794702	2.29192052980133	-1.45748344370861				0.639788079470199	-0.478834437086093	-0.564238410596026	1.42039735099338	-2.64238410596027	-5.79470198675497			
125	2500	0.967841059602649	-0.0132450331125828	0.056476821192053	0.873377483443709	0.135364238410596	-0.344900662251656				0.864953642384106	-0.144211920529801	0.509139072847682	-0.126092715231788	0.587814569536424	-0.0259602649006601				0.965827814569536	-0.225271523178808	0.00805298013245037	-1.11258278145695	-0.693509933774834	-0.20026490066225				0.784529801324503	-0.176529801324503	-0.501721854304636	-2.27708609271523	4.1035761589404	3.58437086092715				0.900026490066225	0.00349668874172187	0.405933774834437	2.4717880794702	4.25192052980133	-0.897483443708608				0.639788079470199	-0.462834437086093	-0.564238410596026	-1.93960264900662	-2.08238410596027	-5.23470198675497			
126	2520	0.967841059602649	-0.0132450331125828	0.072476821192053	-1.64662251655629	-0.144635761589404	-0.0649006622516557				0.864953642384106	-0.144211920529801	0.525139072847682	0.713907284768212	1.70781456953642	-1.14596026490066				0.965827814569536	-0.209271523178808	-0.00794701986754963	-0.832582781456954	-1.25350993377483	-0.20026490066225				0.784529801324503	-0.176529801324503	-0.549721854304636	-6.75708609271523	1.5835761589404	0.784370860927152				0.900026490066225	0.0194966887417219	0.341933774834437	-3.6882119205298	0.331920529801325	-0.897483443708608				0.639788079470199	-0.430834437086093	-0.548238410596027	-3.61960264900662	-0.682384105960265	-5.23470198675497			
127	2540	0.983841059602649	0.00275496688741723	0.072476821192053	-3.88662251655629	-0.144635761589404	-0.624900662251656				0.848953642384106	-0.128211920529801	0.509139072847682	0.713907284768212	-1.09218543046358	-0.86596026490066				0.965827814569536	-0.209271523178808	-0.00794701986754963	-0.272582781456954	-1.53350993377483	-0.20026490066225				0.768529801324503	-0.160529801324503	-0.565721854304636	-5.35708609271523	1.3035761589404	-1.73562913907285				0.884026490066225	0.0194966887417219	0.357933774834437	-0.328211920529802	1.45192052980132	-1.73748344370861				0.655788079470199	-0.414834437086093	-0.564238410596026	-0.819602649006623	-0.682384105960265	-6.91470198675497			
128	2560	0.967841059602649	0.0187549668874172	0.072476821192053	-2.20662251655629	-0.144635761589404	-0.344900662251656				0.864953642384106	-0.128211920529801	0.525139072847682	0.153907284768212	-0.532185430463576	-0.30596026490066				0.949827814569536	-0.193271523178808	0.00805298013245037	0.287417218543046	-1.53350993377483	-0.20026490066225				0.816529801324503	-0.176529801324503	-0.549721854304636	-4.51708609271523	0.1835761589404	-4.53562913907285				0.900026490066225	0.00349668874172187	0.389933774834437	3.5917880794702	2.01192052980133	-1.45748344370861				0.639788079470199	-0.430834437086093	-0.580238410596026	0.860397350993377	0.157615894039735	-7.19470198675497			
129	2580	0.967841059602649	0.0187549668874172	0.072476821192053	-0.526622516556291	0.135364238410596	-0.344900662251656				0.848953642384106	-0.128211920529801	0.525139072847682	0.153907284768212	1.70781456953642	-1.14596026490066				0.949827814569536	-0.193271523178808	0.00805298013245037	-1.39258278145695	0.426490066225167	0.0797350993377501				0.832529801324503	-0.192529801324503	-0.533721854304636	-3.39708609271523	-4.0164238410596	-6.21562913907285				0.900026490066225	0.0194966887417219	0.357933774834437	1.6317880794702	3.69192052980133	-2.01748344370861				0.639788079470199	-0.446834437086093	-0.580238410596026	3.66039735099338	-0.682384105960265	-6.91470198675497			
130	2600	0.967841059602649	0.0187549668874172	0.088476821192053	-1.92662251655629	2.0953642384106	-1.46490066225166				0.848953642384106	-0.128211920529801	0.541139072847682	0.993907284768212	3.94781456953642	-1.14596026490066				0.965827814569536	-0.193271523178808	0.00805298013245037	-3.35258278145695	0.426490066225167	0.0797350993377501				0.784529801324503	-0.176529801324503	-0.517721854304636	-5.07708609271523	-5.9764238410596	-6.77562913907285				0.900026490066225	0.0354966887417219	0.357933774834437	0.511788079470198	-1.06807947019868	-2.29748344370861				0.671788079470199	-0.446834437086093	-0.580238410596026	2.82039735099338	-3.76238410596027	-4.95470198675497			
131	2620	0.967841059602649	0.0187549668874172	0.120476821192053	-1.36662251655629	3.7753642384106	-1.18490066225166				0.848953642384106	-0.112211920529801	0.573139072847682	1.27390728476821	1.98781456953642	-1.14596026490066				0.949827814569536	-0.193271523178808	0.00805298013245037	-2.51258278145695	-0.133509933774833	-0.48026490066225				0.768529801324503	-0.160529801324503	-0.533721854304636	-2.83708609271523	-1.7764238410596	-5.93562913907285				0.900026490066225	0.0194966887417219	0.389933774834437	-0.328211920529802	0.611920529801325	-3.41748344370861				0.655788079470199	-0.430834437086093	-0.580238410596026	4.50039735099338	-6.28238410596027	-2.15470198675497			
132	2640	0.983841059602649	0.0187549668874172	0.088476821192053	-1.36662251655629	3.4953642384106	-1.18490066225166				0.848953642384106	-0.128211920529801	0.525139072847682	-0.126092715231788	1.70781456953642	-0.0259602649006601				0.965827814569536	-0.193271523178808	0.00805298013245037	-0.832582781456954	-1.81350993377483	-0.48026490066225				0.784529801324503	-0.176529801324503	-0.517721854304636	0.802913907284768	1.5835761589404	-5.65562913907285				0.884026490066225	0.0194966887417219	0.357933774834437	-1.7282119205298	1.45192052980132	-2.85748344370861				0.623788079470199	-0.398834437086093	-0.580238410596026	3.38039735099338	-7.68238410596027	-1.31470198675497			
133	2660	0.983841059602649	0.0187549668874172	0.056476821192053	-0.526622516556291	0.975364238410596	-2.86490066225166				0.832953642384106	-0.112211920529801	0.541139072847682	2.39390728476821	4.22781456953642	-0.585960264900661				0.965827814569536	-0.193271523178808	0.00805298013245037	1.12741721854305	-0.973509933774833	-1.04026490066225				0.800529801324503	-0.160529801324503	-0.533721854304636	-1.71708609271523	0.7435761589404	-7.33562913907285				0.884026490066225	0.0354966887417219	0.357933774834437	1.9117880794702	2.85192052980133	-3.13748344370861				0.639788079470199	-0.398834437086093	-0.564238410596026	1.70039735099338	-7.12238410596027	-1.87470198675497			
134	2680	0.983841059602649	0.0347549668874172	0.024476821192053	0.313377483443709	-3.5046357615894	-2.58490066225166				0.832953642384106	-0.112211920529801	0.541139072847682	6.59390728476821	5.62781456953642	-1.14596026490066				0.965827814569536	-0.193271523178808	0.0240529801324504	-0.552582781456954	-1.25350993377483	-0.48026490066225				0.800529801324503	-0.144529801324503	-0.517721854304636	-1.43708609271523	-2.8964238410596	-8.73562913907285				0.900026490066225	0.0514966887417219	0.389933774834437	3.8717880794702	4.81192052980133	-2.85748344370861				0.655788079470199	-0.414834437086093	-0.564238410596026	1.14039735099338	-4.88238410596027	-4.39470198675497			
135	2700	0.967841059602649	0.0187549668874172	0.040476821192053	0.873377483443709	-4.9046357615894	-1.18490066225166				0.848953642384106	-0.112211920529801	0.557139072847682	7.99390728476821	2.82781456953642	-1.14596026490066				0.965827814569536	-0.177271523178808	0.00805298013245037	-0.272582781456954	-2.09350993377483	-0.76026490066225				0.800529801324503	-0.128529801324503	-0.517721854304636	4.16291390728477	-3.4564238410596	-7.33562913907285				0.900026490066225	0.0514966887417219	0.389933774834437	2.1917880794702	0.891920529801325	-2.85748344370861				0.687788079470199	-0.430834437086093	-0.564238410596026	4.78039735099338	-5.44238410596027	-7.19470198675497			
136	2720	0.951841059602649	0.00275496688741723	0.072476821192053	-0.246622516556291	-4.6246357615894	-0.624900662251656				0.848953642384106	-0.112211920529801	0.525139072847682	7.99390728476821	2.54781456953642	0.25403973509934				0.949827814569536	-0.177271523178808	-0.00794701986754963	1.40741721854305	-2.37350993377483	-1.32026490066225				0.800529801324503	-0.144529801324503	-0.533721854304636	4.16291390728477	-2.3364238410596	-7.33562913907285				0.900026490066225	0.0514966887417219	0.389933774834437	2.7517880794702	0.611920529801325	-3.13748344370861				0.687788079470199	-0.414834437086093	-0.596238410596026	7.86039735099338	-6.84238410596027	-7.47470198675497			
137	2740	0.967841059602649	0.0187549668874172	0.104476821192053	-1.08662251655629	-0.984635761589404	-1.18490066225166				0.864953642384106	-0.0962119205298013	0.525139072847682	6.31390728476821	4.78781456953642	0.53403973509934				0.949827814569536	-0.193271523178808	-0.00794701986754963	3.08741721854305	-2.65350993377483	-1.04026490066225				0.784529801324503	-0.144529801324503	-0.533721854304636	3.04291390728477	-0.0964238410596001	-8.17562913907285				0.916026490066225	0.0514966887417219	0.389933774834437	4.1517880794702	2.57192052980133	-3.13748344370861				0.671788079470199	-0.414834437086093	-0.580238410596026	8.70039735099338	-8.80238410596027	-6.07470198675497			
138	2760	0.967841059602649	0.0187549668874172	0.104476821192053	0.593377483443709	1.8153642384106	-1.18490066225166				0.864953642384106	-0.112211920529801	0.525139072847682	3.51390728476821	2.82781456953642	-0.0259602649006601				0.949827814569536	-0.193271523178808	-0.0239470198675496	4.20741721854305	-2.09350993377483	-1.32026490066225				0.784529801324503	-0.128529801324503	-0.533721854304636	2.76291390728477	1.0235761589404	-6.77562913907285				0.916026490066225	0.0514966887417219	0.389933774834437	4.4317880794702	3.41192052980132	-2.29748344370861				0.655788079470199	-0.430834437086093	-0.580238410596026	4.78039735099338	-9.36238410596027	-4.11470198675497			
139	2780	0.983841059602649	0.0187549668874172	0.056476821192053	0.873377483443709	-0.424635761589404	-2.58490066225166				0.864953642384106	-0.128211920529801	0.525139072847682	4.35390728476821	-0.252185430463576	0.25403973509934				0.965827814569536	-0.193271523178808	-0.0239470198675496	1.68741721854305	-0.693509933774834	-0.76026490066225				0.800529801324503	-0.128529801324503	-0.533721854304636	4.16291390728477	-2.6164238410596	-4.25562913907285				0.900026490066225	0.0674966887417219	0.373933774834437	3.5917880794702	1.17192052980133	-0.337483443708608				0.655788079470199	-0.398834437086093	-0.548238410596027	0.580397350993377	-6.00238410596027	-3.27470198675497			
140	2800	0.983841059602649	0.0347549668874172	0.00847682119205304	-1.08662251655629	-3.5046357615894	-1.74490066225166				0.848953642384106	-0.0962119205298013	0.525139072847682	5.75390728476821	-0.812185430463576	0.25403973509934				0.949827814569536	-0.177271523178808	-0.00794701986754963	0.287417218543046	1.54649006622517	-0.48026490066225				0.800529801324503	-0.128529801324503	-0.549721854304636	3.04291390728477	-4.2964238410596	-3.41562913907285				0.900026490066225	0.0674966887417219	0.373933774834437	4.1517880794702	-0.788079470198675	0.502516556291392				0.655788079470199	-0.398834437086093	-0.564238410596026	0.860397350993377	-3.20238410596026	-5.51470198675497			
141	2820	0.983841059602649	0.0187549668874172	0.00847682119205304	-1.36662251655629	-5.4646357615894	-0.344900662251656				0.864953642384106	-0.0962119205298013	0.557139072847682	8.27390728476821	1.14781456953642	0.81403973509934				0.965827814569536	-0.193271523178808	-0.00794701986754963	0.567417218543046	2.10649006622517	-0.76026490066225				0.784529801324503	-0.144529801324503	-0.549721854304636	5.00291390728477	-2.8964238410596	-2.57562913907285				0.900026490066225	0.0674966887417219	0.389933774834437	4.4317880794702	0.331920529801325	1.06251655629139				0.671788079470199	-0.414834437086093	-0.564238410596026	3.10039735099338	-2.36238410596027	-7.19470198675497			
142	2840	0.967841059602649	0.00275496688741723	0.040476821192053	2.27337748344371	-4.3446357615894	-0.0649006622516557				0.880953642384106	-0.0962119205298013	0.557139072847682	7.99390728476821	-0.252185430463576	0.81403973509934				0.965827814569536	-0.193271523178808	-0.00794701986754963	2.52741721854305	0.986490066225167	-0.48026490066225				0.784529801324503	-0.160529801324503	-0.565721854304636	6.12291390728477	-0.0964238410596001	-1.73562913907285				0.916026490066225	0.0514966887417219	0.373933774834437	5.2717880794702	2.01192052980133	-0.0574834437086077				0.671788079470199	-0.414834437086093	-0.596238410596026	2.54039735099338	-1.80238410596026	-7.19470198675497			
143	2860	0.951841059602649	0.00275496688741723	0.072476821192053	4.79337748344371	-1.2646357615894	-1.46490066225166				0.880953642384106	-0.128211920529801	0.541139072847682	3.79390728476821	-1.93218543046358	1.37403973509934				0.965827814569536	-0.193271523178808	-0.0239470198675496	3.36741721854305	-0.133509933774833	-0.76026490066225				0.768529801324503	-0.176529801324503	-0.549721854304636	1.64291390728477	1.0235761589404	-3.13562913907285				0.916026490066225	0.0514966887417219	0.373933774834437	2.7517880794702	1.45192052980132	-1.17748344370861				0.687788079470199	-0.414834437086093	-0.580238410596026	3.38039735099338	-4.60238410596027	-5.23470198675497			
144	2880	0.967841059602649	0.00275496688741723	0.088476821192053	3.11337748344371	1.5353642384106	-0.904900662251656				0.880953642384106	-0.112211920529801	0.525139072847682	1.27390728476821	-0.812185430463576	0.53403973509934				0.981827814569536	-0.193271523178808	-0.0239470198675496	2.52741721854305	0.706490066225167	-0.48026490066225				0.768529801324503	-0.128529801324503	-0.565721854304636	1.08291390728477	-2.8964238410596	-3.97562913907285				0.916026490066225	0.0354966887417219	0.357933774834437	1.0717880794702	1.45192052980132	-0.897483443708608				0.671788079470199	-0.414834437086093	-0.580238410596026	4.50039735099338	-5.72238410596027	-6.35470198675497			
145	2900	0.983841059602649	0.0187549668874172	0.072476821192053	-0.526622516556291	-0.984635761589404	-1.74490066225166				0.848953642384106	-0.112211920529801	0.525139072847682	2.39390728476821	-1.09218543046358	1.37403973509934				0.981827814569536	-0.193271523178808	-0.0239470198675496	-0.832582781456954	1.82649006622517	-1.32026490066225				0.768529801324503	-0.144529801324503	-0.581721854304636	1.92291390728477	-3.1764238410596	-4.25562913907285				0.916026490066225	0.0514966887417219	0.373933774834437	4.1517880794702	-0.228079470198675	0.502516556291392				0.671788079470199	-0.430834437086093	-0.596238410596026	2.82039735099338	-3.48238410596027	-6.07470198675497			
146	2920	0.983841059602649	0.0347549668874172	0.040476821192053	-0.806622516556291	-3.2246357615894	-1.18490066225166				0.864953642384106	-0.0962119205298013	0.541139072847682	3.23390728476821	0.0278145695364242	1.37403973509934				0.965827814569536	-0.193271523178808	-0.0239470198675496	0.287417218543046	-0.693509933774834	-1.04026490066225				0.768529801324503	-0.160529801324503	-0.565721854304636	1.92291390728477	-3.1764238410596	-3.13562913907285				0.900026490066225	0.0514966887417219	0.373933774834437	3.5917880794702	-1.90807947019868	1.06251655629139				0.655788079470199	-0.430834437086093	-0.612238410596026	1.14039735099338	-1.80238410596026	-4.39470198675497			
147	2940	0.967841059602649	0.0347549668874172	0.024476821192053	0.593377483443709	-4.0646357615894	-0.344900662251656				0.864953642384106	-0.0962119205298013	0.557139072847682	2.67390728476821	2.26781456953642	1.37403973509934				0.965827814569536	-0.193271523178808	-0.0239470198675496	3.64741721854305	-1.25350993377483	-1.04026490066225				0.768529801324503	-0.128529801324503	-0.549721854304636	2.76291390728477	-2.8964238410596	-1.73562913907285				0.900026490066225	0.0514966887417219	0.357933774834437	2.1917880794702	-1.90807947019868	1.34251655629139				0.655788079470199	-0.414834437086093	-0.596238410596026	3.66039735099338	-6.00238410596027	-1.31470198675497			
148	2960	0.951841059602649	0.0187549668874172	0.040476821192053	2.55337748344371	-3.2246357615894	-0.904900662251656				0.848953642384106	-0.112211920529801	0.557139072847682	0.993907284768212	-0.812185430463576	0.25403973509934				0.965827814569536	-0.177271523178808	-0.0239470198675496	5.88741721854305	-2.09350993377483	-0.20026490066225				0.768529801324503	-0.144529801324503	-0.549721854304636	5.28291390728477	-1.2164238410596	1.06437086092715				0.900026490066225	0.0514966887417219	0.357933774834437	1.0717880794702	-1.06807947019868	1.62251655629139				0.655788079470199	-0.398834437086093	-0.596238410596026	3.66039735099338	-7.40238410596027	0.0852980132450323			
149	2980	0	0	0	0	0	0				0	0	0	0	0	0				0	0	0	0	0	0				0.784529801324503	-0.144529801324503	-0.565721854304636	4.16291390728477	-0.3764238410596	1.34437086092715				0.916026490066225	0.0514966887417219	0.373933774834437	-0.328211920529802	-1.34807947019868	2.46251655629139				0.655788079470199	-0.398834437086093	-0.612238410596026	4.78039735099338	-5.72238410596027	0.925298013245032			
150	3000	0.983841059602649	0.0187549668874172	0.072476821192053	2.83337748344371	-0.144635761589404	-4.26490066225166				0.864953642384106	-0.112211920529801	0.541139072847682	2.11390728476821	1.98781456953642	1.65403973509934				0.965827814569536	-0.193271523178808	-0.0239470198675496	2.52741721854305	-2.93350993377483	0.0797350993377501				0.784529801324503	-0.160529801324503	-0.597721854304636	-0.317086092715232	-0.3764238410596	0.224370860927152				0.916026490066225	0.0354966887417219	0.357933774834437	1.0717880794702	-0.508079470198675	2.18251655629139				0.639788079470199	-0.398834437086093	-0.596238410596026	7.02039735099338	-7.40238410596027	1.76529801324503			
151	3020	0.983841059602649	0.0187549668874172	0.056476821192053	2.27337748344371	-1.8246357615894	-0.624900662251656				0.864953642384106	-0.112211920529801	0.541139072847682	2.11390728476821	-1.65218543046358	1.37403973509934				0.949827814569536	-0.193271523178808	-0.00794701986754963	2.24741721854305	-2.65350993377483	0.0797350993377501				0.768529801324503	-0.176529801324503	-0.565721854304636	-0.0370860927152318	-1.2164238410596	1.06437086092715				0.916026490066225	0.0354966887417219	0.357933774834437	2.7517880794702	-0.508079470198675	1.34251655629139				0.639788079470199	-0.430834437086093	-0.564238410596026	2.82039735099338	-5.44238410596027	3.72529801324503			
152	3040	0.967841059602649	0.0187549668874172	0.040476821192053	1.15337748344371	-3.2246357615894	-1.46490066225166				0.864953642384106	-0.0962119205298013	0.557139072847682	0.433907284768212	-2.77218543046358	1.37403973509934				0.965827814569536	-0.193271523178808	-0.00794701986754963	1.96741721854305	-2.65350993377483	-0.20026490066225				0.768529801324503	-0.144529801324503	-0.549721854304636	0.242913907284768	-3.4564238410596	3.58437086092715				0.900026490066225	0.0514966887417219	0.373933774834437	1.3517880794702	-1.90807947019868	0.782516556291392				0.655788079470199	-0.430834437086093	-0.564238410596026	-4.73960264900662	-3.20238410596026	4.56529801324503			
153	3060	0.983841059602649	0.0187549668874172	0.024476821192053	-0.526622516556291	-2.6646357615894	-0.624900662251656				0.864953642384106	-0.112211920529801	0.525139072847682	-1.24609271523179	-0.252185430463576	1.65403973509934				0.965827814569536	-0.193271523178808	-0.00794701986754963	0.567417218543046	-1.81350993377483	-0.48026490066225				0.768529801324503	-0.160529801324503	-0.549721854304636	-0.877086092715232	-2.0564238410596	5.26437086092715				0.900026490066225	0.0514966887417219	0.357933774834437	-1.4482119205298	-3.02807947019868	2.18251655629139				0.655788079470199	-0.398834437086093	-0.580238410596026	0.860397350993377	-3.48238410596027	4.28529801324503			
154	3080	0.967841059602649	0.0187549668874172	0.040476821192053	0.593377483443709	-1.5446357615894	0.495099337748344				0.864953642384106	-0.112211920529801	0.525139072847682	-1.52609271523179	1.14781456953642	0.53403973509934				0.965827814569536	-0.193271523178808	-0.00794701986754963	-0.272582781456954	-1.81350993377483	0.35973509933775				0.752529801324503	-0.160529801324503	-0.549721854304636	0.802913907284768	-0.9364238410596	7.50437086092715				0.916026490066225	0.0354966887417219	0.357933774834437	-0.0482119205298018	-1.62807947019868	2.74251655629139				0.639788079470199	-0.414834437086093	-0.596238410596026	2.54039735099338	-1.24238410596026	3.16529801324503			
155	3100	0.967841059602649	0.0187549668874172	0.056476821192053	2.27337748344371	-0.144635761589404	-0.344900662251656				0.864953642384106	-0.112211920529801	0.525139072847682	-2.08609271523179	0.0278145695364242	1.37403973509934				0.965827814569536	-0.193271523178808	-0.00794701986754963	0.567417218543046	-1.53350993377483	0.63973509933775				0.736529801324503	-0.176529801324503	-0.581721854304636	1.92291390728477	2.1435761589404	8.06437086092715				0.900026490066225	0.0194966887417219	0.357933774834437	-0.888211920529802	-1.90807947019868	2.46251655629139				0.639788079470199	-0.414834437086093	-0.596238410596026	-2.21960264900662	0.157615894039735	3.72529801324503			
156	3120	0.967841059602649	0.0187549668874172	0.056476821192053	0.873377483443709	-0.704635761589404	-0.624900662251656				0.864953642384106	-0.112211920529801	0.525139072847682	-3.20609271523179	-0.532185430463576	1.37403973509934				0.965827814569536	-0.193271523178808	-0.00794701986754963	0.00741721854304636	-1.81350993377483	0.63973509933775				0.752529801324503	-0.176529801324503	-0.565721854304636	1.08291390728477	3.5435761589404	6.94437086092715				0.884026490066225	0.0194966887417219	0.373933774834437	0.231788079470198	1.45192052980132	2.74251655629139				0.639788079470199	-0.430834437086093	-0.596238410596026	-1.65960264900662	-0.682384105960265	4.28529801324503			
157	3140	0.967841059602649	0.00275496688741723	0.040476821192053	-1.92662251655629	-1.2646357615894	0.215099337748344				0.848953642384106	-0.128211920529801	0.525139072847682	-4.60609271523179	-1.09218543046358	0.53403973509934				0.965827814569536	-0.193271523178808	-0.00794701986754963	0.567417218543046	-1.81350993377483	0.0797350993377501				0.768529801324503	-0.160529801324503	-0.565721854304636	-4.79708609271523	-0.0964238410596001	5.26437086092715				0.900026490066225	0.0194966887417219	0.341933774834437	-4.2482119205298	-3.02807947019868	3.02251655629139				0.623788079470199	-0.398834437086093	-0.596238410596026	-1.37960264900662	0.717615894039735	3.72529801324503			
158	3160	0.967841059602649	0.00275496688741723	0.040476821192053	-3.88662251655629	-1.5446357615894	0.215099337748344				0.848953642384106	-0.128211920529801	0.509139072847682	-3.48609271523179	-1.93218543046358	-0.30596026490066				0.965827814569536	-0.193271523178808	-0.0239470198675496	-0.272582781456954	-0.693509933774834	0.35973509933775				0.768529801324503	-0.160529801324503	-0.549721854304636	-3.39708609271523	-2.3364238410596	5.82437086092715				0.884026490066225	0.0354966887417219	0.357933774834437	-3.4082119205298	1.73192052980133	2.18251655629139				0.607788079470199	-0.414834437086093	-0.596238410596026	-1.37960264900662	1.55761589403974	3.72529801324503			
159	3180	0.983841059602649	0.00275496688741723	0.040476821192053	-2.48662251655629	-0.704635761589404	-0.344900662251656				0.848953642384106	-0.112211920529801	0.525139072847682	-3.20609271523179	-0.812185430463576	0.53403973509934				0.981827814569536	-0.193271523178808	-0.00794701986754963	-2.23258278145695	-0.413509933774833	-0.20026490066225				0.752529801324503	-0.160529801324503	-0.581721854304636	-0.597086092715232	-1.4964238410596	6.38437086092715				0.900026490066225	0.0354966887417219	0.373933774834437	-3.1282119205298	-0.228079470198675	2.18251655629139				0.607788079470199	-0.414834437086093	-0.596238410596026	-1.09960264900662	0.157615894039735	4.00529801324503			
160	3200	0.983841059602649	0.0187549668874172	0.040476821192053	-1.64662251655629	-1.2646357615894	-0.0649006622516557				0.848953642384106	-0.0962119205298013	0.541139072847682	-5.16609271523179	1.70781456953642	0.25403973509934				0.965827814569536	-0.193271523178808	-0.0239470198675496	-1.67258278145695	-0.413509933774833	0.35973509933775				0.752529801324503	-0.192529801324503	-0.581721854304636	-0.877086092715232	4.1035761589404	5.82437086092715				0.916026490066225	0.0194966887417219	0.341933774834437	-2.2882119205298	-2.46807947019868	2.18251655629139				0.623788079470199	-0.430834437086093	-0.596238410596026	-3.05960264900662	1.55761589403974	3.44529801324503			
161	3220	0.983841059602649	0.0187549668874172	0.056476821192053	-2.20662251655629	-1.5446357615894	-0.904900662251656				0.880953642384106	-0.128211920529801	0.557139072847682	-4.60609271523179	0.0278145695364242	0.25403973509934				0.965827814569536	-0.193271523178808	-0.0239470198675496	0.00741721854304636	-0.973509933774833	-0.20026490066225				0.768529801324503	-0.192529801324503	-0.533721854304636	-2.83708609271523	2.7035761589404	4.42437086092715				0.900026490066225	0.0194966887417219	0.357933774834437	-0.888211920529802	0.611920529801325	1.90251655629139				0.639788079470199	-0.430834437086093	-0.612238410596026	-5.01960264900662	2.67761589403974	3.44529801324503			
162	3240	0.983841059602649	0.00275496688741723	0.056476821192053	-1.64662251655629	-0.984635761589404	-0.0649006622516557				0.880953642384106	-0.128211920529801	0.525139072847682	-2.36609271523179	-3.05218543046358	0.81403973509934				0.965827814569536	-0.193271523178808	-0.0239470198675496	0.847417218543046	-0.413509933774833	0.35973509933775				0.784529801324503	-0.160529801324503	-0.533721854304636	-5.07708609271523	-0.6564238410596	3.30437086092715				0.916026490066225	0.0194966887417219	0.373933774834437	-3.4082119205298	0.331920529801325	1.90251655629139				0.639788079470199	-0.414834437086093	-0.612238410596026	-0.819602649006623	0.717615894039735	1.20529801324503			
163	3260	0.967841059602649	0.0187549668874172	0.056476821192053	-0.526622516556291	-1.2646357615894	-0.344900662251656				0.848953642384106	-0.128211920529801	0.509139072847682	-2.08609271523179	-2.49218543046358	0.81403973509934				0.965827814569536	-0.209271523178808	-0.0399470198675496	0.287417218543046	-1.25350993377483	-0.48026490066225				0.784529801324503	-0.160529801324503	-0.533721854304636	-0.317086092715232	-0.9364238410596	4.14437086092715				0.900026490066225	0.0354966887417219	0.373933774834437	-3.1282119205298	-1.62807947019868	2.74251655629139				0.607788079470199	-0.414834437086093	-0.596238410596026	1.98039735099338	-1.52238410596026	0.365298013245032			
164	3280	0.967841059602649	0.00275496688741723	0.040476821192053	-0.526622516556291	-0.984635761589404	-0.904900662251656				0.848953642384106	-0.112211920529801	0.525139072847682	-2.08609271523179	-1.65218543046358	1.37403973509934				0.965827814569536	-0.209271523178808	-0.0239470198675496	-0.832582781456954	-0.413509933774833	-0.48026490066225				0.784529801324503	-0.176529801324503	-0.549721854304636	2.76291390728477	0.4635761589404	4.42437086092715				0.916026490066225	0.0194966887417219	0.357933774834437	-0.0482119205298018	-0.508079470198675	1.62251655629139				0.623788079470199	-0.414834437086093	-0.596238410596026	0.300397350993377	-1.24238410596026	-0.194701986754968			
165	3300	0.983841059602649	0.00275496688741723	0.024476821192053	-1.92662251655629	-1.2646357615894	-0.0649006622516557				0.848953642384106	-0.112211920529801	0.541139072847682	-2.36609271523179	-0.252185430463576	1.93403973509934				0.965827814569536	-0.209271523178808	-0.0239470198675496	-1.11258278145695	-0.413509933774833	0.35973509933775				0.800529801324503	-0.176529801324503	-0.549721854304636	2.20291390728477	0.4635761589404	4.14437086092715				0.900026490066225	0.0354966887417219	0.373933774834437	0.231788079470198	-0.508079470198675	1.90251655629139				0.623788079470199	-0.430834437086093	-0.596238410596026	1.42039735099338	-0.682384105960265	0.925298013245032			
166	3320	0.983841059602649	0.00275496688741723	0.024476821192053	-0.806622516556291	-2.3846357615894	0.215099337748344				0.864953642384106	-0.112211920529801	0.541139072847682	-0.966092715231788	-1.65218543046358	1.37403973509934				0.949827814569536	-0.193271523178808	-0.0239470198675496	-0.552582781456954	-0.693509933774834	0.63973509933775				0.784529801324503	-0.160529801324503	-0.533721854304636	1.36291390728477	0.1835761589404	3.58437086092715				0.900026490066225	0.0194966887417219	0.373933774834437	1.0717880794702	-1.34807947019868	2.18251655629139				0.639788079470199	-0.446834437086093	-0.596238410596026	1.14039735099338	-2.36238410596027	2.32529801324503			
167	3340	0.967841059602649	0.00275496688741723	0.040476821192053	-0.806622516556291	-2.9446357615894	-0.624900662251656				0.848953642384106	-0.128211920529801	0.509139072847682	-0.406092715231788	-3.89218543046358	1.09403973509934				0.949827814569536	-0.193271523178808	-0.0239470198675496	-0.832582781456954	-1.25350993377483	0.91973509933775				0.784529801324503	-0.160529801324503	-0.533721854304636	0.242913907284768	-2.3364238410596	0.504370860927152				0.900026490066225	0.0194966887417219	0.373933774834437	1.3517880794702	-1.34807947019868	1.62251655629139				0.623788079470199	-0.430834437086093	-0.596238410596026	2.26039735099338	-3.48238410596027	2.32529801324503			
168	3360	0.967841059602649	0.0187549668874172	0.072476821192053	-0.246622516556291	-0.144635761589404	-1.18490066225166				0.848953642384106	-0.128211920529801	0.509139072847682	-2.08609271523179	-0.812185430463576	1.37403973509934				0.965827814569536	-0.193271523178808	-0.0239470198675496	1.12741721854305	-0.693509933774834	0.0797350993377501				0.784529801324503	-0.160529801324503	-0.533721854304636	0.522913907284768	-4.0164238410596	-0.615629139072848				0.916026490066225	0.0194966887417219	0.373933774834437	0.231788079470198	-3.02807947019868	2.74251655629139				0.623788079470199	-0.430834437086093	-0.596238410596026	3.10039735099338	-3.76238410596027	1.48529801324503			
169	3380	0.983841059602649	0.0187549668874172	0.072476821192053	1.15337748344371	1.5353642384106	-1.18490066225166				0.864953642384106	-0.128211920529801	0.525139072847682	-1.24609271523179	1.98781456953642	1.37403973509934				0.949827814569536	-0.193271523178808	-0.0239470198675496	0.00741721854304636	-0.693509933774834	-0.20026490066225				0.784529801324503	-0.176529801324503	-0.549721854304636	3.88291390728477	-2.8964238410596	-0.0556291390728476				0.916026490066225	0.0194966887417219	0.373933774834437	1.6317880794702	-0.788079470198675	2.18251655629139				0.623788079470199	-0.430834437086093	-0.596238410596026	2.26039735099338	-2.92238410596027	0.645298013245032			
170	3400	0.983841059602649	0.0187549668874172	0.040476821192053	1.43337748344371	-1.2646357615894	-0.904900662251656				0.864953642384106	-0.112211920529801	0.541139072847682	1.83390728476821	1.42781456953642	0.53403973509934				0.965827814569536	-0.193271523178808	-0.0239470198675496	1.40741721854305	0.146490066225167	-0.48026490066225				0.768529801324503	-0.208529801324503	-0.549721854304636	3.04291390728477	-0.3764238410596	-1.45562913907285				0.900026490066225	0.0194966887417219	0.373933774834437	3.3117880794702	-1.90807947019868	1.90251655629139				0.639788079470199	-0.446834437086093	-0.596238410596026	0.860397350993377	-2.36238410596027	-0.474701986754968			
171	3420	0.983841059602649	0.00275496688741723	0.00847682119205304	0.313377483443709	-4.0646357615894	-1.18490066225166				0.848953642384106	-0.112211920529801	0.541139072847682	3.79390728476821	-1.09218543046358	1.93403973509934				0.965827814569536	-0.177271523178808	-0.0239470198675496	1.40741721854305	-1.53350993377483	-0.48026490066225				0.784529801324503	-0.176529801324503	-0.533721854304636	2.20291390728477	0.1835761589404	-0.0556291390728476				0.900026490066225	0.0194966887417219	0.373933774834437	2.4717880794702	0.0519205298013249	2.18251655629139				0.623788079470199	-0.414834437086093	-0.596238410596026	2.82039735099338	-1.52238410596026	-2.15470198675497			
172	3440	0.967841059602649	0.00275496688741723	0.024476821192053	1.43337748344371	-4.0646357615894	-0.624900662251656				0.848953642384106	-0.128211920529801	0.509139072847682	4.63390728476821	-0.812185430463576	1.09403973509934				0.965827814569536	-0.177271523178808	-0.0239470198675496	2.80741721854305	-0.693509933774834	-0.20026490066225				0.784529801324503	-0.144529801324503	-0.549721854304636	2.20291390728477	-0.6564238410596	-0.615629139072848				0.900026490066225	0.0194966887417219	0.389933774834437	4.4317880794702	-0.788079470198675	1.90251655629139				0.591788079470199	-0.430834437086093	-0.548238410596027	3.94039735099338	-1.80238410596026	-3.55470198675497			
173	3460	0.951841059602649	-0.0132450331125828	0.056476821192053	3.11337748344371	-2.1046357615894	-1.74490066225166				0.864953642384106	-0.128211920529801	0.541139072847682	3.79390728476821	1.70781456953642	1.37403973509934				0.965827814569536	-0.193271523178808	-0.0239470198675496	3.92741721854305	-0.133509933774833	-1.60026490066225				0.768529801324503	-0.160529801324503	-0.533721854304636	2.76291390728477	-1.4964238410596	-0.895629139072848				0.916026490066225	0.0194966887417219	0.373933774834437	3.3117880794702	-2.46807947019868	0.782516556291392				0.623788079470199	-0.462834437086093	-0.596238410596026	0.860397350993377	-3.20238410596026	-3.55470198675497			
174	3480	0.967841059602649	0.00275496688741723	0.072476821192053	3.95337748344371	0.415364238410596	-1.18490066225166				0.864953642384106	-0.128211920529801	0.541139072847682	2.39390728476821	0.307814569536424	1.37403973509934				0.965827814569536	-0.193271523178808	-0.0239470198675496	3.92741721854305	-0.693509933774834	-0.76026490066225				0.784529801324503	-0.160529801324503	-0.565721854304636	6.40291390728477	-1.4964238410596	-1.45562913907285				0.916026490066225	0.0194966887417219	0.373933774834437	2.4717880794702	-2.18807947019868	1.62251655629139				0.639788079470199	-0.462834437086093	-0.612238410596026	0.300397350993377	-3.76238410596027	-3.55470198675497			
175	3500	0.983841059602649	0.0187549668874172	0.072476821192053	1.71337748344371	0.695364238410596	-0.904900662251656				0.864953642384106	-0.128211920529801	0.541139072847682	0.993907284768212	-0.812185430463576	0.81403973509934				0.965827814569536	-0.209271523178808	-0.0239470198675496	1.12741721854305	-1.25350993377483	-1.32026490066225				0.784529801324503	-0.192529801324503	-0.549721854304636	4.16291390728477	-0.3764238410596	-2.29562913907285				0.916026490066225	0.00349668874172187	0.389933774834437	2.4717880794702	-2.46807947019868	2.18251655629139				0.623788079470199	-0.446834437086093	-0.580238410596026	2.82039735099338	-4.60238410596027	-4.95470198675497			
176	3520	0.983841059602649	0.0187549668874172	0.040476821192053	-0.526622516556291	-1.2646357615894	-0.904900662251656				0.848953642384106	-0.128211920529801	0.525139072847682	2.67390728476821	-3.33218543046358	0.81403973509934				0.965827814569536	-0.209271523178808	-0.0239470198675496	0.567417218543046	-0.693509933774834	-1.32026490066225				0.800529801324503	-0.176529801324503	-0.533721854304636	1.92291390728477	-1.2164238410596	-4.25562913907285				0.916026490066225	0.0194966887417219	0.373933774834437	2.7517880794702	-4.14807947019868	1.62251655629139				0.639788079470199	-0.430834437086093	-0.580238410596026	0.860397350993377	-1.80238410596026	-6.63470198675497			
177	3540	0.967841059602649	0.0187549668874172	-0.00752317880794696	0.593377483443709	-2.6646357615894	-1.46490066225166				0.848953642384106	-0.112211920529801	0.525139072847682	3.51390728476821	-2.49218543046358	-0.585960264900661				0.965827814569536	-0.193271523178808	-0.00794701986754963	1.12741721854305	-1.53350993377483	-1.60026490066225				0.752529801324503	-0.160529801324503	-0.533721854304636	3.32291390728477	-2.0564238410596	-4.25562913907285				0.900026490066225	0.0194966887417219	0.357933774834437	2.4717880794702	-5.26807947019868	1.90251655629139				0.623788079470199	-0.462834437086093	-0.564238410596026	1.42039735099338	-3.76238410596027	-6.35470198675497			
