No	Time	12-AccX	12-AccY	12-AccZ	12-GyroX	12-GyroY	12-GyroZ	13-AccX	13-AccY	13-AccZ	13-GyroX	13-GyroY	13-GyroZ	14-AccX	14-AccY	14-AccZ	14-GyroX	14-GyroY	14-GyroZ	15-AccX	15-AccY	15-AccZ	15-GyroX	15-GyroY	15-GyroZ	16-AccX	16-AccY	16-AccZ	16-GyroX	16-GyroY	16-GyroZ	17-AccX	17-AccY	17-AccZ	17-GyroX	17-GyroY	17-GyroZ
0	0	-0.280158940397351	0.114754966887417	-0.935523178807947	-3.04662251655629	0.135364238410596	-2.30490066225166				0.944953642384106	0.111788079470199	0.157139072847682	-6.84609271523179	-0.532185430463576	-3.38596026490066				-0.234172185430464	0.110728476821192	-0.90394701986755	-3.07258278145695	0.146490066225167	-1.04026490066225				0.000529801324503301	0.207470198675497	-0.965721854304636	6.68291390728477	1.5835761589404	1.34437086092715				0.948026490066225	0.0994966887417219	0.213933774834437	4.1517880794702	3.13192052980133	3.86251655629139				-0.000211920529801336	-0.366834437086093	-0.884238410596026	3.94039735099338	0.157615894039735	-2.71470198675497			
1	20	-0.280158940397351	0.0987549668874172	-0.919523178807947	-1.64662251655629	0.135364238410596	-1.46490066225166				0.976953642384106	0.111788079470199	0.141139072847682	-7.96609271523179	-2.49218543046358	-2.82596026490066				-0.218172185430464	0.110728476821192	-0.88794701986755	-2.79258278145695	0.986490066225167	-0.76026490066225				-0.0154701986754967	0.191470198675497	-0.981721854304636	2.48291390728477	2.1435761589404	-0.615629139072848				0.948026490066225	0.115496688741722	0.213933774834437	2.7517880794702	3.13192052980133	2.46251655629139				-0.0162119205298013	-0.366834437086093	-0.868238410596026	3.94039735099338	0.437615894039735	-3.27470198675497			
2	40	-0.280158940397351	0.0827549668874172	-0.903523178807947	-1.36662251655629	-0.424635761589404	-0.344900662251656				0.992953642384106	0.111788079470199	0.157139072847682	-4.88609271523179	-1.93218543046358	-1.14596026490066				-0.218172185430464	0.0947284768211921	-0.88794701986755	-1.67258278145695	-2.65350993377483	-1.60026490066225				-0.0154701986754967	0.223470198675497	-0.965721854304636	0.242913907284768	1.5835761589404	-0.615629139072848				0.964026490066225	0.0994966887417219	0.181933774834437	-0.608211920529802	-0.788079470198675	1.90251655629139				-0.0162119205298013	-0.350834437086093	-0.852238410596026	4.50039735099338	0.717615894039735	-4.95470198675497			
3	60	-0.280158940397351	0.0987549668874172	-0.919523178807947	-1.92662251655629	-0.704635761589404	0.215099337748344				0.992953642384106	0.159788079470199	0.141139072847682	-1.80609271523179	-9.49218543046358	-0.585960264900661				-0.250172185430464	0.110728476821192	-0.90394701986755	1.68741721854305	-0.413509933774833	-0.20026490066225				-0.0474701986754967	0.223470198675497	-0.965721854304636	3.04291390728477	2.7035761589404	-0.335629139072848				0.964026490066225	0.0994966887417219	0.197933774834437	-0.0482119205298018	-1.90807947019868	0.782516556291392				-0.0322119205298013	-0.350834437086093	-0.852238410596026	1.14039735099338	0.437615894039735	-3.55470198675497			
4	80	-0.280158940397351	0.114754966887417	-0.951523178807947	-3.04662251655629	0.415364238410596	0.495099337748344				0.992953642384106	0.127788079470199	0.125139072847682	-0.686092715231788	-5.29218543046358	1.65403973509934				-0.250172185430464	0.0947284768211921	-0.87194701986755	0.00741721854304636	1.82649006622517	0.63973509933775				-0.0474701986754967	0.223470198675497	-0.997721854304636	3.04291390728477	0.4635761589404	-1.45562913907285				0.932026490066225	0.115496688741722	0.197933774834437	0.791788079470198	0.891920529801325	-2.29748344370861				-0.0162119205298013	-0.366834437086093	-0.868238410596026	1.42039735099338	1.55761589403974	-1.87470198675497			
5	100	-0.264158940397351	0.0987549668874172	-0.951523178807947	-2.20662251655629	1.8153642384106	1.61509933774834				1.00895364238411	0.0797880794701987	0.189139072847682	0.153907284768212	-3.61218543046358	5.57403973509934				-0.218172185430464	0.110728476821192	-0.88794701986755	-0.552582781456954	1.82649006622517	-0.20026490066225				-0.0474701986754967	0.223470198675497	-0.997721854304636	0.522913907284768	1.0235761589404	-3.41562913907285				0.964026490066225	0.131496688741722	0.213933774834437	2.1917880794702	0.611920529801325	-2.01748344370861				-0.0162119205298013	-0.334834437086093	-0.884238410596026	-1.09960264900662	2.39761589403974	-1.31470198675497			
6	120	-0.232158940397351	0.130754966887417	-0.919523178807947	-1.36662251655629	2.0953642384106	2.45509933774835				0.976953642384106	0.0957880794701987	0.205139072847682	1.83390728476821	-11.1721854304636	2.49403973509934				-0.218172185430464	0.142728476821192	-0.88794701986755	0.847417218543046	-0.413509933774833	-0.48026490066225				-0.0314701986754967	0.223470198675497	-0.981721854304636	-1.15708609271523	0.7435761589404	-3.69562913907285				0.980026490066225	0.115496688741722	0.213933774834437	4.4317880794702	2.57192052980133	-1.17748344370861				-0.000211920529801336	-0.350834437086093	-0.900238410596026	0.860397350993377	4.63761589403974	-2.99470198675497			
7	140	-0.264158940397351	0.114754966887417	-0.919523178807947	-1.08662251655629	1.2553642384106	1.89509933774834				0.976953642384106	0.0637880794701987	0.189139072847682	0.993907284768212	-13.6921854304636	1.65403973509934				-0.234172185430464	0.110728476821192	-0.88794701986755	1.96741721854305	0.706490066225167	-1.32026490066225				-0.0314701986754967	0.223470198675497	-0.981721854304636	-1.99708609271523	-0.3764238410596	-2.29562913907285				0.980026490066225	0.115496688741722	0.197933774834437	1.0717880794702	-0.508079470198675	-2.01748344370861				-0.000211920529801336	-0.350834437086093	-0.900238410596026	0.580397350993377	6.03761589403974	-4.67470198675497			
8	160	-0.264158940397351	0.114754966887417	-0.935523178807947	-0.246622516556291	0.695364238410596	1.33509933774834				0.960953642384106	0.0797880794701987	0.189139072847682	-0.966092715231788	-9.77218543046358	-0.585960264900661				-0.234172185430464	0.0787284768211921	-0.88794701986755	0.567417218543046	0.986490066225167	-1.88026490066225				-0.0314701986754967	0.207470198675497	-0.965721854304636	-1.43708609271523	-2.0564238410596	-3.13562913907285				0.948026490066225	0.0994966887417219	0.181933774834437	2.1917880794702	-1.90807947019868	-0.617483443708608				-0.000211920529801336	-0.350834437086093	-0.900238410596026	-1.65960264900662	5.75761589403974	-1.87470198675497			
9	180	-0.280158940397351	0.114754966887417	-0.951523178807947	0.0333774834437086	1.2553642384106	0.215099337748344				0.976953642384106	0.0797880794701987	0.157139072847682	-1.80609271523179	-7.53218543046358	0.81403973509934				-0.218172185430464	0.0627284768211921	-0.90394701986755	-0.832582781456954	2.66649006622517	-1.32026490066225				-0.0314701986754967	0.207470198675497	-0.949721854304636	-5.07708609271523	-4.2964238410596	-4.53562913907285				0.916026490066225	0.0994966887417219	0.213933774834437	3.5917880794702	-0.788079470198675	0.782516556291392				-0.000211920529801336	-0.350834437086093	-0.868238410596026	-1.65960264900662	4.63761589403974	-1.03470198675497			
10	200	-0.264158940397351	0.114754966887417	-0.951523178807947	-1.64662251655629	2.0953642384106	-1.18490066225166				0.992953642384106	0.0317880794701987	0.157139072847682	0.993907284768212	-1.93218543046358	4.45403973509934				-0.218172185430464	0.0627284768211921	-0.88794701986755	-0.272582781456954	1.54649006622517	-0.76026490066225				-0.0634701986754967	0.191470198675497	-0.933721854304636	-4.23708609271523	-3.1764238410596	-4.25562913907285				0.932026490066225	0.0834966887417219	0.245933774834437	4.7117880794702	1.17192052980133	0.502516556291392				-0.000211920529801336	-0.350834437086093	-0.884238410596026	1.98039735099338	4.91761589403974	-1.03470198675497			
11	220	-0.232158940397351	0.130754966887417	-0.919523178807947	-3.60662251655629	2.3753642384106	-0.624900662251656				0.992953642384106	0.0957880794701987	0.125139072847682	1.27390728476821	-3.89218543046358	2.77403973509934				-0.202172185430464	0.0947284768211921	-0.87194701986755	-1.67258278145695	1.82649006622517	0.0797350993377501				-0.0474701986754967	0.223470198675497	-0.933721854304636	-2.83708609271523	-0.3764238410596	-2.85562913907285				0.948026490066225	0.0994966887417219	0.245933774834437	4.4317880794702	2.57192052980133	1.06251655629139				0.0157880794701987	-0.366834437086093	-0.884238410596026	3.94039735099338	6.31761589403974	-2.99470198675497			
12	240	-0.248158940397351	0.130754966887417	-0.919523178807947	-2.48662251655629	1.2553642384106	-0.904900662251656				0.944953642384106	0.0317880794701987	0.141139072847682	1.83390728476821	-3.61218543046358	2.21403973509934				-0.218172185430464	0.0947284768211921	-0.87194701986755	-0.552582781456954	1.26649006622517	0.0797350993377501				-0.0314701986754967	0.207470198675497	-0.933721854304636	3.04291390728477	2.1435761589404	-0.615629139072848				0.932026490066225	0.0834966887417219	0.213933774834437	2.4717880794702	2.01192052980133	1.06251655629139				0.0317880794701987	-0.366834437086093	-0.884238410596026	4.78039735099338	5.47761589403974	-2.15470198675497			
13	260	-0.264158940397351	0.114754966887417	-0.919523178807947	-1.92662251655629	-0.144635761589404	-1.46490066225166				0.960953642384106	0.0797880794701987	0.141139072847682	-1.52609271523179	-1.65218543046358	0.53403973509934				-0.202172185430464	0.0947284768211921	-0.88794701986755	-1.95258278145695	-0.133509933774833	0.0797350993377501				-0.0314701986754967	0.207470198675497	-0.933721854304636	2.76291390728477	2.1435761589404	0.504370860927152				0.916026490066225	0.0674966887417219	0.213933774834437	1.0717880794702	-0.508079470198675	1.34251655629139				0.0157880794701987	-0.366834437086093	-0.868238410596026	2.82039735099338	3.51761589403974	-1.59470198675497			
14	280	-0.264158940397351	0.0987549668874172	-0.935523178807947	-1.36662251655629	-0.424635761589404	-2.02490066225166				0.976953642384106	0.0957880794701987	0.141139072847682	-3.48609271523179	2.54781456953642	-1.42596026490066				-0.202172185430464	0.110728476821192	-0.90394701986755	-1.95258278145695	-0.133509933774833	0.91973509933775				-0.0154701986754967	0.191470198675497	-0.933721854304636	1.92291390728477	-0.0964238410596001	-1.45562913907285				0.916026490066225	0.0834966887417219	0.213933774834437	1.3517880794702	-1.90807947019868	1.90251655629139				0.0157880794701987	-0.366834437086093	-0.868238410596026	0.860397350993377	0.437615894039735	-0.754701986754968			
15	300	-0.248158940397351	0.114754966887417	-0.935523178807947	-2.48662251655629	0.135364238410596	-0.624900662251656				0.960953642384106	0.0957880794701987	0.109139072847682	-6.84609271523179	7.30781456953642	-3.38596026490066				-0.218172185430464	0.110728476821192	-0.88794701986755	1.12741721854305	-0.133509933774833	2.31973509933775				-0.0314701986754967	0.207470198675497	-0.949721854304636	1.08291390728477	0.4635761589404	-0.895629139072848				0.916026490066225	0.0834966887417219	0.245933774834437	0.511788079470198	1.73192052980133	0.502516556291392				0.0157880794701987	-0.366834437086093	-0.852238410596026	1.70039735099338	-0.962384105960265	-1.31470198675497			
16	320	-0.248158940397351	0.130754966887417	-0.935523178807947	-1.92662251655629	-0.144635761589404	0.215099337748344				0.992953642384106	0.0957880794701987	0.157139072847682	-7.40609271523179	13.7478145695364	-2.26596026490066				-0.218172185430464	0.110728476821192	-0.87194701986755	-1.95258278145695	-0.973509933774833	2.59973509933775				-0.0474701986754967	0.207470198675497	-0.965721854304636	2.20291390728477	3.5435761589404	0.224370860927152				0.932026490066225	0.131496688741722	0.229933774834437	-1.1682119205298	1.45192052980132	-1.17748344370861				0.0157880794701987	-0.366834437086093	-0.868238410596026	-0.539602649006623	-0.682384105960265	-1.03470198675497			
17	340	-0.232158940397351	0.114754966887417	-0.919523178807947	0.0333774834437086	-0.984635761589404	0.215099337748344				0.976953642384106	0.0957880794701987	0.189139072847682	-0.126092715231788	2.82781456953642	1.93403973509934				-0.218172185430464	0.110728476821192	-0.87194701986755	2.52741721854305	-1.53350993377483	2.03973509933775				-0.0314701986754967	0.207470198675497	-0.981721854304636	3.32291390728477	5.2235761589404	1.06437086092715				0.980026490066225	0.0994966887417219	0.213933774834437	-0.608211920529802	1.45192052980132	-1.45748344370861				0.0157880794701987	-0.366834437086093	-0.884238410596026	0.860397350993377	2.95761589403974	-2.99470198675497			
18	360	-0.264158940397351	0.114754966887417	-0.951523178807947	0.873377483443709	-0.984635761589404	-0.0649006622516557				1.00895364238411	0.0957880794701987	0.141139072847682	0.993907284768212	-8.37218543046358	3.05403973509934				-0.234172185430464	0.126728476821192	-0.87194701986755	0.847417218543046	-1.81350993377483	0.91973509933775				-0.0314701986754967	0.223470198675497	-0.965721854304636	3.04291390728477	6.0635761589404	0.504370860927152				0.980026490066225	0.115496688741722	0.197933774834437	-2.0082119205298	0.331920529801325	-0.897483443708608				0.0157880794701987	-0.366834437086093	-0.884238410596026	0.580397350993377	2.95761589403974	-2.99470198675497			
19	380	-0.280158940397351	0.114754966887417	-0.935523178807947	1.15337748344371	-0.704635761589404	-0.344900662251656				0.992953642384106	0.0797880794701987	0.157139072847682	-1.80609271523179	-5.57218543046358	2.21403973509934				-0.266172185430464	0.126728476821192	-0.90394701986755	-1.11258278145695	-0.413509933774833	-0.76026490066225				-0.0474701986754967	0.223470198675497	-0.981721854304636	2.76291390728477	6.6235761589404	3.02437086092715				0.980026490066225	0.131496688741722	0.197933774834437	-1.1682119205298	-0.228079470198675	-1.73748344370861				0.0317880794701987	-0.382834437086093	-0.916238410596027	-1.09960264900662	2.11761589403974	-2.99470198675497			
20	400	-0.264158940397351	0.130754966887417	-0.951523178807947	0.313377483443709	0.415364238410596	-0.0649006622516557				0.976953642384106	0.0637880794701987	0.189139072847682	-5.72609271523179	-1.65218543046358	0.81403973509934				-0.250172185430464	0.142728476821192	-0.90394701986755	0.567417218543046	1.26649006622517	-1.04026490066225				-0.0314701986754967	0.207470198675497	-0.965721854304636	3.04291390728477	6.6235761589404	4.70437086092715				0.948026490066225	0.115496688741722	0.213933774834437	0.791788079470198	0.611920529801325	-2.01748344370861				0.0317880794701987	-0.366834437086093	-0.900238410596026	-3.05960264900662	0.157615894039735	0.0852980132450323			
21	420	-0.264158940397351	0.130754966887417	-0.919523178807947	-0.246622516556291	0.695364238410596	0.495099337748344				0.976953642384106	0.0797880794701987	0.189139072847682	-9.08609271523179	-3.61218543046358	-2.26596026490066				-0.218172185430464	0.110728476821192	-0.87194701986755	2.80741721854305	1.82649006622517	-1.32026490066225				-0.0314701986754967	0.207470198675497	-0.949721854304636	1.64291390728477	5.5035761589404	4.42437086092715				0.948026490066225	0.0834966887417219	0.213933774834437	-1.1682119205298	0.0519205298013249	-0.617483443708608				0.0157880794701987	-0.366834437086093	-0.916238410596027	-1.65960264900662	-0.682384105960265	2.04529801324503			
22	440	-0.264158940397351	0.130754966887417	-0.919523178807947	0.873377483443709	0.135364238410596	-0.904900662251656				0.992953642384106	0.0957880794701987	0.173139072847682	-8.24609271523179	-5.29218543046358	-1.70596026490066				-0.250172185430464	0.0787284768211921	-0.87194701986755	3.36741721854305	-0.133509933774833	-1.88026490066225				-0.0314701986754967	0.223470198675497	-0.965721854304636	1.92291390728477	4.3835761589404	5.26437086092715				0.964026490066225	0.0994966887417219	0.213933774834437	-3.9682119205298	-1.34807947019868	-0.0574834437086077				0.0157880794701987	-0.366834437086093	-0.916238410596027	-0.819602649006623	-0.682384105960265	3.44529801324503			
23	460	-0.264158940397351	0.130754966887417	-0.935523178807947	1.15337748344371	0.135364238410596	-0.624900662251656				1.00895364238411	0.0957880794701987	0.141139072847682	-2.08609271523179	-6.13218543046358	2.21403973509934				-0.234172185430464	0.0627284768211921	-0.88794701986755	1.12741721854305	-0.973509933774833	-0.20026490066225				-0.0474701986754967	0.207470198675497	-0.965721854304636	4.72291390728477	4.9435761589404	5.82437086092715				0.948026490066225	0.0994966887417219	0.213933774834437	-3.6882119205298	-0.508079470198675	0.502516556291392				0.0157880794701987	-0.350834437086093	-0.900238410596026	0.580397350993377	-2.36238410596027	3.72529801324503			
24	480	-0.264158940397351	0.114754966887417	-0.935523178807947	1.43337748344371	0.975364238410596	-0.904900662251656				0.976953642384106	0.0637880794701987	0.141139072847682	0.993907284768212	-6.13218543046358	2.21403973509934				-0.202172185430464	0.0627284768211921	-0.90394701986755	1.12741721854305	0.706490066225167	1.19973509933775				-0.0154701986754967	0.207470198675497	-0.965721854304636	5.00291390728477	4.6635761589404	6.10437086092715				0.932026490066225	0.0834966887417219	0.245933774834437	-2.2882119205298	0.891920529801325	0.782516556291392				0.0157880794701987	-0.366834437086093	-0.884238410596026	-0.259602649006623	-4.04238410596027	5.40529801324503			
25	500	-0.248158940397351	0.114754966887417	-0.951523178807947	2.27337748344371	1.8153642384106	-1.18490066225166				0.928953642384106	0.0637880794701987	0.157139072847682	0.713907284768212	-0.812185430463576	-0.585960264900661				-0.186172185430464	0.0627284768211921	-0.88794701986755	1.12741721854305	1.54649006622517	2.59973509933775				0.000529801324503301	0.223470198675497	-0.965721854304636	6.40291390728477	1.8635761589404	5.54437086092715				0.932026490066225	0.0994966887417219	0.229933774834437	-1.7282119205298	0.891920529801325	0.222516556291392				0.0157880794701987	-0.366834437086093	-0.884238410596026	0.0203973509933773	-4.32238410596027	6.24529801324503			
26	520	-0.248158940397351	0.114754966887417	-0.919523178807947	0.593377483443709	-0.144635761589404	-1.46490066225166				0.976953642384106	0.0477880794701987	0.157139072847682	-2.36609271523179	1.98781456953642	1.65403973509934				-0.186172185430464	0.0787284768211921	-0.88794701986755	-1.11258278145695	0.426490066225167	2.87973509933775				0.0165298013245033	0.175470198675497	-0.981721854304636	10.3229139072848	-0.9364238410596	3.30437086092715				0.932026490066225	0.0834966887417219	0.229933774834437	-1.7282119205298	0.611920529801325	-0.0574834437086077				-0.000211920529801336	-0.366834437086093	-0.884238410596026	1.14039735099338	-4.32238410596027	4.56529801324503			
27	540	-0.248158940397351	0.114754966887417	-0.919523178807947	0.313377483443709	-0.424635761589404	-1.74490066225166				0.944953642384106	0.0637880794701987	0.173139072847682	-4.04609271523179	-0.532185430463576	0.25403973509934				-0.218172185430464	0.110728476821192	-0.87194701986755	-1.95258278145695	-1.25350993377483	1.75973509933775				0.0325298013245033	0.159470198675497	-0.997721854304636	3.60291390728477	-5.6964238410596	1.62437086092715				0.964026490066225	0.0674966887417219	0.229933774834437	-3.4082119205298	-0.228079470198675	0.222516556291392				-0.000211920529801336	-0.350834437086093	-0.868238410596026	2.82039735099338	-5.72238410596027	2.60529801324503			
28	560	-0.264158940397351	0.0827549668874172	-0.935523178807947	1.99337748344371	-0.424635761589404	-1.18490066225166				0.960953642384106	0.0797880794701987	0.157139072847682	-3.48609271523179	0.867814569536424	-1.42596026490066				-0.234172185430464	0.126728476821192	-0.88794701986755	-1.39258278145695	-0.973509933774833	1.75973509933775				-0.0154701986754967	0.159470198675497	-0.965721854304636	-3.39708609271523	-8.7764238410596	0.784370860927152				0.916026490066225	0.0834966887417219	0.213933774834437	-3.1282119205298	-1.90807947019868	1.06251655629139				-0.0162119205298013	-0.350834437086093	-0.836238410596026	-1.65960264900662	-6.00238410596027	1.20529801324503			
29	580	-0.264158940397351	0.0987549668874172	-0.935523178807947	0.593377483443709	-0.144635761589404	-0.904900662251656				0.976953642384106	0.111788079470199	0.173139072847682	1.55390728476821	4.50781456953642	-0.86596026490066				-0.250172185430464	0.110728476821192	-0.90394701986755	-1.39258278145695	1.26649006622517	2.03973509933775				-0.0314701986754967	0.175470198675497	-0.949721854304636	-7.03708609271523	-9.8964238410596	0.784370860927152				0.916026490066225	0.115496688741722	0.197933774834437	-2.2882119205298	1.17192052980133	0.222516556291392				-0.0322119205298013	-0.350834437086093	-0.836238410596026	-4.45960264900662	-4.60238410596027	2.60529801324503			
30	600	-0.264158940397351	0.114754966887417	-0.935523178807947	-1.08662251655629	-0.704635761589404	-0.0649006622516557				0.992953642384106	0.111788079470199	0.141139072847682	4.91390728476821	3.94781456953642	1.37403973509934				-0.218172185430464	0.110728476821192	-0.88794701986755	1.40741721854305	-0.413509933774833	2.59973509933775				-0.0314701986754967	0.175470198675497	-0.949721854304636	-1.71708609271523	-8.7764238410596	2.46437086092715				0.932026490066225	0.0994966887417219	0.197933774834437	0.511788079470198	0.611920529801325	-0.617483443708608				-0.0162119205298013	-0.350834437086093	-0.836238410596026	-2.77960264900662	-0.682384105960265	1.20529801324503			
31	620	-0.264158940397351	0.114754966887417	-0.935523178807947	0.593377483443709	-0.144635761589404	1.33509933774834				0.976953642384106	0.111788079470199	0.173139072847682	6.31390728476821	2.54781456953642	2.77403973509934				-0.218172185430464	0.126728476821192	-0.87194701986755	1.12741721854305	0.146490066225167	1.47973509933775				-0.0154701986754967	0.191470198675497	-0.981721854304636	1.36291390728477	-5.1364238410596	3.30437086092715				0.932026490066225	0.115496688741722	0.229933774834437	-0.888211920529802	1.17192052980133	-1.73748344370861				-0.0162119205298013	-0.366834437086093	-0.836238410596026	-0.819602649006623	-0.122384105960265	-0.194701986754968			
32	640	-0.264158940397351	0.114754966887417	-0.935523178807947	0.313377483443709	-0.144635761589404	2.17509933774834				0.960953642384106	0.0477880794701987	0.173139072847682	0.433907284768212	1.42781456953642	1.93403973509934				-0.202172185430464	0.126728476821192	-0.88794701986755	1.68741721854305	0.146490066225167	1.19973509933775				-0.0314701986754967	0.207470198675497	-0.997721854304636	-0.877086092715232	-3.4564238410596	2.74437086092715				0.964026490066225	0.0994966887417219	0.213933774834437	-2.0082119205298	2.85192052980133	-4.53748344370861				-0.0162119205298013	-0.366834437086093	-0.868238410596026	-0.819602649006623	0.997615894039735	-0.754701986754968			
33	660	-0.264158940397351	0.114754966887417	-0.935523178807947	0.0333774834437086	0.135364238410596	-0.624900662251656				0.976953642384106	0.0957880794701987	0.189139072847682	-4.88609271523179	0.587814569536424	-2.54596026490066				-0.234172185430464	0.0947284768211921	-0.88794701986755	2.52741721854305	0.986490066225167	0.35973509933775				-0.0314701986754967	0.207470198675497	-0.981721854304636	-5.63708609271523	-5.6964238410596	1.34437086092715				0.948026490066225	0.115496688741722	0.213933774834437	0.511788079470198	0.0519205298013249	-3.69748344370861				-0.000211920529801336	-0.350834437086093	-0.868238410596026	-6.41960264900662	1.27761589403974	0.0852980132450323			
34	680	-0.280158940397351	0.114754966887417	-0.935523178807947	-1.08662251655629	-0.424635761589404	-0.344900662251656				1.00895364238411	0.0477880794701987	0.141139072847682	-4.32609271523179	-4.45218543046358	-0.86596026490066				-0.234172185430464	0.0947284768211921	-0.90394701986755	2.52741721854305	2.38649006622517	0.63973509933775				-0.0314701986754967	0.207470198675497	-0.981721854304636	-8.43708609271523	-6.5364238410596	0.504370860927152				0.964026490066225	0.115496688741722	0.229933774834437	1.9117880794702	0.0519205298013249	-4.81748344370861				-0.000211920529801336	-0.334834437086093	-0.884238410596026	-5.01960264900662	2.67761589403974	-1.03470198675497			
35	700	-0.280158940397351	0.114754966887417	-0.951523178807947	-1.92662251655629	0.695364238410596	-0.0649006622516557				1.02495364238411	0.0797880794701987	0.141139072847682	-4.32609271523179	3.38781456953642	-1.42596026490066				-0.250172185430464	0.110728476821192	-0.90394701986755	2.80741721854305	2.38649006622517	0.91973509933775				-0.0474701986754967	0.239470198675497	-0.949721854304636	-9.27708609271523	-5.9764238410596	-0.0556291390728476				0.964026490066225	0.115496688741722	0.229933774834437	-0.888211920529802	-0.788079470198675	-4.25748344370861				-0.000211920529801336	-0.334834437086093	-0.868238410596026	-4.73960264900662	4.63761589403974	-3.55470198675497			
36	720	-0.248158940397351	0.130754966887417	-0.919523178807947	-1.08662251655629	2.3753642384106	-0.0649006622516557				0.992953642384106	0.0797880794701987	0.157139072847682	-6.28609271523179	2.82781456953642	-0.585960264900661				-0.218172185430464	0.0947284768211921	-0.90394701986755	0.847417218543046	-0.973509933774833	-1.04026490066225				-0.0634701986754967	0.239470198675497	-0.949721854304636	-5.63708609271523	-3.7364238410596	0.784370860927152				0.948026490066225	0.131496688741722	0.213933774834437	0.231788079470198	0.331920529801325	-3.69748344370861				-0.000211920529801336	-0.334834437086093	-0.884238410596026	-5.57960264900662	6.31761589403974	-2.43470198675497			
37	740	-0.264158940397351	0.0987549668874172	-0.919523178807947	-0.806622516556291	1.5353642384106	-1.18490066225166				0.960953642384106	0.0477880794701987	0.157139072847682	-4.88609271523179	-0.252185430463576	0.25403973509934				-0.218172185430464	0.0947284768211921	-0.88794701986755	1.12741721854305	0.986490066225167	-1.88026490066225				-0.0314701986754967	0.223470198675497	-0.949721854304636	-1.71708609271523	-2.8964238410596	1.62437086092715				0.932026490066225	0.115496688741722	0.229933774834437	1.3517880794702	0.331920529801325	-3.13748344370861				0.0157880794701987	-0.350834437086093	-0.916238410596027	-4.17960264900662	5.47761589403974	-1.59470198675497			
38	760	-0.264158940397351	0.114754966887417	-0.935523178807947	-3.04662251655629	0.135364238410596	-1.18490066225166				0.960953642384106	0.0797880794701987	0.157139072847682	-2.36609271523179	1.98781456953642	-0.585960264900661				-0.218172185430464	0.0947284768211921	-0.88794701986755	-0.552582781456954	0.426490066225167	-1.88026490066225				-0.0314701986754967	0.207470198675497	-0.933721854304636	-3.67708609271523	-4.5764238410596	0.504370860927152				0.948026490066225	0.0834966887417219	0.229933774834437	0.511788079470198	0.611920529801325	-1.73748344370861				0.0317880794701987	-0.366834437086093	-0.916238410596027	-1.09960264900662	4.35761589403974	-0.754701986754968			
39	780	-0.232158940397351	0.130754966887417	-0.935523178807947	-1.92662251655629	1.5353642384106	-0.624900662251656				0.960953642384106	0.143788079470199	0.157139072847682	1.83390728476821	4.22781456953642	-1.14596026490066				-0.202172185430464	0.0947284768211921	-0.88794701986755	-0.552582781456954	0.706490066225167	-0.48026490066225				-0.0314701986754967	0.207470198675497	-0.949721854304636	-3.39708609271523	-4.5764238410596	1.62437086092715				0.948026490066225	0.0994966887417219	0.213933774834437	-1.1682119205298	-0.228079470198675	-0.337483443708608				0.0317880794701987	-0.366834437086093	-0.916238410596027	-0.259602649006623	2.39761589403974	0.925298013245032			
40	800	-0.248158940397351	0.114754966887417	-0.935523178807947	-1.64662251655629	0.135364238410596	1.05509933774834				1.00895364238411	0.111788079470199	0.109139072847682	8.83390728476821	0.867814569536424	3.61403973509934				-0.218172185430464	0.110728476821192	-0.87194701986755	1.40741721854305	-0.413509933774833	0.63973509933775				-0.0314701986754967	0.223470198675497	-0.949721854304636	-3.11708609271523	-5.1364238410596	2.46437086092715				0.948026490066225	0.0994966887417219	0.229933774834437	-2.8482119205298	-0.788079470198675	-0.0574834437086077				0.0157880794701987	-0.350834437086093	-0.900238410596026	-1.65960264900662	0.717615894039735	3.16529801324503			
41	820	-0.264158940397351	0.114754966887417	-0.935523178807947	-0.246622516556291	-0.144635761589404	1.05509933774834				0.976953642384106	0.0477880794701987	0.125139072847682	11.9139072847682	0.307814569536424	4.73403973509934				-0.218172185430464	0.110728476821192	-0.88794701986755	1.12741721854305	-0.693509933774834	-0.20026490066225				-0.0314701986754967	0.223470198675497	-0.965721854304636	0.242913907284768	-6.8164238410596	3.02437086092715				0.932026490066225	0.0994966887417219	0.213933774834437	-2.8482119205298	-1.90807947019868	0.222516556291392				0.0157880794701987	-0.334834437086093	-0.884238410596026	-1.37960264900662	-1.52238410596026	2.04529801324503			
42	840	-0.264158940397351	0.114754966887417	-0.935523178807947	0.313377483443709	0.135364238410596	-0.344900662251656				0.896953642384106	0.0477880794701987	0.205139072847682	-2.36609271523179	6.46781456953642	-3.94596026490066				-0.202172185430464	0.110728476821192	-0.90394701986755	2.80741721854305	0.706490066225167	-1.04026490066225				-0.0314701986754967	0.207470198675497	-0.981721854304636	0.242913907284768	-6.8164238410596	1.34437086092715				0.932026490066225	0.131496688741722	0.229933774834437	-1.1682119205298	-2.18807947019868	-0.337483443708608				-0.000211920529801336	-0.334834437086093	-0.868238410596026	-0.539602649006623	-1.80238410596026	0.645298013245032			
43	860	-0.264158940397351	0.0987549668874172	-0.935523178807947	-1.64662251655629	0.695364238410596	-0.0649006622516557				0.976953642384106	0.0797880794701987	0.221139072847682	-11.8860927152318	11.2278145695364	-6.18596026490066				-0.202172185430464	0.0947284768211921	-0.88794701986755	2.24741721854305	1.26649006622517	-1.88026490066225				-0.0314701986754967	0.207470198675497	-0.965721854304636	-5.35708609271523	-6.5364238410596	-1.17562913907285				0.932026490066225	0.131496688741722	0.213933774834437	-2.5682119205298	-1.62807947019868	-2.29748344370861				-0.000211920529801336	-0.334834437086093	-0.868238410596026	-1.37960264900662	-1.80238410596026	0.0852980132450323			
44	880	-0.248158940397351	0.114754966887417	-0.935523178807947	-2.76662251655629	-0.144635761589404	0.215099337748344				1.00895364238411	0.111788079470199	0.205139072847682	-3.76609271523179	10.9478145695364	-1.70596026490066				-0.202172185430464	0.0787284768211921	-0.88794701986755	0.287417218543046	-0.413509933774833	-1.88026490066225				-0.0634701986754967	0.239470198675497	-0.933721854304636	-7.03708609271523	-6.8164238410596	-0.615629139072848				0.932026490066225	0.115496688741722	0.213933774834437	-2.0082119205298	-0.228079470198675	-0.897483443708608				-0.000211920529801336	-0.334834437086093	-0.884238410596026	-0.819602649006623	0.437615894039735	0.365298013245032			
45	900	-0.216158940397351	0.130754966887417	-0.951523178807947	-2.20662251655629	-0.144635761589404	-1.18490066225166				0.976953642384106	0.0477880794701987	0.173139072847682	8.27390728476821	10.1078145695364	6.13403973509934				-0.202172185430464	0.0627284768211921	-0.91994701986755	0.847417218543046	-0.973509933774833	-1.60026490066225				-0.0474701986754967	0.223470198675497	-0.933721854304636	-1.99708609271523	-6.5364238410596	0.224370860927152				0.916026490066225	0.115496688741722	0.245933774834437	-0.328211920529802	1.17192052980133	-0.617483443708608				-0.000211920529801336	-0.334834437086093	-0.884238410596026	0.0203973509933773	2.11761589403974	0.0852980132450323			
46	920	-0.216158940397351	0.146754966887417	-0.951523178807947	-0.806622516556291	-0.144635761589404	-1.18490066225166				0.944953642384106	0.0477880794701987	0.221139072847682	6.87390728476821	17.6678145695364	3.61403973509934				-0.186172185430464	0.0627284768211921	-0.90394701986755	-1.39258278145695	-1.53350993377483	-1.32026490066225				-0.0154701986754967	0.207470198675497	-0.949721854304636	-3.11708609271523	-7.6564238410596	-0.895629139072848				0.916026490066225	0.115496688741722	0.229933774834437	-0.328211920529802	2.57192052980133	-1.45748344370861				-0.000211920529801336	-0.334834437086093	-0.852238410596026	1.42039735099338	1.83761589403974	0.925298013245032			
47	940	-0.232158940397351	0.130754966887417	-0.935523178807947	1.99337748344371	-1.2646357615894	-0.344900662251656				0.880953642384106	0.0477880794701987	0.317139072847682	1.27390728476821	34.1878145695364	-0.86596026490066				-0.170172185430464	0.0627284768211921	-0.88794701986755	-1.67258278145695	-2.09350993377483	0.0797350993377501				-0.0154701986754967	0.239470198675497	-0.949721854304636	-4.23708609271523	-8.2164238410596	-2.01562913907285				0.900026490066225	0.131496688741722	0.245933774834437	1.6317880794702	4.25192052980133	-0.897483443708608				0.0317880794701987	-0.334834437086093	-0.868238410596026	0.580397350993377	0.437615894039735	1.76529801324503			
48	960	-0.216158940397351	0.130754966887417	-0.935523178807947	4.51337748344371	-0.424635761589404	-1.18490066225166				0.880953642384106	0.0317880794701987	0.317139072847682	0.713907284768212	35.5878145695364	-0.30596026490066				-0.186172185430464	0.0947284768211921	-0.87194701986755	-0.832582781456954	-1.81350993377483	0.91973509933775				-0.0154701986754967	0.207470198675497	-0.917721854304636	-8.15708609271523	-11.0164238410596	-2.29562913907285				0.884026490066225	0.115496688741722	0.261933774834437	3.8717880794702	6.21192052980133	-0.617483443708608				0.0477880794701987	-0.350834437086093	-0.852238410596026	0.580397350993377	-2.08238410596027	1.48529801324503			
49	980	-0.216158940397351	0.146754966887417	-0.919523178807947	3.67337748344371	-2.3846357615894	-1.74490066225166				0.976953642384106	0.0637880794701987	0.221139072847682	-4.32609271523179	31.1078145695364	-3.38596026490066				-0.218172185430464	0.126728476821192	-0.87194701986755	-1.67258278145695	-1.25350993377483	1.19973509933775				-0.0154701986754967	0.223470198675497	-0.917721854304636	-10.3970860927152	-12.1364238410596	-0.895629139072848				0.916026490066225	0.0994966887417219	0.277933774834437	0.791788079470198	5.09192052980133	-1.45748344370861				0.0477880794701987	-0.366834437086093	-0.868238410596026	1.14039735099338	-1.52238410596026	0.0852980132450323			
50	1000	-0.248158940397351	0.130754966887417	-0.935523178807947	3.39337748344371	-3.2246357615894	-2.86490066225166				0.992953642384106	0.0637880794701987	0.237139072847682	-3.20609271523179	36.1478145695364	-3.10596026490066				-0.250172185430464	0.142728476821192	-0.91994701986755	-2.79258278145695	-1.81350993377483	-0.48026490066225				-0.0474701986754967	0.239470198675497	-0.933721854304636	-10.1170860927152	-11.5764238410596	-1.17562913907285				0.932026490066225	0.0994966887417219	0.261933774834437	-2.2882119205298	4.81192052980133	-2.01748344370861				0.0317880794701987	-0.350834437086093	-0.852238410596026	-1.09960264900662	-0.682384105960265	-2.15470198675497			
51	1020	-0.264158940397351	0.114754966887417	-0.935523178807947	2.55337748344371	-3.7846357615894	-3.98490066225166				0.976953642384106	0.0637880794701987	0.269139072847682	-3.48609271523179	42.3078145695364	-3.10596026490066				-0.234172185430464	0.126728476821192	-0.91994701986755	-1.39258278145695	-1.25350993377483	-1.60026490066225				-0.0314701986754967	0.255470198675497	-0.949721854304636	-7.31708609271523	-10.1764238410596	0.224370860927152				0.932026490066225	0.115496688741722	0.261933774834437	-0.0482119205298018	5.65192052980133	-1.45748344370861				0.0317880794701987	-0.350834437086093	-0.852238410596026	-1.09960264900662	-0.402384105960265	-2.71470198675497			
52	1040	-0.264158940397351	0.130754966887417	-0.951523178807947	3.11337748344371	-2.3846357615894	-4.54490066225166				0.976953642384106	0.0957880794701987	0.285139072847682	-4.32609271523179	35.8678145695364	-3.66596026490066				-0.218172185430464	0.0947284768211921	-0.90394701986755	0.287417218543046	0.146490066225167	-1.88026490066225				-0.0474701986754967	0.255470198675497	-0.981721854304636	-3.11708609271523	-8.2164238410596	0.224370860927152				0.948026490066225	0.0994966887417219	0.293933774834437	0.231788079470198	6.77192052980133	-2.57748344370861				0.0157880794701987	-0.366834437086093	-0.868238410596026	2.82039735099338	-0.122384105960265	-5.23470198675497			
53	1060	-0.264158940397351	0.130754966887417	-0.919523178807947	5.35337748344371	-1.2646357615894	-4.26490066225166				0.960953642384106	0.111788079470199	0.317139072847682	-1.80609271523179	31.3878145695364	-4.50596026490066				-0.234172185430464	0.0787284768211921	-0.88794701986755	-1.67258278145695	-0.133509933774833	-1.04026490066225				-0.0474701986754967	0.239470198675497	-0.997721854304636	-4.79708609271523	-7.3764238410596	0.224370860927152				0.948026490066225	0.115496688741722	0.277933774834437	1.0717880794702	6.49192052980132	-2.57748344370861				0.0317880794701987	-0.398834437086093	-0.884238410596026	4.50039735099338	3.79761589403974	-6.35470198675497			
54	1080	-0.280158940397351	0.114754966887417	-0.935523178807947	5.63337748344371	-2.3846357615894	-4.26490066225166				0.960953642384106	0.0637880794701987	0.301139072847682	1.55390728476821	35.0278145695364	-3.38596026490066				-0.218172185430464	0.0947284768211921	-0.87194701986755	-3.63258278145695	-1.53350993377483	-0.76026490066225				-0.0314701986754967	0.239470198675497	-0.965721854304636	-8.43708609271523	-7.9364238410596	-0.335629139072848				0.948026490066225	0.115496688741722	0.245933774834437	0.791788079470198	5.65192052980133	-3.13748344370861				0.0317880794701987	-0.398834437086093	-0.884238410596026	2.26039735099338	4.63761589403974	-3.55470198675497			
55	1100	-0.280158940397351	0.0987549668874172	-0.935523178807947	4.79337748344371	-1.2646357615894	-3.98490066225166				0.960953642384106	0.0317880794701987	0.317139072847682	0.433907284768212	38.1078145695364	-5.06596026490066				-0.234172185430464	0.126728476821192	-0.88794701986755	-4.47258278145695	-0.973509933774833	-0.76026490066225				-0.0314701986754967	0.207470198675497	-0.933721854304636	-12.3570860927152	-9.6164238410596	-2.29562913907285				0.932026490066225	0.0994966887417219	0.245933774834437	1.9117880794702	3.41192052980132	-2.85748344370861				0.0317880794701987	-0.382834437086093	-0.884238410596026	1.42039735099338	3.79761589403974	-0.194701986754968			
56	1120	-0.296158940397351	0.0667549668874172	-0.935523178807947	4.23337748344371	0.135364238410596	-4.26490066225166				0.992953642384106	0.111788079470199	0.269139072847682	-1.52609271523179	31.3878145695364	-7.02596026490066				-0.234172185430464	0.110728476821192	-0.90394701986755	-2.79258278145695	0.986490066225167	-1.88026490066225				-0.0634701986754967	0.239470198675497	-0.917721854304636	-15.7170860927152	-7.0964238410596	-0.615629139072848				0.916026490066225	0.0994966887417219	0.293933774834437	0.511788079470198	4.81192052980133	-2.57748344370861				0.0317880794701987	-0.398834437086093	-0.900238410596026	2.26039735099338	2.67761589403974	1.48529801324503			
57	1140	-0.280158940397351	0.0667549668874172	-0.951523178807947	3.11337748344371	0.975364238410596	-4.26490066225166				0.976953642384106	0.127788079470199	0.301139072847682	0.713907284768212	24.1078145695364	-6.74596026490066				-0.218172185430464	0.0947284768211921	-0.88794701986755	-3.63258278145695	0.146490066225167	-3.00026490066225				-0.111470198675497	0.271470198675497	-0.917721854304636	-11.2370860927152	-5.1364238410596	2.74437086092715				0.948026490066225	0.0834966887417219	0.261933774834437	-5.3682119205298	3.13192052980133	-1.73748344370861				0.0477880794701987	-0.382834437086093	-0.916238410596027	1.70039735099338	2.39761589403974	2.32529801324503			
58	1160	-0.232158940397351	0.0507549668874172	-0.935523178807947	0.873377483443709	2.0953642384106	-4.54490066225166				0.896953642384106	0.0477880794701987	0.365139072847682	7.43390728476821	14.8678145695364	-4.22596026490066				-0.250172185430464	0.0947284768211921	-0.87194701986755	-3.63258278145695	0.426490066225167	-3.00026490066225				-0.0954701986754967	0.271470198675497	-0.917721854304636	-4.23708609271523	-3.4564238410596	2.74437086092715				0.948026490066225	0.0994966887417219	0.245933774834437	-4.2482119205298	3.69192052980133	-2.29748344370861				0.0317880794701987	-0.366834437086093	-0.916238410596027	3.66039735099338	-0.122384105960265	2.32529801324503			
59	1180	-0.264158940397351	0.0667549668874172	-0.919523178807947	-1.36662251655629	0.415364238410596	-3.70490066225166				0.976953642384106	0.127788079470199	0.317139072847682	9.67390728476821	4.78781456953642	-5.34596026490066				-0.234172185430464	0.0787284768211921	-0.85594701986755	-5.03258278145695	1.26649006622517	-3.56026490066225				-0.0794701986754967	0.287470198675497	-0.917721854304636	1.08291390728477	-0.0964238410596001	1.06437086092715				0.948026490066225	0.0994966887417219	0.261933774834437	-6.7682119205298	2.57192052980133	-2.29748344370861				0.0477880794701987	-0.350834437086093	-0.916238410596027	1.42039735099338	-2.08238410596027	1.20529801324503			
60	1200	-0.312158940397351	0.0987549668874172	-0.919523178807947	-3.88662251655629	0.975364238410596	-2.02490066225166				1.04095364238411	0.175788079470199	0.269139072847682	16.9539072847682	-2.49218543046358	-2.54596026490066				-0.266172185430464	0.110728476821192	-0.87194701986755	-6.15258278145695	-0.693509933774834	-0.48026490066225				-0.0634701986754967	0.287470198675497	-0.917721854304636	2.48291390728477	1.5835761589404	-1.17562913907285				0.948026490066225	0.131496688741722	0.213933774834437	-6.4882119205298	1.17192052980133	0.222516556291392				0.0157880794701987	-0.334834437086093	-0.900238410596026	1.70039735099338	-3.20238410596026	0.645298013245032			
61	1220	-0.296158940397351	0.0987549668874172	-0.935523178807947	-2.48662251655629	1.2553642384106	-0.0649006622516557				0.976953642384106	-0.000211920529801304	0.253139072847682	20.3139072847682	0.867814569536424	4.73403973509934				-0.266172185430464	0.0787284768211921	-0.90394701986755	-5.03258278145695	-0.413509933774833	2.31973509933775				-0.0474701986754967	0.287470198675497	-0.901721854304636	4.72291390728477	3.2635761589404	-3.13562913907285				0.964026490066225	0.163496688741722	0.229933774834437	-1.7282119205298	-1.06807947019868	4.70251655629139				-0.000211920529801336	-0.318834437086093	-0.916238410596027	1.70039735099338	-4.60238410596027	-1.31470198675497			
62	1240	-0.264158940397351	0.0827549668874172	-0.951523178807947	-1.64662251655629	2.3753642384106	-0.0649006622516557				0.992953642384106	0.0637880794701987	0.253139072847682	11.9139072847682	3.10781456953642	-1.14596026490066				-0.234172185430464	0.0947284768211921	-0.90394701986755	-1.11258278145695	-1.25350993377483	1.19973509933775				-0.0474701986754967	0.303470198675497	-0.933721854304636	11.1629139072848	9.1435761589404	-2.01562913907285				0.980026490066225	0.131496688741722	0.261933774834437	-1.7282119205298	-0.788079470198675	4.42251655629139				-0.000211920529801336	-0.302834437086093	-0.932238410596026	1.70039735099338	-6.84238410596027	-4.95470198675497			
63	1260	-0.280158940397351	0.0827549668874172	-0.919523178807947	-3.04662251655629	1.5353642384106	-0.0649006622516557				0.896953642384106	0.0957880794701987	0.397139072847682	5.47390728476821	-3.33218543046358	-3.94596026490066				-0.250172185430464	0.110728476821192	-0.87194701986755	2.52741721854305	0.426490066225167	0.91973509933775				-0.0794701986754967	0.287470198675497	-0.949721854304636	14.5229139072848	16.7035761589404	-0.615629139072848				1.01202649006623	0.163496688741722	0.229933774834437	-1.1682119205298	-4.14807947019868	4.42251655629139				-0.0162119205298013	-0.334834437086093	-0.916238410596027	4.50039735099338	-7.68238410596027	-6.91470198675497			
64	1280	-0.296158940397351	0.0827549668874172	-0.903523178807947	-3.04662251655629	1.8153642384106	-0.904900662251656				0.912953642384106	0.207788079470199	0.317139072847682	10.5139072847682	-17.8921854304636	0.53403973509934				-0.266172185430464	0.110728476821192	-0.87194701986755	-1.11258278145695	0.986490066225167	-0.48026490066225				-0.111470198675497	0.255470198675497	-0.949721854304636	17.3229139072848	21.4635761589404	-0.615629139072848				0.948026490066225	0.163496688741722	0.197933774834437	3.8717880794702	-6.10807947019868	5.26251655629139				-0.0162119205298013	-0.350834437086093	-0.900238410596026	1.42039735099338	-8.80238410596027	-2.71470198675497			
65	1300	-0.280158940397351	0.114754966887417	-0.903523178807947	-1.92662251655629	2.3753642384106	-0.904900662251656				0.992953642384106	0.175788079470199	0.301139072847682	16.1139072847682	-8.65218543046358	7.53403973509934				-0.266172185430464	0.126728476821192	-0.88794701986755	-4.19258278145695	-0.133509933774833	1.47973509933775				-0.127470198675497	0.239470198675497	-0.933721854304636	19.8429139072848	18.9435761589404	-2.57562913907285				0.916026490066225	0.131496688741722	0.197933774834437	6.3917880794702	-6.38807947019868	5.82251655629139				-0.0162119205298013	-0.334834437086093	-0.868238410596026	-6.97960264900662	-10.7623841059603	1.48529801324503			
66	1320	-0.280158940397351	0.162754966887417	-0.919523178807947	-4.16662251655629	2.9353642384106	1.05509933774834				0.928953642384106	0.0957880794701987	0.301139072847682	10.5139072847682	1.14781456953642	2.77403973509934				-0.250172185430464	0.158728476821192	-0.91994701986755	-0.832582781456954	0.426490066225167	3.15973509933775				-0.0954701986754967	0.207470198675497	-0.949721854304636	20.6829139072848	16.1435761589404	-3.69562913907285				0.916026490066225	0.0994966887417219	0.213933774834437	5.5517880794702	-4.14807947019868	4.70251655629139				-0.000211920529801336	-0.302834437086093	-0.852238410596026	-6.69960264900662	-10.2023841059603	2.88529801324503			
67	1340	-0.264158940397351	0.146754966887417	-0.919523178807947	-3.60662251655629	1.5353642384106	1.61509933774834				0.848953642384106	0.111788079470199	0.381139072847682	5.19390728476821	2.82781456953642	-2.82596026490066				-0.250172185430464	0.126728476821192	-0.87194701986755	3.92741721854305	0.706490066225167	3.71973509933775				-0.0634701986754967	0.191470198675497	-0.981721854304636	15.6429139072848	13.6235761589404	-2.01562913907285				0.932026490066225	0.115496688741722	0.245933774834437	4.1517880794702	-1.62807947019868	1.62251655629139				0.0157880794701987	-0.302834437086093	-0.852238410596026	-0.259602649006623	-8.24238410596027	0.645298013245032			
68	1360	-0.264158940397351	0.114754966887417	-0.935523178807947	2.83337748344371	3.2153642384106	1.05509933774834				0.944953642384106	0.127788079470199	0.381139072847682	5.47390728476821	-7.53218543046358	0.25403973509934				-0.234172185430464	0.126728476821192	-0.85594701986755	5.04741721854305	1.82649006622517	4.55973509933775				-0.0794701986754967	0.207470198675497	-1.01372185430464	10.3229139072848	12.7835761589404	2.46437086092715				0.932026490066225	0.131496688741722	0.261933774834437	5.2717880794702	-1.62807947019868	-1.73748344370861				-0.000211920529801336	-0.350834437086093	-0.836238410596026	2.26039735099338	-6.00238410596027	-1.87470198675497			
69	1380	-0.248158940397351	0.114754966887417	-0.903523178807947	1.71337748344371	0.695364238410596	-0.344900662251656				0.976953642384106	0.127788079470199	0.269139072847682	2.95390728476821	-21.2521854304636	3.05403973509934				-0.202172185430464	0.126728476821192	-0.87194701986755	4.48741721854305	1.54649006622517	4.27973509933775				-0.0794701986754967	0.191470198675497	-0.997721854304636	9.76291390728477	9.1435761589404	5.26437086092715				0.948026490066225	0.115496688741722	0.229933774834437	3.8717880794702	-4.98807947019868	-1.73748344370861				-0.000211920529801336	-0.350834437086093	-0.836238410596026	-2.21960264900662	-1.24238410596026	-1.87470198675497			
70	1400	-0.264158940397351	0.130754966887417	-0.919523178807947	-0.806622516556291	-0.704635761589404	-0.344900662251656				0.992953642384106	0.175788079470199	0.237139072847682	1.27390728476821	-19.0121854304636	0.25403973509934				-0.234172185430464	0.126728476821192	-0.91994701986755	1.40741721854305	0.706490066225167	3.43973509933775				-0.0794701986754967	0.191470198675497	-0.997721854304636	4.72291390728477	4.3835761589404	6.10437086092715				0.948026490066225	0.131496688741722	0.213933774834437	1.3517880794702	-3.86807947019868	-3.69748344370861				0.0157880794701987	-0.350834437086093	-0.852238410596026	-5.29960264900662	4.35761589403974	-2.15470198675497			
71	1420	-0.248158940397351	0.114754966887417	-0.935523178807947	0.313377483443709	-0.704635761589404	-0.0649006622516557				1.00895364238411	0.127788079470199	0.237139072847682	6.59390728476821	-27.4121854304636	8.09403973509934				-0.202172185430464	0.142728476821192	-0.90394701986755	4.48741721854305	1.26649006622517	3.43973509933775				-0.0794701986754967	0.191470198675497	-0.981721854304636	-2.55708609271523	1.8635761589404	7.78437086092715				0.932026490066225	0.147496688741722	0.197933774834437	-0.888211920529802	-5.26807947019868	-5.65748344370861				-0.000211920529801336	-0.318834437086093	-0.852238410596026	-8.65960264900662	5.19761589403974	-1.59470198675497			
72	1440	-0.264158940397351	0.114754966887417	-0.935523178807947	1.71337748344371	-0.144635761589404	-0.904900662251656				0.944953642384106	0.0477880794701987	0.269139072847682	0.993907284768212	-32.1721854304636	10.0540397350993				-0.218172185430464	0.126728476821192	-0.87194701986755	5.04741721854305	2.66649006622517	2.59973509933775				-0.0794701986754967	0.207470198675497	-0.965721854304636	-4.23708609271523	-0.3764238410596	10.8643708609272				0.964026490066225	0.115496688741722	0.197933774834437	-1.1682119205298	-5.54807947019868	-4.25748344370861				-0.0322119205298013	-0.318834437086093	-0.884238410596026	-6.69960264900662	7.43761589403974	-1.03470198675497			
73	1460	-0.264158940397351	0.0987549668874172	-0.935523178807947	0.873377483443709	-0.144635761589404	-1.46490066225166				0.928953642384106	0.111788079470199	0.301139072847682	-5.16609271523179	-30.4921854304636	3.61403973509934				-0.266172185430464	0.0947284768211921	-0.87194701986755	8.68741721854305	4.34649006622517	0.63973509933775				-0.0954701986754967	0.207470198675497	-0.965721854304636	-5.63708609271523	-0.6564238410596	13.3843708609272				0.964026490066225	0.0994966887417219	0.197933774834437	-3.6882119205298	-4.42807947019868	-3.41748344370861				-0.0162119205298013	-0.318834437086093	-0.916238410596027	-8.09960264900662	11.3576158940397	-0.754701986754968			
74	1480	-0.280158940397351	0.0827549668874172	-0.951523178807947	0.0333774834437086	0.695364238410596	-3.14490066225166				1.05695364238411	0.143788079470199	0.221139072847682	-0.686092715231788	-39.1721854304636	4.73403973509934				-0.234172185430464	0.126728476821192	-0.88794701986755	5.32741721854305	5.74649006622517	1.19973509933775				-0.111470198675497	0.191470198675497	-0.965721854304636	-2.27708609271523	-0.6564238410596	12.8243708609272				0.948026490066225	0.0994966887417219	0.181933774834437	-3.1282119205298	-1.90807947019868	-4.25748344370861				-0.0322119205298013	-0.302834437086093	-0.916238410596027	-5.57960264900662	12.7576158940397	0.0852980132450323			
75	1500	-0.280158940397351	0.0987549668874172	-0.951523178807947	-2.76662251655629	2.0953642384106	-0.904900662251656				1.08895364238411	0.111788079470199	0.141139072847682	2.11390728476821	-42.5321854304636	7.81403973509934				-0.186172185430464	0.110728476821192	-0.88794701986755	6.44741721854305	3.22649006622517	-0.20026490066225				-0.111470198675497	0.223470198675497	-0.981721854304636	-1.99708609271523	-0.6564238410596	10.8643708609272				0.980026490066225	0.0994966887417219	0.197933774834437	-4.2482119205298	0.331920529801325	-4.81748344370861				-0.0162119205298013	-0.334834437086093	-0.932238410596026	-3.05960264900662	12.4776158940397	-0.194701986754968			
76	1520	-0.280158940397351	0.0987549668874172	-0.935523178807947	-3.32662251655629	2.0953642384106	-0.904900662251656				0.960953642384106	0.0637880794701987	0.205139072847682	0.713907284768212	-43.9321854304636	11.1740397350993				-0.234172185430464	0.142728476821192	-0.88794701986755	2.80741721854305	1.82649006622517	-0.76026490066225				-0.0794701986754967	0.223470198675497	-0.965721854304636	-1.99708609271523	0.4635761589404	9.46437086092715				1.02802649006623	0.0994966887417219	0.181933774834437	-7.8882119205298	-0.508079470198675	-4.81748344370861				-0.0162119205298013	-0.334834437086093	-0.932238410596026	-4.45960264900662	11.3576158940397	0.0852980132450323			
77	1540	-0.312158940397351	0.0827549668874172	-0.919523178807947	-1.92662251655629	2.3753642384106	1.05509933774834				0.928953642384106	0.0957880794701987	0.157139072847682	-2.36609271523179	-47.8521854304636	3.61403973509934				-0.266172185430464	0.142728476821192	-0.87194701986755	4.76741721854305	2.10649006622517	-1.04026490066225				-0.0954701986754967	0.223470198675497	-0.949721854304636	-1.99708609271523	3.8235761589404	10.0243708609272				1.01202649006623	0.0994966887417219	0.181933774834437	-5.3682119205298	-2.46807947019868	-3.41748344370861				-0.0162119205298013	-0.334834437086093	-0.932238410596026	-4.45960264900662	11.0776158940397	1.48529801324503			
78	1560	-0.280158940397351	0.0987549668874172	-0.919523178807947	-1.92662251655629	3.4953642384106	3.01509933774834				0.992953642384106	0.0957880794701987	0.125139072847682	-5.16609271523179	-31.8921854304636	2.77403973509934				-0.250172185430464	0.142728476821192	-0.87194701986755	10.927417218543	3.78649006622517	-2.16026490066225				-0.111470198675497	0.223470198675497	-0.949721854304636	-0.0370860927152318	5.7835761589404	11.1443708609272				0.964026490066225	0.131496688741722	0.165933774834437	-5.3682119205298	-4.98807947019868	-2.85748344370861				-0.0482119205298013	-0.302834437086093	-0.932238410596026	-5.29960264900662	9.39761589403974	2.04529801324503			
79	1580	-0.296158940397351	0.0667549668874172	-0.935523178807947	-3.60662251655629	4.3353642384106	2.73509933774834				1.00895364238411	0.0797880794701987	0.141139072847682	-2.64609271523179	-26.8521854304636	6.97403973509934				-0.266172185430464	0.0947284768211921	-0.90394701986755	12.327417218543	2.10649006622517	-3.00026490066225				-0.111470198675497	0.207470198675497	-0.949721854304636	2.76291390728477	8.8635761589404	11.1443708609272				0.948026490066225	0.131496688741722	0.149933774834437	-4.2482119205298	-3.86807947019868	-1.73748344370861				-0.0322119205298013	-0.286834437086093	-0.948238410596026	-1.93960264900662	6.59761589403974	4.56529801324503			
80	1600	-0.264158940397351	0.0827549668874172	-0.935523178807947	-6.96662251655629	3.2153642384106	3.29509933774834				0.976953642384106	0.0637880794701987	0.141139072847682	-1.80609271523179	-35.2521854304636	6.97403973509934				-0.250172185430464	0.0467284768211921	-0.90394701986755	10.367417218543	2.38649006622517	-2.16026490066225				-0.111470198675497	0.191470198675497	-0.949721854304636	3.32291390728477	9.4235761589404	9.74437086092715				0.948026490066225	0.115496688741722	0.149933774834437	-1.7282119205298	-0.508079470198675	-1.45748344370861				-0.0322119205298013	-0.270834437086093	-0.948238410596026	1.14039735099338	4.07761589403974	5.40529801324503			
81	1620	-0.248158940397351	0.0987549668874172	-0.999523178807947	-12.5666225165563	4.0553642384106	5.53509933774834				1.00895364238411	0.0957880794701987	0.0771390728476822	-5.16609271523179	-36.9321854304636	3.33403973509934				-0.186172185430464	0.0467284768211921	-0.87194701986755	9.80741721854305	2.94649006622517	0.63973509933775				-0.111470198675497	0.191470198675497	-0.965721854304636	5.28291390728477	9.4235761589404	8.62437086092715				0.932026490066225	0.115496688741722	0.165933774834437	-2.5682119205298	2.85192052980133	-2.57748344370861				-0.0322119205298013	-0.270834437086093	-0.932238410596026	0.860397350993377	4.07761589403974	4.84529801324503			
82	1640	-0.232158940397351	0.130754966887417	-0.935523178807947	-23.7666225165563	5.7353642384106	8.05509933774835				1.02495364238411	0.143788079470199	0.109139072847682	-7.12609271523179	-33.8521854304636	1.09403973509934				-0.186172185430464	0.0467284768211921	-0.88794701986755	8.40741721854305	2.38649006622517	3.71973509933775				-0.111470198675497	0.207470198675497	-0.965721854304636	2.20291390728477	9.7035761589404	10.3043708609272				0.964026490066225	0.0994966887417219	0.165933774834437	-4.2482119205298	3.13192052980133	-2.29748344370861				-0.0322119205298013	-0.270834437086093	-0.932238410596026	-1.37960264900662	2.67761589403974	2.32529801324503			
83	1660	-0.248158940397351	0.130754966887417	-0.919523178807947	-25.7266225165563	6.2953642384106	8.05509933774835				0.960953642384106	0.111788079470199	0.0771390728476822	0.153907284768212	-42.8121854304636	5.29403973509934				-0.202172185430464	0.0627284768211921	-0.88794701986755	8.12741721854305	1.26649006622517	2.87973509933775				-0.111470198675497	0.207470198675497	-0.981721854304636	3.04291390728477	12.7835761589404	10.5843708609272				0.996026490066225	0.0994966887417219	0.149933774834437	-5.0882119205298	1.45192052980132	-0.617483443708608				-0.0482119205298013	-0.254834437086093	-0.948238410596026	-2.49960264900662	1.27761589403974	-1.87470198675497			
84	1680	-0.248158940397351	0.178754966887417	-0.967523178807947	-32.1666225165563	3.4953642384106	8.33509933774834				1.07295364238411	0.111788079470199	-0.0348609271523178	-5.16609271523179	-50.3721854304636	2.49403973509934				-0.186172185430464	0.110728476821192	-0.88794701986755	8.12741721854305	1.26649006622517	1.75973509933775				-0.143470198675497	0.175470198675497	-0.965721854304636	4.16291390728477	13.9035761589404	9.46437086092715				0.996026490066225	0.115496688741722	0.101933774834437	-5.3682119205298	3.13192052980133	-2.29748344370861				-0.0482119205298013	-0.254834437086093	-0.932238410596026	-6.41960264900662	-0.682384105960265	-5.51470198675497			
85	1700	-0.184158940397351	0.130754966887417	-0.951523178807947	-52.0466225165563	-2.3846357615894	11.4150993377483				1.12095364238411	0.175788079470199	0.0451390728476822	-16.6460927152318	-77.2521854304636	-9.54596026490066				-0.218172185430464	0.158728476821192	-0.88794701986755	11.487417218543	2.94649006622517	0.0797350993377501				-0.143470198675497	0.207470198675497	-0.965721854304636	2.76291390728477	13.6235761589404	8.06437086092715				0.996026490066225	0.115496688741722	0.0699337748344371	-5.3682119205298	-1.34807947019868	-0.617483443708608				-0.0962119205298013	-0.254834437086093	-0.916238410596027	-3.89960264900662	-0.402384105960265	-4.11470198675497			
86	1720	-0.232158940397351	0.114754966887417	-0.903523178807947	-47.0066225165563	-11.6246357615894	11.4150993377483				0.736953642384106	0.191788079470199	-0.00286092715231785	8.27390728476821	-93.7721854304636	8.93403973509934				-0.266172185430464	0.142728476821192	-0.90394701986755	17.087417218543	1.54649006622517	-1.04026490066225				-0.159470198675497	0.223470198675497	-0.933721854304636	-0.0370860927152318	11.6635761589404	8.06437086092715				0.900026490066225	0.147496688741722	0.0539337748344371	-5.3682119205298	0.611920529801325	-0.617483443708608				-0.0802119205298013	-0.222834437086093	-0.916238410596027	-8.09960264900662	0.717615894039735	2.32529801324503			
87	1740	-0.296158940397351	0.178754966887417	-1.01552317880795	-5.00662251655629	-7.4246357615894	7.49509933774834				0.784953642384106	0.0637880794701987	-0.0988609271523179	19.4739072847682	-30.4921854304636	19.2940397350993				-0.266172185430464	0.0947284768211921	-0.91994701986755	22.407417218543	2.10649006622517	-1.88026490066225				-0.175470198675497	0.207470198675497	-0.949721854304636	-3.67708609271523	13.9035761589404	5.54437086092715				0.884026490066225	0.195496688741722	0.0859337748344371	-8.1682119205298	6.77192052980133	-2.85748344370861				-0.112211920529801	-0.174834437086093	-0.932238410596026	0.860397350993377	0.437615894039735	5.68529801324503			
88	1760	-0.312158940397351	0.210754966887417	-0.967523178807947	-15.0866225165563	-4.6246357615894	9.45509933774835				1.04095364238411	0.0797880794701987	0.0771390728476822	11.0739072847682	8.98781456953643	13.1340397350993				-0.218172185430464	0.0307284768211921	-0.93594701986755	22.407417218543	4.06649006622517	1.75973509933775				-0.159470198675497	0.223470198675497	-0.917721854304636	-5.91708609271523	18.6635761589404	4.98437086092715				0.900026490066225	0.195496688741722	0.133933774834437	-7.6082119205298	12.0919205298013	-2.85748344370861				-0.0962119205298013	-0.174834437086093	-0.964238410596026	8.14039735099338	1.55761589403974	6.52529801324503			
89	1780	-0.280158940397351	0.226754966887417	-0.839523178807947	-26.8466225165563	-0.984635761589404	10.2950993377483				1.04095364238411	0.0637880794701987	0.0451390728476822	6.03390728476821	3.66781456953642	10.8940397350993				-0.186172185430464	-0.0332715231788079	-0.90394701986755	16.5274172185431	2.38649006622517	2.31973509933775				-0.143470198675497	0.239470198675497	-0.933721854304636	-3.11708609271523	23.7035761589404	5.54437086092715				0.980026490066225	0.115496688741722	0.149933774834437	-5.0882119205298	24.6919205298013	-0.897483443708608				-0.112211920529801	-0.206834437086093	-0.948238410596026	15.9803973509934	7.99761589403974	5.12529801324503			
90	1800	-0.152158940397351	0.226754966887417	-0.743523178807947	-1.08662251655629	-4.0646357615894	10.5750993377483				0.960953642384106	0.0797880794701987	-0.0188609271523178	2.39390728476821	1.42781456953642	12.8540397350993				-0.106172185430464	-0.0332715231788079	-0.85594701986755	10.927417218543	3.50649006622517	0.91973509933775				-0.143470198675497	0.271470198675497	-0.981721854304636	1.08291390728477	27.3435761589404	6.94437086092715				1.02802649006623	0.0994966887417219	0.133933774834437	-3.4082119205298	28.0519205298013	1.62251655629139				-0.0802119205298013	-0.238834437086093	-0.964238410596026	18.5003973509934	15.2776158940397	2.32529801324503			
91	1820	-0.200158940397351	0.210754966887417	-0.855523178807947	6.19337748344371	-1.5446357615894	6.65509933774834				0.944953642384106	0.0317880794701987	-0.0188609271523178	2.67390728476821	-8.93218543046358	16.7740397350993				-0.122172185430464	0.0467284768211921	-0.87194701986755	8.40741721854305	-1.25350993377483	-0.76026490066225				-0.143470198675497	0.223470198675497	-0.981721854304636	12.0029139072848	27.9035761589404	5.82437086092715				0.996026490066225	0.0834966887417219	0.0859337748344371	-0.0482119205298018	21.3319205298013	3.02251655629139				-0.0642119205298013	-0.238834437086093	-0.932238410596026	14.3003973509934	18.9176158940397	4.56529801324503			
92	1840	-0.328158940397351	0.194754966887417	-0.759523178807947	5.91337748344371	5.7353642384106	3.29509933774834				0.816953642384106	0.0477880794701987	-0.0668609271523178	10.2339072847682	14.8678145695364	18.4540397350993				-0.186172185430464	0.0467284768211921	-0.93594701986755	5.60741721854305	0.146490066225167	0.63973509933775				-0.159470198675497	0.159470198675497	-0.981721854304636	8.64291390728477	25.9435761589404	2.46437086092715				0.900026490066225	0.0994966887417219	0.101933774834437	1.3517880794702	22.1719205298013	3.58251655629139				-0.0962119205298013	-0.222834437086093	-0.932238410596026	16.2603973509934	24.7976158940397	8.20529801324503			
93	1860	-0.360158940397351	0.194754966887417	-0.775523178807947	12.9133774834437	16.9353642384106	-0.344900662251656				0.944953642384106	-0.0322119205298013	0.141139072847682	7.43390728476821	60.5078145695364	19.2940397350993				-0.202172185430464	0.0147284768211921	-0.96794701986755	6.16741721854305	5.18649006622517	-0.76026490066225				-0.143470198675497	0.127470198675497	-0.965721854304636	-2.55708609271523	25.9435761589404	-0.895629139072848				0.820026490066225	0.131496688741722	0.149933774834437	3.0317880794702	29.7319205298013	1.34251655629139				-0.0962119205298013	-0.206834437086093	-0.932238410596026	20.4603973509934	24.7976158940397	13.805298013245			
94	1880	-0.232158940397351	0.162754966887417	-0.823523178807947	8.15337748344371	24.7753642384106	-1.46490066225166				1.04095364238411	0.0157880794701987	0.205139072847682	-2.36609271523179	59.6678145695364	19.0140397350993				-0.202172185430464	0.0147284768211921	-0.93594701986755	3.64741721854305	7.98649006622517	-2.16026490066225				-0.159470198675497	0.159470198675497	-0.933721854304636	-17.6770860927152	25.1035761589404	-1.45562913907285				0.868026490066225	0.0994966887417219	0.213933774834437	0.231788079470198	44.5719205298013	0.222516556291392				-0.0322119205298013	-0.222834437086093	-0.932238410596026	31.3803973509934	23.6776158940397	16.325298013245			
95	1900	-0.184158940397351	0.226754966887417	-0.871523178807947	8.15337748344371	25.3353642384106	-1.74490066225166				0.944953642384106	0.0317880794701987	0.173139072847682	-11.0460927152318	53.2278145695364	19.8540397350993				-0.202172185430464	0.0467284768211921	-0.88794701986755	5.88741721854305	8.54649006622517	-4.68026490066225				-0.127470198675497	0.191470198675497	-0.869721854304636	-13.7570860927152	30.9835761589404	2.18437086092715				0.900026490066225	0.0994966887417219	0.213933774834437	-2.2882119205298	49.6119205298013	-2.01748344370861				0.0317880794701987	-0.238834437086093	-0.916238410596027	34.7403973509934	26.4776158940397	16.325298013245			
96	1920	-0.264158940397351	0.178754966887417	-1.01552317880795	15.4333774834437	23.9353642384106	1.89509933774834				0.944953642384106	0.0477880794701987	0.0291390728476822	-12.7260927152318	51.8278145695364	17.3340397350993				-0.234172185430464	0.0947284768211921	-0.90394701986755	6.16741721854305	7.70649006622517	-3.84026490066225				-0.0794701986754967	0.207470198675497	-0.853721854304636	-3.67708609271523	33.7835761589404	6.94437086092715				0.900026490066225	0.0834966887417219	0.197933774834437	-1.1682119205298	51.0119205298013	-0.617483443708608				-0.000211920529801336	-0.222834437086093	-0.916238410596027	47.9003973509934	36.2776158940397	10.725298013245			
97	1940	-0.264158940397351	0.146754966887417	-1.28752317880795	10.9533774834437	14.9753642384106	6.65509933774834				0.976953642384106	0.0637880794701987	-0.0188609271523178	-10.4860927152318	68.6278145695364	14.8140397350993				-0.234172185430464	0.0947284768211921	-0.90394701986755	12.327417218543	6.58649006622517	-2.44026490066225				0	0	0	0	0	0				0.884026490066225	0.163496688741722	0.245933774834437	-2.8482119205298	48.7719205298013	0.222516556291392				-0.0162119205298013	-0.302834437086093	-0.836238410596026	60.5003973509934	27.8776158940397	9.88529801324503			
98	1960	-0.040158940397351	0.114754966887417	-1.14352317880795	14.0333774834437	1.5353642384106	9.17509933774834				0.960953642384106	0.0637880794701987	-0.00286092715231785	-11.3260927152318	70.8678145695364	15.9340397350993				-0.202172185430464	0.0627284768211921	-0.87194701986755	10.647417218543	3.78649006622517	-3.00026490066225				0.0645298013245033	0.223470198675497	-0.949721854304636	10.0429139072848	28.1835761589404	10.5843708609272				0.948026490066225	0.131496688741722	0.245933774834437	-5.0882119205298	46.2519205298013	1.34251655629139				0	0	0	0	0	0			
99	1980	-0.312158940397351	0.0987549668874172	-0.791523178807947	10.6733774834437	9.9353642384106	15.0550993377483				0.928953642384106	0.143788079470199	-0.0508609271523178	-5.44609271523179	71.1478145695364	16.7740397350993				-0.234172185430464	0.0627284768211921	-0.90394701986755	17.647417218543	4.62649006622517	-1.04026490066225				0.144529801324503	0.255470198675497	-1.01372185430464	14.2429139072848	25.3835761589404	11.4243708609272				1.01202649006623	0.0994966887417219	0.325933774834437	-5.0882119205298	39.2519205298013	1.34251655629139				0.0957880794701987	-0.510834437086093	-0.788238410596027	33.0603973509934	29.2776158940397	25.285298013245			
100	2000	-0.312158940397351	0.0827549668874172	-0.855523178807947	-10.6066225165563	10.4953642384106	17.2950993377483				0.944953642384106	0.0317880794701987	0.173139072847682	-4.04609271523179	91.3078145695364	24.0540397350993				-0.282172185430464	0.0627284768211921	-0.91994701986755	19.607417218543	7.98649006622517	-1.60026490066225				0.144529801324503	0.159470198675497	-1.07772185430464	11.7229139072848	23.7035761589404	10.0243708609272				0.980026490066225	0.115496688741722	0.325933774834437	-9.0082119205298	31.9719205298013	-6.49748344370861				0.0797880794701987	-0.462834437086093	-0.836238410596026	20.7403973509934	40.4776158940397	28.365298013245			
101	2020	-0.280158940397351	0.194754966887417	-1.01552317880795	-12.8466225165563	5.7353642384106	15.3350993377483				1.04095364238411	-0.000211920529801304	0.317139072847682	-12.7260927152318	99.7078145695364	21.8140397350993				-0.282172185430464	0.0147284768211921	-0.99994701986755	15.967417218543	14.9864900662252	-1.32026490066225				0.128529801324503	0.191470198675497	-1.02972185430464	-10.6770860927152	19.2235761589404	8.34437086092715				0.900026490066225	0.179496688741722	0.389933774834437	-5.6482119205298	32.2519205298013	-9.57748344370861				-0.000211920529801336	-0.414834437086093	-0.852238410596026	22.9803973509934	36.2776158940397	32.565298013245			
102	2040	-0.232158940397351	0.258754966887417	-1.07952317880795	-6.40662251655629	11.3353642384106	17.8550993377483				1.16895364238411	-0.0322119205298013	0.301139072847682	-29.5260927152318	99.1478145695364	20.1340397350993				-0.186172185430464	-0.0652715231788079	-0.96794701986755	17.3674172185431	17.2264900662252	-1.04026490066225				0.144529801324503	0.255470198675497	-0.981721854304636	-20.1970860927152	11.6635761589404	11.1443708609272				0.996026490066225	0.179496688741722	0.485933774834437	-3.1282119205298	39.5319205298013	-5.37748344370861				0.0157880794701987	-0.462834437086093	-0.820238410596026	28.3003973509934	36.2776158940397	33.965298013245			
103	2060	-0.312158940397351	0.210754966887417	-1.03152317880795	-15.3666225165563	25.8953642384106	21.7750993377483				1.15295364238411	0.0317880794701987	0.301139072847682	-22.8060927152318	73.9478145695364	21.2540397350993				-0.218172185430464	-0.0812715231788079	-0.95194701986755	16.247417218543	20.0264900662252	2.59973509933775				0.224529801324503	0.271470198675497	-1.04572185430464	6.96291390728477	20.0635761589404	19.5443708609272				1.14002649006623	0.115496688741722	0.565933774834437	0.791788079470198	35.6119205298013	-4.81748344370861				0.191788079470199	-0.654834437086093	-0.884238410596026	35.5803973509934	37.9576158940397	26.685298013245			
104	2080	-0.376158940397351	0.226754966887417	-0.951523178807947	5.63337748344371	27.5753642384106	21.4950993377483				1.21695364238411	-0.0482119205298013	0.365139072847682	0.153907284768212	72.2678145695364	29.3740397350993				-0.330172185430464	0.0307284768211921	-0.99994701986755	7.00741721854305	23.6664900662252	6.23973509933775				0.304529801324503	0.271470198675497	-1.15772185430464	22.9229139072848	27.3435761589404	26.8243708609272				1.07602649006623	0.115496688741722	0.613933774834437	-3.9682119205298	30.0119205298013	-8.73748344370861				0.351788079470199	-0.702834437086093	-1.01223841059603	23.5403973509934	44.3976158940397	15.765298013245			
105	2100	-0.376158940397351	0.194754966887417	-0.935523178807947	-3.60662251655629	31.7753642384106	26.8150993377483				1.15295364238411	-0.176211920529801	0.621139072847682	-10.4860927152318	67.2278145695364	28.8140397350993				-0.330172185430464	0.0467284768211921	-1.01594701986755	19.8874172185431	28.9864900662252	10.4397350993378				0.384529801324503	0.175470198675497	-1.20572185430464	30.7629139072848	24.5435761589404	27.6643708609272				0.964026490066225	0.147496688741722	0.693933774834437	4.7117880794702	29.4519205298013	-5.93748344370861				0.335788079470199	-0.670834437086093	-0.948238410596026	19.6203973509934	41.3176158940397	6.24529801324503			
106	2120	-0.280158940397351	0.242754966887417	-1.03152317880795	-3.32662251655629	38.7753642384106	29.8950993377483				1.13695364238411	-0.128211920529801	0.637139072847682	-27.8460927152318	46.2278145695364	17.8940397350993				-0.250172185430464	-0.0172715231788079	-0.95194701986755	14.847417218543	34.0264900662252	12.1197350993378				0.400529801324503	0.143470198675497	-1.14172185430464	10.8829139072848	20.9035761589404	24.5843708609272				0.980026490066225	0.131496688741722	0.661933774834437	-0.888211920529802	32.8119205298013	-5.37748344370861				0.207788079470199	-0.654834437086093	-0.932238410596026	13.7403973509934	41.8776158940397	9.04529801324503			
107	2140	-0.216158940397351	0.338754966887417	-1.06352317880795	0.0333774834437086	42.9753642384106	31.2950993377483				1.15295364238411	-0.0482119205298013	0.589139072847682	-20.5660927152318	28.5878145695364	12.8540397350993				-0.218172185430464	0.0467284768211921	-0.99994701986755	21.287417218543	37.9464900662252	10.9997350993378				0.368529801324503	0.191470198675497	-1.14172185430464	-9.27708609271523	13.9035761589404	21.2243708609272				0.980026490066225	0.131496688741722	0.645933774834437	-1.4482119205298	33.0919205298013	-5.37748344370861				0.207788079470199	-0.734834437086093	-0.868238410596026	20.1803973509934	36.8376158940397	9.60529801324503			
108	2160	-0.104158940397351	0.258754966887417	-0.919523178807947	16.2733774834437	50.8153642384106	30.7350993377483				1.12095364238411	-0.0322119205298013	0.461139072847682	-13.8460927152318	18.7878145695364	11.7340397350993				-0.154172185430464	0.0307284768211921	-0.96794701986755	23.807417218543	41.5864900662252	12.9597350993378				0.352529801324503	0.239470198675497	-1.04572185430464	-14.5970860927152	13.3435761589404	18.1443708609272				1.01202649006623	0.147496688741722	0.661933774834437	-10.1282119205298	28.6119205298013	-4.53748344370861				0.287788079470199	-0.734834437086093	-0.900238410596026	16.5403973509934	28.7176158940397	7.64529801324503			
109	2180	-0.056158940397351	0.210754966887417	-0.935523178807947	20.4733774834437	51.3753642384106	29.3350993377483				1.04095364238411	-0.0802119205298013	0.397139072847682	-2.64609271523179	9.82781456953643	12.8540397350993				-0.122172185430464	-0.00127152317880793	-0.93594701986755	25.4874172185431	43.8264900662252	11.2797350993378				0.336529801324503	0.239470198675497	-1.01372185430464	-14.3170860927152	17.8235761589404	14.5043708609272				0.980026490066225	0.115496688741722	0.581933774834437	-8.1682119205298	24.1319205298013	-4.53748344370861				0.239788079470199	-0.686834437086093	-0.884238410596026	10.6603973509934	20.0376158940397	4.28529801324503			
110	2200	-0.088158940397351	0.210754966887417	-0.999523178807947	13.4733774834437	50.8153642384106	28.2150993377483				0.992953642384106	-0.144211920529801	0.397139072847682	-2.36609271523179	12.3478145695364	9.77403973509934				-0.122172185430464	-0.0332715231788079	-0.95194701986755	25.767417218543	49.4264900662252	8.19973509933775				0.288529801324503	0.207470198675497	-0.981721854304636	-2.55708609271523	26.5035761589404	12.8243708609272				0.932026490066225	0.115496688741722	0.549933774834437	-2.8482119205298	20.4919205298013	-6.77748344370861				0.207788079470199	-0.606834437086093	-0.804238410596027	9.82039735099338	15.2776158940397	5.68529801324503			
111	2220	-0.056158940397351	0.226754966887417	-0.999523178807947	9.55337748344371	55.8553642384106	24.8550993377483				0.960953642384106	-0.0802119205298013	0.509139072847682	-12.7260927152318	23.5478145695364	4.17403973509934				-0.0901721854304636	-0.145271523178808	-0.91994701986755	21.567417218543	53.3464900662252	6.23973509933775				0.272529801324503	0.191470198675497	-0.981721854304636	-0.317086092715232	36.0235761589404	13.1043708609272				0.852026490066225	0.179496688741722	0.581933774834437	1.0717880794702	23.0119205298013	-4.53748344370861				0.175788079470199	-0.622834437086093	-0.804238410596027	17.1003973509934	15.8376158940397	5.40529801324503			
112	2240	-0.008158940397351	0.258754966887417	-0.983523178807947	13.4733774834437	57.5353642384106	21.4950993377483				0.976953642384106	-0.0482119205298013	0.509139072847682	-9.64609271523179	25.7878145695364	6.97403973509934				-0.0581721854304636	-0.129271523178808	-0.95194701986755	11.487417218543	56.4264900662252	6.51973509933775				0.240529801324503	0.191470198675497	-0.981721854304636	1.08291390728477	36.5835761589404	12.8243708609272				0.836026490066225	0.179496688741722	0.581933774834437	2.1917880794702	20.4919205298013	-3.13748344370861				0.175788079470199	-0.606834437086093	-0.820238410596026	13.7403973509934	17.5176158940397	4.00529801324503			
113	2260	-0.008158940397351	0.178754966887417	-1.03152317880795	12.0733774834437	63.4153642384106	17.8550993377483				1.10495364238411	-0.128211920529801	0.493139072847682	-7.68609271523179	21.8678145695364	12.5740397350993				-0.106172185430464	-0.0332715231788079	-0.98394701986755	6.16741721854305	58.1064900662252	7.35973509933775				0.272529801324503	0.239470198675497	-1.02972185430464	8.08291390728477	39.6635761589404	13.1043708609272				0.932026490066225	0.147496688741722	0.629933774834437	-0.328211920529802	25.8119205298013	-6.49748344370861				0.223788079470199	-0.574834437086093	-0.820238410596026	11.5003973509934	17.5176158940397	1.48529801324503			
114	2280	0.023841059602649	0.146754966887417	-1.01552317880795	3.11337748344371	67.0553642384106	13.6550993377483				1.15295364238411	-0.144211920529801	0.509139072847682	-11.3260927152318	15.9878145695364	13.9740397350993				-0.106172185430464	-0.113271523178808	-1.01594701986755	3.92741721854305	63.4264900662252	3.99973509933775				0.272529801324503	0.207470198675497	-1.06172185430464	6.96291390728477	43.8635761589404	14.5043708609272				0.996026490066225	0.115496688741722	0.645933774834437	-5.6482119205298	26.0919205298013	-8.17748344370861				0.207788079470199	-0.558834437086093	-0.852238410596026	8.98039735099338	26.4776158940397	-8.87470198675497			
115	2300	0.071841059602649	0.242754966887417	-0.999523178807947	6.19337748344371	71.2553642384106	8.61509933774835				1.08895364238411	-0.0802119205298013	0.557139072847682	-3.76609271523179	2.26781456953642	13.4140397350993				-0.0581721854304636	-0.0812715231788079	-0.96794701986755	1.96741721854305	70.7064900662252	-1.32026490066225				0.288529801324503	0.159470198675497	-1.07772185430464	1.08291390728477	53.9435761589404	14.5043708609272				1.02802649006623	0.163496688741722	0.597933774834437	-5.3682119205298	23.8519205298013	-6.49748344370861				0.175788079470199	-0.542834437086093	-0.836238410596026	24.3803973509934	37.6776158940397	-20.914701986755			
116	2320	0.071841059602649	0.306754966887417	-1.03152317880795	15.1533774834437	76.8553642384106	3.85509933774834				1.07295364238411	-0.0962119205298013	0.477139072847682	5.75390728476821	-1.65218543046358	12.0140397350993				-0.0101721854304636	-0.00127152317880793	-0.98394701986755	8.96741721854305	74.3464900662252	-1.60026490066225				0.288529801324503	0.175470198675497	-1.04572185430464	-7.87708609271523	67.9435761589404	14.5043708609272				0.996026490066225	0.179496688741722	0.533933774834437	0.511788079470198	27.2119205298013	-3.41748344370861				0.175788079470199	-0.542834437086093	-0.836238410596026	26.3403973509934	41.3176158940397	-27.074701986755			
117	2340	0.135841059602649	0.130754966887417	-1.06352317880795	29.9933774834437	79.3753642384106	2.17509933774834				1.08895364238411	-0.160211920529801	0.461139072847682	8.83390728476821	16.8278145695364	12.8540397350993				0.0538278145695364	-0.113271523178808	-0.95194701986755	11.487417218543	79.3864900662252	-4.12026490066225				0.272529801324503	0.271470198675497	-0.965721854304636	2.20291390728477	73.2635761589404	12.2643708609272				0.964026490066225	0.179496688741722	0.533933774834437	3.5917880794702	28.3319205298013	-4.25748344370861				0.191788079470199	-0.558834437086093	-0.852238410596026	19.3403973509934	42.9976158940397	-30.994701986755			
118	2360	0.167841059602649	0.0987549668874172	-1.06352317880795	22.9933774834437	82.4553642384106	-2.02490066225166				1.05695364238411	-0.0962119205298013	0.509139072847682	4.91390728476821	8.70781456953642	13.4140397350993				0.133827814569536	-0.145271523178808	-0.88794701986755	15.407417218543	83.3064900662252	-6.08026490066225				0.304529801324503	0.223470198675497	-0.965721854304636	23.4829139072848	73.8235761589404	10.3043708609272				0.932026490066225	0.163496688741722	0.549933774834437	4.1517880794702	30.2919205298013	-2.85748344370861				0.207788079470199	-0.558834437086093	-0.868238410596026	13.7403973509934	49.1576158940397	-32.394701986755			
119	2380	0.215841059602649	0.162754966887417	-0.967523178807947	15.7133774834437	88.0553642384106	-3.70490066225166				1.00895364238411	-0.144211920529801	0.445139072847682	0.153907284768212	3.10781456953642	17.0540397350993				0.149827814569536	-0.129271523178808	-0.93594701986755	15.407417218543	87.2264900662252	-6.92026490066225				0.384529801324503	0.127470198675497	-1.01372185430464	33.0029139072848	82.2235761589404	7.78437086092715				0.948026490066225	0.131496688741722	0.533933774834437	9.1917880794702	33.0919205298013	-0.897483443708608				0.239788079470199	-0.558834437086093	-0.852238410596026	15.9803973509934	51.1176158940397	-35.754701986755			
120	2400	0.199841059602649	0.0987549668874172	-0.903523178807947	12.0733774834437	92.5353642384106	-3.14490066225166				1.04095364238411	-0.128211920529801	0.397139072847682	5.19390728476821	10.9478145695364	14.2540397350993				0.133827814569536	-0.0812715231788079	-0.91994701986755	21.0074172185431	89.1864900662252	-6.08026490066225				0.384529801324503	0.111470198675497	-0.949721854304636	20.9629139072848	91.1835761589404	8.62437086092715				0.932026490066225	0.115496688741722	0.549933774834437	12.2717880794702	31.9719205298013	-0.897483443708608				0.255788079470199	-0.574834437086093	-0.820238410596026	9.26039735099338	54.7576158940397	-40.514701986755			
121	2420	0.183841059602649	0.130754966887417	-1.03152317880795	5.91337748344371	93.0953642384106	-1.46490066225166				1.04095364238411	-0.0802119205298013	0.413139072847682	18.3539072847682	9.26781456953642	14.5340397350993				0.117827814569536	-0.0652715231788079	-0.91994701986755	22.407417218543	90.0264900662252	-6.36026490066225				0.352529801324503	0.127470198675497	-0.917721854304636	19.0029139072848	93.9835761589404	6.94437086092715				0.900026490066225	0.131496688741722	0.517933774834437	10.5917880794702	30.2919205298013	1.34251655629139				0.255788079470199	-0.574834437086093	-0.772238410596026	-1.65960264900662	60.0776158940397	-37.714701986755			
122	2440	0.231841059602649	0.162754966887417	-1.01552317880795	9.83337748344371	92.2553642384106	-1.18490066225166				0.960953642384106	-0.112211920529801	0.413139072847682	22.2739072847682	10.3878145695364	15.0940397350993				0.229827814569536	-0.0812715231788079	-0.88794701986755	18.767417218543	90.5864900662252	-6.92026490066225				0.400529801324503	0.191470198675497	-0.853721854304636	40.0029139072848	88.6635761589404	3.58437086092715				0.868026490066225	0.131496688741722	0.533933774834437	11.9917880794702	30.5719205298013	1.62251655629139				0.319788079470199	-0.574834437086093	-0.756238410596026	0.580397350993377	56.1576158940397	-39.114701986755			
123	2460	0.263841059602649	0.114754966887417	-0.951523178807947	15.1533774834437	91.9753642384106	-0.624900662251656				0.912953642384106	-0.112211920529801	0.445139072847682	14.4339072847682	22.4278145695364	10.8940397350993				0.293827814569536	-0.113271523178808	-0.83994701986755	12.607417218543	89.1864900662252	-8.60026490066225				0.464529801324503	0.159470198675497	-0.949721854304636	57.0829139072848	80.2635761589404	5.82437086092715				0.836026490066225	0.131496688741722	0.549933774834437	12.2717880794702	31.6919205298013	1.06251655629139				0.335788079470199	-0.542834437086093	-0.836238410596026	-2.21960264900662	52.7976158940397	-34.354701986755			
124	2480	0.311841059602649	0.0187549668874172	-0.935523178807947	11.7933774834437	90.8553642384106	2.73509933774834				0.912953642384106	-0.176211920529801	0.477139072847682	13.3139072847682	28.0278145695364	12.8540397350993				0.341827814569536	-0.113271523178808	-0.85594701986755	18.2074172185431	88.0664900662252	-8.88026490066225				0.576529801324503	0.0154701986754967	-0.949721854304636	57.9229139072848	72.1435761589404	0.504370860927152				0.820026490066225	0.147496688741722	0.533933774834437	15.0717880794702	31.1319205298013	1.90251655629139				0.399788079470199	-0.574834437086093	-0.820238410596026	5.62039735099338	47.1976158940397	-25.674701986755			
125	2500	0.359841059602649	0.0187549668874172	-0.887523178807947	-2.48662251655629	90.0153642384106	2.73509933774834				0.928953642384106	-0.192211920529801	0.445139072847682	16.1139072847682	21.3078145695364	14.2540397350993				0.373827814569536	-0.0972715231788079	-0.80794701986755	18.2074172185431	90.8664900662252	-8.60026490066225				0.608529801324503	-0.0325298013245033	-0.901721854304636	31.0429139072848	63.4635761589404	-7.33562913907285				0.836026490066225	0.131496688741722	0.581933774834437	17.0317880794702	29.1719205298013	4.98251655629139				0.447788079470199	-0.574834437086093	-0.804238410596027	4.50039735099338	33.4776158940397	-18.114701986755			
126	2520	0.359841059602649	0.0667549668874172	-0.919523178807947	-2.48662251655629	91.4153642384106	1.33509933774834				0.880953642384106	-0.208211920529801	0.381139072847682	13.0339072847682	13.1878145695364	13.9740397350993				0.405827814569536	-0.0332715231788079	-0.79194701986755	11.207417218543	92.5464900662252	-13.3602649006623				0.592529801324503	0.0154701986754967	-0.837721854304636	8.36291390728477	59.2635761589404	-7.61562913907285				0.836026490066225	0.0674966887417219	0.629933774834437	17.0317880794702	30.2919205298013	3.86251655629139				0.447788079470199	-0.590834437086093	-0.804238410596027	-5.29960264900662	24.7976158940397	-16.994701986755			
127	2540	0.439841059602649	0.0827549668874172	-0.823523178807947	-3.60662251655629	95.0553642384106	0.775099337748344				0.816953642384106	-0.0962119205298013	0.445139072847682	5.75390728476821	21.5878145695364	8.65403973509934				0.389827814569536	-0.0332715231788079	-0.77594701986755	8.40741721854305	94.5064900662252	-16.1602649006623				0.512529801324503	0.0634701986754967	-0.805721854304636	8.64291390728477	55.6235761589404	-4.25562913907285				0.772026490066225	0.0994966887417219	0.597933774834437	10.8717880794702	21.0519205298013	4.42251655629139				0.431788079470199	-0.606834437086093	-0.772238410596026	-3.61960264900662	27.3176158940397	-13.074701986755			
128	2560	0.487841059602649	0.146754966887417	-0.791523178807947	-0.806622516556291	97.0153642384106	3.85509933774834				0.864953642384106	-0.0642119205298013	0.509139072847682	9.67390728476821	31.9478145695364	11.4540397350993				0.421827814569536	-0.0332715231788079	-0.77594701986755	11.207417218543	98.4264900662252	-15.0402649006623				0.496529801324503	0.111470198675497	-0.789721854304636	20.9629139072848	53.6635761589404	-1.17562913907285				0.740026490066225	0.163496688741722	0.597933774834437	13.1117880794702	17.4119205298013	6.66251655629139				0.447788079470199	-0.558834437086093	-0.724238410596026	0.580397350993377	21.9976158940397	-7.47470198675497			
129	2580	0.503841059602649	0.0667549668874172	-0.791523178807947	1.43337748344371	98.6953642384106	5.53509933774834				0.896953642384106	-0.0802119205298013	0.461139072847682	18.9139072847682	28.3078145695364	9.49403973509934				0.469827814569536	-0.0172715231788079	-0.74394701986755	13.167417218543	99.5464900662252	-15.6002649006622				0.528529801324503	0.0954701986754967	-0.741721854304636	27.9629139072848	50.3035761589404	-0.895629139072848				0.740026490066225	0.179496688741722	0.581933774834437	12.5517880794702	20.2119205298013	7.50251655629139				0.479788079470199	-0.542834437086093	-0.708238410596026	-1.09960264900662	16.9576158940397	-3.27470198675497			
130	2600	0.535841059602649	0.0667549668874172	-0.791523178807947	-2.48662251655629	97.8553642384106	4.69509933774834				0.816953642384106	-0.0962119205298013	0.509139072847682	30.9539072847682	25.2278145695364	8.93403973509934				0.469827814569536	-0.0172715231788079	-0.69594701986755	13.167417218543	102.066490066225	-15.8802649006623				0.528529801324503	0.0794701986754967	-0.725721854304636	28.5229139072848	56.7435761589404	-1.45562913907285				0.740026490066225	0.163496688741722	0.613933774834437	6.6717880794702	21.0519205298013	6.10251655629139				0.495788079470199	-0.542834437086093	-0.724238410596026	8.70039735099338	10.2376158940397	-1.03470198675497			
131	2620	0.519841059602649	0.146754966887417	-0.727523178807947	-5.84662251655629	97.8553642384106	1.61509933774834				0.816953642384106	-0.144211920529801	0.573139072847682	35.9939072847682	31.1078145695364	10.8940397350993				0.485827814569536	-0.0172715231788079	-0.69594701986755	14.287417218543	100.666490066225	-17.2802649006623				0.560529801324503	0.0634701986754967	-0.677721854304636	30.4829139072848	61.7835761589404	-0.895629139072848				0.724026490066225	0.179496688741722	0.629933774834437	-1.7282119205298	16.8519205298013	6.94251655629139				0.479788079470199	-0.494834437086093	-0.724238410596026	17.9403973509934	6.31761589403974	-1.31470198675497			
132	2640	0.535841059602649	0.162754966887417	-0.679523178807947	-0.526622516556291	98.1353642384106	-1.18490066225166				0.832953642384106	-0.144211920529801	0.541139072847682	26.4739072847682	30.5478145695364	8.93403973509934				0.517827814569536	0.0147284768211921	-0.67994701986755	14.847417218543	106.266490066225	-21.4802649006623				0.608529801324503	0.127470198675497	-0.645721854304636	34.4029139072848	66.2635761589404	-2.01562913907285				0.692026490066225	0.147496688741722	0.629933774834437	2.7517880794702	16.8519205298013	8.34251655629139				0.447788079470199	-0.494834437086093	-0.660238410596027	20.1803973509934	-1.80238410596026	2.60529801324503			
133	2660	0.583841059602649	0.178754966887417	-0.711523178807947	3.95337748344371	100.375364238411	-4.54490066225166				0.816953642384106	-0.128211920529801	0.477139072847682	15.5539072847682	26.9078145695364	5.29403973509934				0.613827814569536	0.0787284768211921	-0.66394701986755	16.247417218543	107.386490066225	-26.8002649006623				0.608529801324503	0.0954701986754967	-0.629721854304636	41.1229139072848	66.5435761589404	-0.615629139072848				0.660026490066225	0.131496688741722	0.645933774834437	1.6317880794702	13.7719205298013	12.5425165562914				0.463788079470199	-0.542834437086093	-0.580238410596026	0.580397350993377	-32.0423841059603	-8.59470198675497			
134	2680	0.631841059602649	0.146754966887417	-0.711523178807947	1.71337748344371	102.335364238411	-7.06490066225166				0.784953642384106	-0.112211920529801	0.541139072847682	20.8739072847682	30.5478145695364	2.49403973509934				0.613827814569536	0.0147284768211921	-0.58394701986755	24.087417218543	106.266490066225	-29.0402649006623				0.704529801324503	0.0794701986754967	-0.645721854304636	49.8029139072848	61.5035761589404	-3.41562913907285				0.692026490066225	0.179496688741722	0.677933774834437	-12.3682119205298	25.5319205298013	3.86251655629139				0.463788079470199	-0.494834437086093	-0.564238410596026	4.22039735099338	-28.9623841059603	-20.074701986755			
135	2700	0.679841059602649	0.0987549668874172	-0.631523178807947	0.873377483443709	100.655364238411	-8.18490066225166				0.752953642384106	-0.144211920529801	0.573139072847682	25.9139072847682	31.9478145695364	6.69403973509934				0.645827814569536	-0.0972715231788079	-0.55194701986755	26.3274172185431	102.906490066225	-24.8402649006623				0.832529801324503	0.127470198675497	-0.629721854304636	68.2829139072848	52.2635761589404	-8.45562913907285				0.660026490066225	0.163496688741722	0.661933774834437	-9.8482119205298	7.05192052980133	9.46251655629139				0.463788079470199	-0.478834437086093	-0.596238410596026	-19.8596026490066	-26.7223841059603	-47.514701986755			
136	2720	0.663841059602649	0.130754966887417	-0.599523178807947	-3.60662251655629	97.2953642384106	-10.4249006622517				0.704953642384106	-0.0642119205298013	0.525139072847682	20.5939072847682	31.1078145695364	5.85403973509934				0.661827814569536	-0.161271523178808	-0.58394701986755	30.5274172185431	104.026490066225	-21.7602649006623				0	0	0	0	0	0				0.596026490066225	0.227496688741722	0.613933774834437	-9.5682119205298	0.891920529801325	7.78251655629139				0.319788079470199	-0.366834437086093	-0.596238410596026	-2.77960264900662	-32.0423841059603	-44.434701986755			
137	2740	0.695841059602649	0.162754966887417	-0.567523178807947	-4.72662251655629	98.6953642384106	-14.3449006622517				0.688953642384106	0.0317880794701987	0.477139072847682	21.7139072847682	35.0278145695364	3.61403973509934				0.693827814569536	-0.0492715231788079	-0.45594701986755	22.6874172185431	111.306490066225	-22.6002649006623				0.768529801324503	-0.0485298013245033	-0.565721854304636	45.8829139072848	23.4235761589404	-17.6956291390729				0.612026490066225	0.179496688741722	0.613933774834437	31.5917880794702	-3.58807947019868	16.1825165562914				0.351788079470199	-0.446834437086093	-0.516238410596026	-0.539602649006623	-35.1223841059603	-31.274701986755			
138	2760	0.711841059602649	0.178754966887417	-0.551523178807947	-2.48662251655629	99.5353642384106	-17.7049006622517				0.704953642384106	-0.0162119205298013	0.509139072847682	32.3539072847682	47.3478145695364	7.81403973509934				0.741827814569536	-0.0172715231788079	-0.43994701986755	35.287417218543	111.026490066225	-25.4002649006623				0.704529801324503	-0.0805298013245033	-0.549721854304636	47.2829139072848	26.7835761589404	-20.2156291390728				0.612026490066225	0.131496688741722	0.629933774834437	-16.2882119205298	-1.34807947019868	-1.73748344370861				0.335788079470199	-0.494834437086093	-0.532238410596027	-5.85960264900662	-34.2823841059603	-37.434701986755			
139	2780	0.727841059602649	0.178754966887417	-0.519523178807947	0.593377483443709	99.2553642384106	-20.5049006622517				0.576953642384106	-0.112211920529801	0.573139072847682	38.2339072847682	44.5478145695364	16.2140397350993				0.821827814569536	-0.0972715231788079	-0.56794701986755	60.4874172185431	94.5064900662252	-30.7202649006623				0.640529801324503	-0.0165298013245033	-0.549721854304636	28.8029139072848	24.2635761589404	-12.0956291390728				0.612026490066225	0.0834966887417219	0.661933774834437	-10.6882119205298	-15.3480794701987	-1.73748344370861				0.367788079470199	-0.446834437086093	-0.516238410596026	-2.77960264900662	-20.5623841059603	-30.714701986755			
140	2800	0.695841059602649	0.210754966887417	-0.455523178807947	8.15337748344371	99.8153642384106	-21.6249006622517				0.512953642384106	-0.112211920529801	0.749139072847682	29.5539072847682	33.0678145695364	16.2140397350993				0.693827814569536	-0.225271523178808	-0.45594701986755	51.247417218543	94.5064900662252	-33.8002649006623				0.656529801324503	-0.0805298013245033	-0.501721854304636	41.9629139072848	41.0635761589404	-7.89562913907285				0.500026490066225	0.163496688741722	0.581933774834437	1.9117880794702	-20.3880794701987	3.58251655629139				0.399788079470199	-0.398834437086093	-0.516238410596026	-14.5396026490066	-13.0023841059603	-20.074701986755			
141	2820	0.727841059602649	0.114754966887417	-0.423523178807947	22.9933774834437	98.1353642384106	-24.4249006622517				0.704953642384106	-0.0962119205298013	0.605139072847682	21.7139072847682	23.8278145695364	11.4540397350993				0.645827814569536	-0.209271523178808	-0.31194701986755	27.1674172185431	105.426490066225	-27.3602649006623				0.592529801324503	0.0154701986754967	-0.453721854304636	47.0029139072848	38.5435761589404	-12.9356291390728				0.596026490066225	0.115496688741722	0.709933774834437	62.3917880794702	-13.1080794701987	21.5025165562914				0.463788079470199	-0.526834437086093	-0.548238410596027	-22.0996026490066	-1.24238410596026	-32.394701986755			
142	2840	0.695841059602649	0.0667549668874172	-0.487523178807947	28.8733774834437	94.4953642384106	-23.0249006622517				0.720953642384106	-0.144211920529801	0.605139072847682	26.4739072847682	15.1478145695364	7.25403973509934				0.805827814569536	-0.177271523178808	-0.31194701986755	6.44741721854305	104.306490066225	-17.0002649006623				0.608529801324503	0.127470198675497	-0.421721854304636	54.2829139072848	36.5835761589404	-14.6156291390728				0.628026490066225	0.163496688741722	0.725933774834437	34.3917880794702	-23.4680794701987	19.8225165562914				0.575788079470199	-0.574834437086093	-0.500238410596026	4.22039735099338	-0.122384105960265	-29.594701986755			
143	2860	0.727841059602649	0.0187549668874172	-0.551523178807947	15.7133774834437	92.2553642384106	-16.8649006622517				0.592953642384106	-0.0162119205298013	0.573139072847682	19.1939072847682	2.82781456953642	-1.14596026490066				0.917827814569536	-0.193271523178808	-0.40794701986755	6.44741721854305	86.3864900662252	-11.6802649006622				0.736529801324503	0.191470198675497	-0.453721854304636	37.4829139072848	-6.5364238410596	-11.8156291390728				0.516026490066225	0.243496688741722	0.917933774834437	99.0717880794702	-67.7080794701987	33.5425165562914				0.479788079470199	-0.398834437086093	-0.468238410596026	14.8603973509934	6.03761589403974	-1.59470198675497			
144	2880	0.695841059602649	0.0827549668874172	-0.487523178807947	5.63337748344371	89.7353642384106	-10.1449006622517				0.576953642384106	0.0477880794701987	0.637139072847682	8.55390728476821	10.9478145695364	-3.66596026490066				0.853827814569536	-0.177271523178808	-0.34394701986755	11.487417218543	89.7464900662252	-11.6802649006622				0.864529801324503	-0.192529801324503	-0.613721854304636	59.0429139072848	11.3835761589404	-5.65562913907285				0.612026490066225	0.307496688741722	0.437933774834437	73.0317880794702	-94.0280794701987	43.0625165562914				0.351788079470199	-0.286834437086093	-0.468238410596026	7.86039735099338	18.0776158940397	-1.31470198675497			
145	2900	0.695841059602649	0.0507549668874172	-0.407523178807947	12.9133774834437	91.6953642384106	-6.78490066225166				0.640953642384106	-0.0962119205298013	0.749139072847682	19.1939072847682	4.78781456953642	2.21403973509934				0.773827814569536	-0.193271523178808	-0.27994701986755	6.16741721854305	91.7064900662252	-10.2802649006622				0.848529801324503	-0.0805298013245033	-0.533721854304636	54.2829139072848	12.7835761589404	-9.57562913907285				0.660026490066225	0.291496688741722	0.677933774834437	72.7517880794702	-162.908079470199	54.8225165562914				0.431788079470199	-0.334834437086093	-0.516238410596026	20.1803973509934	32.9176158940397	-13.914701986755			
146	2920	0.743841059602649	0.0827549668874172	-0.455523178807947	14.5933774834437	90.0153642384106	-5.94490066225166				0.736953642384106	-0.112211920529801	0.605139072847682	21.4339072847682	-20.1321854304636	2.49403973509934				0.821827814569536	-0.129271523178808	-0.24794701986755	-17.632582781457	83.3064900662252	-5.80026490066225				0.864529801324503	-0.0325298013245033	-0.501721854304636	17.6029139072848	-6.8164238410596	-11.8156291390728				0.756026490066225	0.0674966887417219	0.565933774834437	1.9117880794702	-183.628079470199	63.2225165562914				0.495788079470199	-0.494834437086093	-0.564238410596026	40.0603973509934	26.1976158940397	-28.194701986755			
147	2940	0.759841059602649	0.162754966887417	-0.487523178807947	11.7933774834437	77.6953642384106	-1.46490066225166				0.544953642384106	-0.0162119205298013	0.621139072847682	14.7139072847682	-20.6921854304636	1.65403973509934				0.901827814569536	-0.0332715231788079	-0.21594701986755	-32.192582781457	75.7464900662252	-1.04026490066225				0.768529801324503	-0.128529801324503	-0.421721854304636	-8.43708609271523	-22.4964238410596	-10.6956291390728				0.516026490066225	0.227496688741722	0.229933774834437	-14.8882119205298	-114.468079470199	34.9425165562914				0.511788079470199	-0.654834437086093	-0.484238410596026	29.1403973509934	18.9176158940397	-39.114701986755			
148	2960	0.839841059602649	0.130754966887417	-0.423523178807947	2.55337748344371	72.0953642384106	1.61509933774834				0.528953642384106	0.0797880794701987	0.685139072847682	11.9139072847682	-13.9721854304636	-3.94596026490066				0.901827814569536	0.0147284768211921	-0.21594701986755	-22.672582781457	70.4264900662252	-1.32026490066225				0.592529801324503	0.0634701986754967	-0.421721854304636	-17.1170860927152	-2.8964238410596	-11.8156291390728				0	0	0	0	0	0				0	0	0	0	0	0			
149	2980	0.871841059602649	0.0827549668874172	-0.295523178807947	1.43337748344371	68.1753642384106	0.215099337748344				0.704953642384106	-0.128211920529801	0.765139072847682	11.9139072847682	0.867814569536424	3.61403973509934				0.917827814569536	0.0627284768211921	-0.27994701986755	-12.032582781457	70.7064900662252	-6.08026490066225				0.560529801324503	0.0954701986754967	-0.453721854304636	3.60291390728477	2.1435761589404	-5.37562913907285				0.980026490066225	0.211496688741722	0.117933774834437	-6.7682119205298	-35.2280794701987	13.9425165562914				0.511788079470199	-0.446834437086093	-0.548238410596027	-20.6996026490066	31.5176158940397	-5.51470198675497			
150	3000	0.807841059602649	0.114754966887417	-0.295523178807947	1.43337748344371	72.6553642384106	3.85509933774834				0.672953642384106	-0.144211920529801	0.717139072847682	-7.12609271523179	-21.8121854304636	2.49403973509934				0.981827814569536	0.0307284768211921	-0.21594701986755	0.847417218543046	67.0664900662252	-4.40026490066225				0.640529801324503	0.0154701986754967	-0.453721854304636	10.6029139072848	-2.0564238410596	-4.81562913907285				0.724026490066225	0.0994966887417219	0.453933774834437	-3.9682119205298	-21.2280794701987	6.66251655629139				0.591788079470199	-0.574834437086093	-0.660238410596027	12.6203973509934	18.0776158940397	-2.43470198675497			
151	3020	0.887841059602649	0.130754966887417	-0.263523178807947	1.99337748344371	61.1753642384106	5.25509933774834				0.560953642384106	-0.0482119205298013	0.685139072847682	-1.52609271523179	-33.8521854304636	-1.98596026490066				0.949827814569536	-0.0972715231788079	-0.15194701986755	8.68741721854305	59.7864900662252	-0.48026490066225				0.656529801324503	-0.0165298013245033	-0.469721854304636	24.0429139072848	1.3035761589404	5.54437086092715				0.756026490066225	0.163496688741722	0.437933774834437	27.1117880794702	-4.70807947019868	16.1825165562914				0.607788079470199	-0.622834437086093	-0.628238410596026	8.14039735099338	0.717615894039735	14.645298013245			
152	3040	0.919841059602649	0.130754966887417	-0.231523178807947	-8.92662251655629	49.6953642384106	5.81509933774834				0.624953642384106	0.0317880794701987	0.637139072847682	6.59390728476821	-31.3321854304636	-10.1059602649007				0.917827814569536	-0.177271523178808	-0.16794701986755	3.64741721854305	47.7464900662252	3.43973509933775				0.656529801324503	0.0314701986754967	-0.613721854304636	33.2829139072848	-4.2964238410596	7.78437086092715				0.820026490066225	0.0354966887417219	0.485933774834437	29.6317880794702	0.891920529801325	8.34251655629139				0.559788079470199	-0.462834437086093	-0.580238410596026	-1.93960264900662	0.997615894039735	24.445298013245			
153	3060	0.919841059602649	0.178754966887417	-0.151523178807947	-13.1266225165563	50.5353642384106	7.49509933774834				0.816953642384106	-0.128211920529801	0.685139072847682	-9.64609271523179	-15.0921854304636	0.25403973509934				0.981827814569536	-0.0652715231788079	-0.13594701986755	-7.27258278145696	45.7864900662252	7.91973509933775				0.672529801324503	-0.000529801324503289	-0.629721854304636	24.6029139072848	-8.7764238410596	3.58437086092715				0.900026490066225	-0.220503311258278	0.709933774834437	0.511788079470198	-16.1880794701987	3.86251655629139				0.495788079470199	-0.382834437086093	-0.596238410596026	-6.13960264900662	12.1976158940397	11.565298013245			
154	3080	0.951841059602649	0.130754966887417	-0.183523178807947	-12.8466225165563	50.5353642384106	8.33509933774834				0.688953642384106	-0.0802119205298013	0.653139072847682	-8.80609271523179	-23.4921854304636	-2.82596026490066				0.933827814569536	-0.0652715231788079	-0.10394701986755	-14.832582781457	35.4264900662252	10.1597350993378				0.752529801324503	-0.0965298013245033	-0.581721854304636	-0.597086092715232	-12.6964238410596	0.504370860927152				0.708026490066225	0.243496688741722	0.421933774834437	-3.6882119205298	-20.6680794701987	12.8225165562914				0.463788079470199	-0.430834437086093	-0.580238410596026	2.54039735099338	-1.52238410596026	-6.91470198675497			
155	3100	0.967841059602649	0.0987549668874172	-0.231523178807947	-10.6066225165563	48.2953642384106	11.4150993377483				0.608953642384106	-0.000211920529801304	0.669139072847682	18.9139072847682	-24.8921854304636	-6.46596026490066				0.805827814569536	-0.0812715231788079	-0.10394701986755	-18.192582781457	30.9464900662252	3.43973509933775				0.752529801324503	-0.0645298013245033	-0.517721854304636	-1.43708609271523	-10.4564238410596	3.58437086092715				0.756026490066225	0.195496688741722	0.389933774834437	-26.9282119205298	-27.1080794701987	14.5025165562914				0.463788079470199	-0.478834437086093	-0.532238410596027	-3.33960264900662	-2.36238410596027	-15.594701986755			
156	3120	0.983841059602649	0.0987549668874172	-0.215523178807947	-0.526622516556291	40.7353642384106	9.45509933774835				0.832953642384106	-0.0642119205298013	0.701139072847682	19.7539072847682	-20.6921854304636	4.73403973509934				0.933827814569536	0.0147284768211921	-0.13594701986755	-18.192582781457	33.1864900662252	-1.88026490066225				0.720529801324503	-0.0645298013245033	-0.485721854304636	-8.15708609271523	-3.4564238410596	-0.335629139072848				0.740026490066225	0.147496688741722	0.501933774834437	-44.5682119205298	-21.2280794701987	10.8625165562914				0.479788079470199	-0.526834437086093	-0.516238410596026	-2.21960264900662	8.55761589403974	-24.834701986755			
157	3140	0.855841059602649	0.146754966887417	-0.151523178807947	-3.32662251655629	39.3353642384106	8.33509933774834				0.736953642384106	-0.0962119205298013	0.605139072847682	0.713907284768212	-26.2921854304636	7.53403973509934				1.04582781456954	-0.0172715231788079	-0.10394701986755	-13.992582781457	35.9864900662252	-1.60026490066225				0.688529801324503	-0.0485298013245033	-0.437721854304636	-12.6370860927152	1.5835761589404	0.784370860927152				0.788026490066225	0.0514966887417219	0.405933774834437	-72.8482119205298	-12.2680794701987	9.74251655629139				0.527788079470199	-0.590834437086093	-0.564238410596026	-5.85960264900662	13.0376158940397	-20.354701986755			
158	3160	0.823841059602649	0.0987549668874172	-0.151523178807947	-15.3666225165563	33.7353642384106	8.05509933774835				0.656953642384106	0.0317880794701987	0.573139072847682	2.67390728476821	-19.2921854304636	-1.70596026490066				0.965827814569536	-0.0652715231788079	-0.0719470198675496	0.00741721854304636	32.9064900662252	-1.88026490066225				0.608529801324503	-0.0165298013245033	-0.485721854304636	10.6029139072848	7.1835761589404	4.42437086092715				0.884026490066225	0.0834966887417219	0.421933774834437	-72.8482119205298	3.41192052980132	13.1025165562914				0.575788079470199	-0.558834437086093	-0.612238410596026	-14.8196026490066	2.67761589403974	3.72529801324503			
159	3180	0.919841059602649	0.0987549668874172	-0.119523178807947	-2.20662251655629	34.0153642384106	6.37509933774834				0.704953642384106	0.0317880794701987	0.669139072847682	25.0739072847682	-13.6921854304636	2.21403973509934				0.901827814569536	-0.0652715231788079	-0.10394701986755	13.167417218543	29.8264900662252	-1.04026490066225				0.624529801324503	0.0314701986754967	-0.549721854304636	42.2429139072848	15.0235761589404	6.94437086092715				0.772026490066225	0.0674966887417219	0.421933774834437	-70.3282119205298	6.21192052980133	7.78251655629139				0.511788079470199	-0.430834437086093	-0.612238410596026	-20.9796026490066	-2.64238410596027	18.285298013245			
160	3200	0.983841059602649	0.114754966887417	-0.039523178807947	10.6733774834437	33.7353642384106	3.01509933774834				0.800953642384106	-0.144211920529801	0.669139072847682	5.47390728476821	-7.81218543046358	6.69403973509934				0.997827814569536	-0.0812715231788079	-0.0879470198675496	9.24741721854305	29.8264900662252	3.71973509933775				0.752529801324503	-0.0965298013245033	-0.581721854304636	31.3229139072848	13.6235761589404	6.10437086092715				0.756026490066225	0.0514966887417219	0.389933774834437	-50.1682119205298	0.891920529801325	2.46251655629139				0.511788079470199	-0.414834437086093	-0.692238410596026	-6.41960264900662	1.55761589403974	11.565298013245			
161	3220	0.919841059602649	0.0827549668874172	-0.039523178807947	9.55337748344371	31.7753642384106	3.57509933774835				0.736953642384106	-0.000211920529801304	0.685139072847682	-13.2860927152318	-11.4521854304636	-1.98596026490066				1.02982781456954	-0.0972715231788079	-0.0559470198675496	5.60741721854305	31.2264900662252	7.63973509933775				0.784529801324503	-0.160529801324503	-0.613721854304636	10.6029139072848	13.9035761589404	6.66437086092715				0.884026490066225	0.0674966887417219	0.357933774834437	-25.8082119205298	-0.228079470198675	8.34251655629139				0.527788079470199	-0.478834437086093	-0.676238410596026	-2.21960264900662	-10.7623841059603	5.96529801324503			
162	3240	0.935841059602649	0.0347549668874172	-0.039523178807947	3.39337748344371	29.2553642384106	9.17509933774834				0.704953642384106	-0.000211920529801304	0.637139072847682	2.67390728476821	-15.0921854304636	-0.30596026490066				0.981827814569536	-0.129271523178808	-0.0399470198675496	-2.23258278145695	20.8664900662252	5.39973509933775				0.768529801324503	-0.0645298013245033	-0.597721854304636	13.1229139072848	11.3835761589404	11.4243708609272				0.900026490066225	0.0994966887417219	0.405933774834437	-10.4082119205298	2.29192052980133	9.46251655629139				0.511788079470199	-0.430834437086093	-0.596238410596026	-6.97960264900662	-7.12238410596027	6.80529801324503			
163	3260	1.04784105960265	0.0347549668874172	-0.055523178807947	9.83337748344371	34.5753642384106	8.05509933774835				0.848953642384106	-0.128211920529801	0.701139072847682	16.9539072847682	-5.29218543046358	9.49403973509934				1.06182781456954	-0.0812715231788079	-0.0399470198675496	-1.11258278145695	12.7464900662252	3.15973509933775				0.784529801324503	-0.0965298013245033	-0.613721854304636	10.8829139072848	4.1035761589404	9.74437086092715				0.836026490066225	0.0354966887417219	0.389933774834437	-13.2082119205298	4.81192052980133	9.18251655629139				0.463788079470199	-0.414834437086093	-0.660238410596027	-5.85960264900662	3.79761589403974	2.60529801324503			
164	3280	1.06384105960265	0.0987549668874172	-0.071523178807947	7.31337748344371	29.2553642384106	2.73509933774834				0.784953642384106	-0.128211920529801	0.701139072847682	11.3539072847682	-10.6121854304636	8.37403973509934				1.07782781456954	-0.0652715231788079	-0.0559470198675496	2.52741721854305	8.54649006622517	1.19973509933775				0.784529801324503	-0.128529801324503	-0.549721854304636	-9.27708609271523	4.9435761589404	4.14437086092715				0.852026490066225	0.0194966887417219	0.373933774834437	-3.9682119205298	-0.508079470198675	8.62251655629139				0.463788079470199	-0.510834437086093	-0.740238410596026	4.50039735099338	-0.962384105960265	-2.15470198675497			
165	3300	0.967841059602649	0.146754966887417	-0.055523178807947	4.23337748344371	14.4153642384106	1.33509933774834				0.688953642384106	-0.000211920529801304	0.621139072847682	2.11390728476821	-8.37218543046358	2.49403973509934				1.02982781456954	-0.0972715231788079	-0.0559470198675496	6.72741721854305	7.14649006622517	-0.48026490066225				0.720529801324503	-0.0325298013245033	-0.533721854304636	1.92291390728477	10.2635761589404	3.86437086092715				0.916026490066225	0.0194966887417219	0.421933774834437	4.9917880794702	-4.14807947019868	8.06251655629139				0.463788079470199	-0.526834437086093	-0.692238410596026	-3.33960264900662	-13.8423841059603	1.20529801324503			
166	3320	0.983841059602649	0.162754966887417	-0.103523178807947	8.43337748344371	11.6153642384106	-2.02490066225166				0.800953642384106	-0.000211920529801304	0.621139072847682	-3.76609271523179	3.38781456953642	7.25403973509934				0.965827814569536	-0.0812715231788079	-0.0399470198675496	15.967417218543	1.26649006622517	1.75973509933775				0.736529801324503	-0.0645298013245033	-0.517721854304636	24.8829139072848	10.5435761589404	3.58437086092715				0.868026490066225	0.00349668874172187	0.453933774834437	-6.2082119205298	-3.02807947019868	2.46251655629139				0.463788079470199	-0.446834437086093	-0.596238410596026	-4.45960264900662	-12.4423841059603	6.52529801324503			
167	3340	1.03184105960265	0.130754966887417	-0.055523178807947	11.2333774834437	13.5753642384106	-5.10490066225166				0.896953642384106	-0.192211920529801	0.557139072847682	5.19390728476821	-3.05218543046358	13.6940397350993				0.965827814569536	-0.113271523178808	-0.0399470198675496	18.487417218543	-1.81350993377483	3.15973509933775				0.784529801324503	-0.176529801324503	-0.549721854304636	19.2829139072848	5.2235761589404	-0.895629139072848				0.772026490066225	0.00349668874172187	0.373933774834437	-4.5282119205298	-1.90807947019868	0.782516556291392				0.463788079470199	-0.478834437086093	-0.676238410596026	2.54039735099338	-6.28238410596027	2.04529801324503			
168	3360	0.919841059602649	0.0987549668874172	-0.071523178807947	12.3533774834437	12.4553642384106	-4.82490066225166				0.752953642384106	-0.112211920529801	0.573139072847682	2.67390728476821	-5.29218543046358	4.45403973509934				0.901827814569536	-0.0972715231788079	-0.0399470198675496	10.367417218543	-1.53350993377483	3.15973509933775				0.784529801324503	-0.192529801324503	-0.565721854304636	3.60291390728477	6.9035761589404	-1.17562913907285				0.916026490066225	0.00349668874172187	0.373933774834437	15.3517880794702	-0.228079470198675	5.54251655629139				0.463788079470199	-0.526834437086093	-0.692238410596026	15.1403973509934	-14.6823841059603	-7.75470198675497			
169	3380	0.919841059602649	0.0507549668874172	-0.103523178807947	10.6733774834437	14.6953642384106	-2.02490066225166				0.800953642384106	-0.0482119205298013	0.621139072847682	3.79390728476821	3.10781456953642	3.33403973509934				0.901827814569536	-0.0492715231788079	-0.0399470198675496	7.28741721854305	-0.413509933774833	2.31973509933775				0.752529801324503	-0.0965298013245033	-0.533721854304636	11.1629139072848	15.5835761589404	-2.29562913907285				0.932026490066225	0.00349668874172187	0.469933774834437	13.9517880794702	1.45192052980132	4.14251655629139				0.415788079470199	-0.510834437086093	-0.612238410596026	12.9003973509934	-9.92238410596027	-9.71470198675497			
170	3400	0.967841059602649	0.00275496688741723	-0.103523178807947	12.9133774834437	16.0953642384106	-1.74490066225166				0.896953642384106	-0.160211920529801	0.557139072847682	14.9939072847682	-7.81218543046358	10.3340397350993				0.981827814569536	-0.0972715231788079	-0.0559470198675496	6.44741721854305	2.94649006622517	0.63973509933775				0.800529801324503	-0.0645298013245033	-0.517721854304636	22.6429139072848	12.7835761589404	-6.49562913907285				0.932026490066225	-0.0605033112582781	0.485933774834437	-6.2082119205298	-4.42807947019868	2.74251655629139				0.415788079470199	-0.558834437086093	-0.644238410596026	13.1803973509934	4.35761589403974	-7.75470198675497			
171	3420	0.951841059602649	0.00275496688741723	-0.135523178807947	1.71337748344371	9.9353642384106	-1.46490066225166				0.816953642384106	-0.144211920529801	0.557139072847682	-0.686092715231788	-13.4121854304636	2.77403973509934				0.981827814569536	-0.145271523178808	-0.0239470198675496	1.68741721854305	7.14649006622517	-0.20026490066225				0.880529801324503	-0.176529801324503	-0.565721854304636	33.0029139072848	9.4235761589404	-7.89562913907285				0.916026490066225	0.00349668874172187	0.373933774834437	-9.5682119205298	-5.82807947019868	1.06251655629139				0.495788079470199	-0.590834437086093	-0.708238410596026	8.42039735099338	-3.76238410596027	-1.87470198675497			
172	3440	0.935841059602649	0.0827549668874172	-0.215523178807947	-5.56662251655629	10.7753642384106	-0.0649006622516557				0.784953642384106	0.0317880794701987	0.557139072847682	-6.84609271523179	-6.41218543046358	-5.06596026490066				0.901827814569536	-0.0812715231788079	-0.00794701986754963	-1.11258278145695	4.34649006622517	-1.60026490066225				0.848529801324503	-0.256529801324503	-0.629721854304636	32.1629139072848	8.0235761589404	-5.09562913907285				0.916026490066225	0.0514966887417219	0.325933774834437	6.1117880794702	-1.62807947019868	3.58251655629139				0.495788079470199	-0.510834437086093	-0.676238410596026	11.2203973509934	-16.0823841059603	2.32529801324503			
173	3460	0.967841059602649	0.114754966887417	-0.167523178807947	-1.92662251655629	11.6153642384106	0.775099337748344				0.864953642384106	-0.0642119205298013	0.589139072847682	9.95390728476821	-2.77218543046358	4.73403973509934				0.917827814569536	-0.0492715231788079	-0.0559470198675496	0.847417218543046	4.34649006622517	-0.20026490066225				0.784529801324503	-0.176529801324503	-0.645721854304636	5.28291390728477	-1.7764238410596	-7.89562913907285				0.836026490066225	0.0194966887417219	0.437933774834437	9.1917880794702	-2.46807947019868	3.30251655629139				0.447788079470199	-0.446834437086093	-0.596238410596026	18.2203973509934	-6.56238410596027	2.32529801324503			
174	3480	0.983841059602649	0.0827549668874172	-0.135523178807947	2.83337748344371	8.5353642384106	-1.18490066225166				0.832953642384106	-0.128211920529801	0.573139072847682	18.6339072847682	-10.3321854304636	6.97403973509934				0.997827814569536	-0.0972715231788079	-0.0879470198675496	4.20741721854305	5.74649006622517	2.03973509933775				0.768529801324503	-0.160529801324503	-0.549721854304636	-11.2370860927152	-13.2564238410596	-8.73562913907285				0.852026490066225	-0.0125033112582781	0.389933774834437	1.9117880794702	-3.30807947019868	2.18251655629139				0.447788079470199	-0.494834437086093	-0.612238410596026	18.2203973509934	2.95761589403974	-0.474701986754968			
175	3500	0.935841059602649	0.0827549668874172	-0.055523178807947	-0.526622516556291	0.695364238410596	1.61509933774834				0.768953642384106	-0.0322119205298013	0.589139072847682	5.47390728476821	-9.77218543046358	0.81403973509934				0.965827814569536	-0.0972715231788079	-0.0559470198675496	0.567417218543046	6.58649006622517	1.19973509933775				0.752529801324503	-0.160529801324503	-0.533721854304636	0.802913907284768	-5.9764238410596	-1.17562913907285				0.932026490066225	0.0514966887417219	0.325933774834437	6.3917880794702	0.0519205298013249	3.02251655629139				0.479788079470199	-0.542834437086093	-0.644238410596026	11.7803973509934	-1.24238410596026	-3.83470198675497			
176	3520	0.903841059602649	0.114754966887417	-0.023523178807947	-1.08662251655629	-2.3846357615894	3.57509933774835				0.832953642384106	-0.000211920529801304	0.573139072847682	4.91390728476821	-4.17218543046358	-0.86596026490066				0.965827814569536	-0.0972715231788079	-0.0719470198675496	1.12741721854305	6.58649006622517	0.91973509933775				0.720529801324503	-0.128529801324503	-0.597721854304636	14.8029139072848	2.1435761589404	2.18437086092715				0.916026490066225	0.0194966887417219	0.373933774834437	9.4717880794702	-1.34807947019868	2.74251655629139				0.479788079470199	-0.478834437086093	-0.644238410596026	7.58039735099338	0.717615894039735	-4.67470198675497			
177	3540	0.951841059602649	0.0667549668874172	-0.039523178807947	3.11337748344371	1.8153642384106	1.33509933774834				0.896953642384106	-0.0962119205298013	0.541139072847682	5.75390728476821	-7.53218543046358	6.69403973509934				1.04582781456954	-0.0972715231788079	-0.0559470198675496	1.68741721854305	5.18649006622517	1.47973509933775				0.720529801324503	-0.128529801324503	-0.629721854304636	13.1229139072848	1.3035761589404	-2.57562913907285				0.852026490066225	-0.0285033112582781	0.405933774834437	3.0317880794702	-3.30807947019868	0.502516556291392				0.463788079470199	-0.494834437086093	-0.660238410596027	3.94039735099338	4.35761589403974	-2.15470198675497			
