No	Time	12-AccX	12-AccY	12-AccZ	12-GyroX	12-GyroY	12-GyroZ	13-AccX	13-AccY	13-AccZ	13-GyroX	13-GyroY	13-GyroZ	14-AccX	14-AccY	14-AccZ	14-GyroX	14-GyroY	14-GyroZ	15-AccX	15-AccY	15-AccZ	15-GyroX	15-GyroY	15-GyroZ	16-AccX	16-AccY	16-AccZ	16-GyroX	16-GyroY	16-GyroZ	17-AccX	17-AccY	17-AccZ	17-GyroX	17-GyroY	17-GyroZ
0	0	0	0	0	0	0	0				0.976953642384106	0.143788079470199	-0.0988609271523179	0.993907284768212	-5.85218543046358	1.09403973509934				-0.202172185430464	-0.129271523178808	-0.88794701986755	0.00741721854304636	-0.133509933774833	-1.04026490066225				0	0	0	0	0	0				0.964026490066225	0.0994966887417219	0.00593377483443711	2.7517880794702	-2.46807947019868	1.06251655629139				0.287788079470199	-0.0788344370860927	-0.884238410596026	1.70039735099338	-4.88238410596027	-4.39470198675497			
1	20	-0.200158940397351	0.194754966887417	-0.919523178807947	1.71337748344371	-0.144635761589404	-0.344900662251656				0.976953642384106	0.143788079470199	-0.114860927152318	4.07390728476821	-5.29218543046358	1.65403973509934				-0.202172185430464	-0.129271523178808	-0.88794701986755	-0.552582781456954	0.426490066225167	-0.48026490066225				0.112529801324503	-0.0805298013245033	-0.981721854304636	-2.83708609271523	-16.0564238410596	6.66437086092715				0.964026490066225	0.115496688741722	0.0219337748344371	2.1917880794702	0.0519205298013249	0.222516556291392				0.287788079470199	-0.0788344370860927	-0.884238410596026	3.38039735099338	-3.48238410596027	-6.07470198675497			
2	40	-0.216158940397351	0.194754966887417	-0.935523178807947	0.593377483443709	-0.144635761589404	-0.624900662251656				0.960953642384106	0.127788079470199	-0.114860927152318	5.75390728476821	-0.812185430463576	1.65403973509934				-0.202172185430464	-0.129271523178808	-0.88794701986755	0.847417218543046	1.26649006622517	0.35973509933775				0.112529801324503	-0.0965298013245033	-0.981721854304636	-5.63708609271523	-13.5364238410596	5.26437086092715				0.948026490066225	0.131496688741722	0.00593377483443711	3.0317880794702	0.611920529801325	0.502516556291392				0.271788079470199	-0.0628344370860927	-0.884238410596026	2.82039735099338	-2.64238410596027	-7.19470198675497			
3	60	-0.216158940397351	0.210754966887417	-0.935523178807947	1.43337748344371	0.695364238410596	-0.624900662251656				0.976953642384106	0.127788079470199	-0.0988609271523179	3.79390728476821	1.70781456953642	2.77403973509934				-0.202172185430464	-0.129271523178808	-0.88794701986755	0.847417218543046	0.986490066225167	0.63973509933775				0.112529801324503	-0.0805298013245033	-0.965721854304636	-9.83708609271523	-9.8964238410596	3.02437086092715				0.948026490066225	0.115496688741722	0.00593377483443711	4.1517880794702	2.57192052980133	-1.45748344370861				0.271788079470199	-0.0628344370860927	-0.884238410596026	3.38039735099338	-1.52238410596026	-9.71470198675497			
4	80	-0.184158940397351	0.194754966887417	-0.935523178807947	1.43337748344371	0.415364238410596	-1.46490066225166				0.960953642384106	0.111788079470199	-0.114860927152318	2.67390728476821	1.70781456953642	2.77403973509934				-0.186172185430464	-0.129271523178808	-0.88794701986755	1.96741721854305	0.146490066225167	-0.48026490066225				0.0805298013245033	-0.0485298013245033	-0.933721854304636	-13.4770860927152	-4.8564238410596	1.34437086092715				0.948026490066225	0.115496688741722	0.0219337748344371	3.5917880794702	2.57192052980133	-1.45748344370861				0.271788079470199	-0.0788344370860927	-0.884238410596026	4.78039735099338	-0.402384105960265	-10.554701986755			
5	100	-0.184158940397351	0.178754966887417	-0.919523178807947	0.873377483443709	-0.424635761589404	-1.18490066225166				0.944953642384106	0.111788079470199	-0.114860927152318	2.11390728476821	2.26781456953642	3.33403973509934				-0.186172185430464	-0.129271523178808	-0.88794701986755	0.567417218543046	0.706490066225167	-0.20026490066225				0.0805298013245033	-0.0325298013245033	-0.901721854304636	-8.99708609271523	1.3035761589404	-0.335629139072848				0.964026490066225	0.0994966887417219	0.00593377483443711	2.7517880794702	2.01192052980133	-1.17748344370861				0.287788079470199	-0.0948344370860927	-0.868238410596026	4.22039735099338	1.27761589403974	-11.394701986755			
6	120	-0.200158940397351	0.194754966887417	-0.919523178807947	1.15337748344371	-0.144635761589404	-1.74490066225166				0.944953642384106	0.111788079470199	-0.114860927152318	1.55390728476821	5.34781456953642	3.61403973509934				-0.202172185430464	-0.129271523178808	-0.87194701986755	0.847417218543046	0.426490066225167	-0.48026490066225				0.0805298013245033	-0.0325298013245033	-0.885721854304636	0.522913907284768	5.7835761589404	-1.45562913907285				0.932026490066225	0.0994966887417219	0.0219337748344371	5.2717880794702	2.01192052980133	-1.73748344370861				0.271788079470199	-0.0788344370860927	-0.868238410596026	4.78039735099338	2.95761589403974	-10.834701986755			
7	140	-0.216158940397351	0.178754966887417	-0.935523178807947	1.15337748344371	-0.984635761589404	-2.02490066225166				0.944953642384106	0.111788079470199	-0.130860927152318	0.433907284768212	9.54781456953642	3.33403973509934				-0.202172185430464	-0.129271523178808	-0.90394701986755	0.567417218543046	-0.413509933774833	-0.48026490066225				0.0805298013245033	-0.0485298013245033	-0.885721854304636	2.76291390728477	12.5035761589404	-2.57562913907285				0.932026490066225	0.115496688741722	0.0219337748344371	4.1517880794702	2.29192052980133	-0.0574834437086077				0.271788079470199	-0.0948344370860927	-0.868238410596026	5.34039735099338	4.35761589403974	-9.99470198675497			
8	160	-0.216158940397351	0.194754966887417	-0.935523178807947	0.593377483443709	-0.704635761589404	-2.30490066225166				0.976953642384106	0.111788079470199	-0.114860927152318	-0.686092715231788	13.7478145695364	2.77403973509934				-0.202172185430464	-0.129271523178808	-0.88794701986755	2.24741721854305	-0.133509933774833	-0.76026490066225				0.0805298013245033	-0.0325298013245033	-0.917721854304636	3.88291390728477	16.9835761589404	-2.01562913907285				0.932026490066225	0.115496688741722	0.0379337748344371	4.4317880794702	5.09192052980133	1.06251655629139				0.271788079470199	-0.0948344370860927	-0.884238410596026	5.62039735099338	5.75761589403974	-9.99470198675497			
9	180	-0.216158940397351	0.178754966887417	-0.935523178807947	0.873377483443709	0.135364238410596	-1.18490066225166				0.976953642384106	0.111788079470199	-0.0988609271523179	-0.126092715231788	14.5878145695364	2.21403973509934				-0.202172185430464	-0.129271523178808	-0.88794701986755	1.40741721854305	0.426490066225167	-0.76026490066225				0.0805298013245033	-0.0645298013245033	-0.933721854304636	7.80291390728477	17.5435761589404	-1.17562913907285				0.948026490066225	0.115496688741722	0.0379337748344371	4.1517880794702	7.33192052980133	0.502516556291392				0.303788079470199	-0.0948344370860927	-0.868238410596026	6.46039735099338	7.99761589403974	-9.43470198675497			
10	200	-0.216158940397351	0.178754966887417	-0.919523178807947	1.71337748344371	0.415364238410596	-1.18490066225166				0.976953642384106	0.127788079470199	-0.0988609271523179	2.39390728476821	13.7478145695364	1.93403973509934				-0.202172185430464	-0.129271523178808	-0.88794701986755	1.12741721854305	1.26649006622517	-0.20026490066225				0.128529801324503	-0.0965298013245033	-0.965721854304636	11.4429139072848	19.2235761589404	-1.45562913907285				0.964026490066225	0.0994966887417219	0.0379337748344371	4.4317880794702	10.6919205298013	0.222516556291392				0.319788079470199	-0.0948344370860927	-0.884238410596026	7.30039735099338	8.83761589403974	-9.99470198675497			
11	220	-0.216158940397351	0.162754966887417	-0.935523178807947	0.0333774834437086	0.415364238410596	-0.904900662251656				0.992953642384106	0.111788079470199	-0.114860927152318	5.47390728476821	10.1078145695364	3.05403973509934				-0.202172185430464	-0.145271523178808	-0.88794701986755	2.80741721854305	-0.693509933774834	-0.20026490066225				0.160529801324503	-0.0965298013245033	-0.997721854304636	7.24291390728477	18.6635761589404	-1.45562913907285				0.996026490066225	0.0834966887417219	0.0219337748344371	2.1917880794702	8.17192052980133	0.782516556291392				0.335788079470199	-0.110834437086093	-0.900238410596026	9.82039735099338	9.11761589403974	-11.394701986755			
12	240	-0.216158940397351	0.178754966887417	-0.935523178807947	-0.246622516556291	-0.144635761589404	-1.18490066225166				0.992953642384106	0.0797880794701987	-0.114860927152318	7.15390728476821	9.54781456953642	3.33403973509934				-0.202172185430464	-0.145271523178808	-0.90394701986755	3.36741721854305	-0.133509933774833	-0.76026490066225				0.176529801324503	-0.0805298013245033	-0.997721854304636	2.20291390728477	16.9835761589404	-0.335629139072848				0.980026490066225	0.0994966887417219	0.0379337748344371	1.0717880794702	7.33192052980133	0.222516556291392				0.335788079470199	-0.110834437086093	-0.900238410596026	10.9403973509934	8.83761589403974	-13.354701986755			
13	260	-0.200158940397351	0.178754966887417	-0.935523178807947	0.313377483443709	0.135364238410596	-1.18490066225166				0.960953642384106	0.111788079470199	-0.0828609271523179	3.23390728476821	13.4678145695364	3.05403973509934				-0.202172185430464	-0.145271523178808	-0.90394701986755	3.36741721854305	1.26649006622517	-0.20026490066225				0.160529801324503	-0.0965298013245033	-0.997721854304636	2.20291390728477	14.1835761589404	-0.335629139072848				0.964026490066225	0.115496688741722	0.0539337748344371	1.6317880794702	8.17192052980133	-0.337483443708608				0.335788079470199	-0.0948344370860927	-0.900238410596026	10.1003973509934	7.71761589403974	-13.634701986755			
14	280	-0.184158940397351	0.178754966887417	-0.935523178807947	0.593377483443709	1.5353642384106	-1.18490066225166				0.960953642384106	0.111788079470199	-0.0668609271523178	-2.36609271523179	16.2678145695364	3.05403973509934				-0.170172185430464	-0.129271523178808	-0.88794701986755	3.08741721854305	1.54649006622517	-0.76026490066225				0.144529801324503	-0.112529801324503	-0.981721854304636	-0.877086092715232	12.5035761589404	-1.17562913907285				0.964026490066225	0.0994966887417219	0.0219337748344371	-0.608211920529802	9.01192052980133	-0.897483443708608				0.335788079470199	-0.110834437086093	-0.900238410596026	12.0603973509934	7.15761589403974	-11.954701986755			
15	300	-0.216158940397351	0.194754966887417	-0.935523178807947	1.15337748344371	1.8153642384106	-0.344900662251656				0.992953642384106	0.0957880794701987	-0.0668609271523178	-0.966092715231788	12.0678145695364	3.33403973509934				-0.202172185430464	-0.145271523178808	-0.88794701986755	2.80741721854305	0.986490066225167	0.63973509933775				0.160529801324503	-0.0805298013245033	-0.981721854304636	-5.07708609271523	11.6635761589404	-0.895629139072848				0.980026490066225	0.0994966887417219	0.0539337748344371	2.7517880794702	9.85192052980133	-0.337483443708608				0.335788079470199	-0.126834437086093	-0.900238410596026	10.3803973509934	6.87761589403974	-10.834701986755			
16	320	-0.216158940397351	0.178754966887417	-0.935523178807947	1.71337748344371	1.2553642384106	-0.0649006622516557				0.992953642384106	0.0957880794701987	-0.0828609271523179	-0.966092715231788	11.2278145695364	2.49403973509934				-0.218172185430464	-0.145271523178808	-0.90394701986755	1.40741721854305	2.38649006622517	-0.20026490066225				0.160529801324503	-0.0805298013245033	-0.997721854304636	-5.35708609271523	10.5435761589404	-0.0556291390728476				0.996026490066225	0.115496688741722	0.0539337748344371	-0.0482119205298018	8.45192052980133	-0.617483443708608				0.335788079470199	-0.126834437086093	-0.916238410596027	8.70039735099338	6.87761589403974	-10.274701986755			
17	340	-0.216158940397351	0.178754966887417	-0.935523178807947	1.43337748344371	2.0953642384106	-1.46490066225166				0.976953642384106	0.143788079470199	-0.0988609271523179	-3.48609271523179	8.98781456953643	0.81403973509934				-0.202172185430464	-0.145271523178808	-0.90394701986755	1.40741721854305	2.10649006622517	0.0797350993377501				0.144529801324503	-0.0645298013245033	-0.949721854304636	-7.03708609271523	9.9835761589404	-0.0556291390728476				0.980026490066225	0.115496688741722	0.0219337748344371	-0.888211920529802	7.33192052980133	-0.0574834437086077				0.319788079470199	-0.126834437086093	-0.900238410596026	7.30039735099338	6.31761589403974	-8.87470198675497			
18	360	-0.216158940397351	0.162754966887417	-0.935523178807947	-0.526622516556291	2.6553642384106	0.215099337748344				0.976953642384106	0.127788079470199	-0.114860927152318	-0.126092715231788	8.42781456953642	3.05403973509934				-0.202172185430464	-0.129271523178808	-0.87194701986755	3.36741721854305	1.82649006622517	0.35973509933775				0.144529801324503	-0.0645298013245033	-0.949721854304636	-3.67708609271523	8.5835761589404	-0.335629139072848				0.964026490066225	0.0994966887417219	0.0379337748344371	-1.7282119205298	7.61192052980133	0.502516556291392				0.335788079470199	-0.110834437086093	-0.884238410596026	8.98039735099338	5.47761589403974	-8.87470198675497			
19	380	-0.200158940397351	0.162754966887417	-0.935523178807947	-0.526622516556291	2.6553642384106	0.215099337748344				0.976953642384106	0.0637880794701987	-0.0988609271523179	-0.686092715231788	8.98781456953643	5.01403973509934				-0.202172185430464	-0.145271523178808	-0.88794701986755	4.76741721854305	2.10649006622517	-0.20026490066225				0.176529801324503	-0.0645298013245033	-0.981721854304636	1.64291390728477	7.1835761589404	-2.57562913907285				0.980026490066225	0.0994966887417219	0.0539337748344371	-1.1682119205298	7.05192052980133	-1.17748344370861				0.335788079470199	-0.110834437086093	-0.900238410596026	9.26039735099338	5.47761589403974	-7.47470198675497			
20	400	-0.232158940397351	0.146754966887417	-0.919523178807947	-1.08662251655629	2.3753642384106	-0.624900662251656				0.976953642384106	0.0957880794701987	-0.0988609271523179	-8.80609271523179	11.5078145695364	4.73403973509934				-0.202172185430464	-0.145271523178808	-0.90394701986755	4.48741721854305	3.78649006622517	-1.60026490066225				0.192529801324503	-0.0805298013245033	-0.997721854304636	0.522913907284768	6.0635761589404	-2.01562913907285				0.996026490066225	0.115496688741722	0.0379337748344371	-1.7282119205298	4.25192052980133	-0.0574834437086077				0.351788079470199	-0.142834437086093	-0.900238410596026	8.14039735099338	4.91761589403974	-5.23470198675497			
21	420	-0.216158940397351	0.162754966887417	-0.935523178807947	-1.92662251655629	2.0953642384106	0.215099337748344				0.976953642384106	0.143788079470199	-0.114860927152318	-7.40609271523179	10.3878145695364	5.01403973509934				-0.202172185430464	-0.129271523178808	-0.88794701986755	4.48741721854305	1.82649006622517	-1.60026490066225				0.160529801324503	-0.0645298013245033	-0.981721854304636	-4.23708609271523	4.3835761589404	-3.69562913907285				0.996026490066225	0.131496688741722	0.00593377483443711	-4.2482119205298	1.45192052980132	1.62251655629139				0.351788079470199	-0.126834437086093	-0.900238410596026	5.34039735099338	4.35761589403974	-4.39470198675497			
22	440	-0.200158940397351	0.178754966887417	-0.935523178807947	-7.24662251655629	2.6553642384106	2.45509933774835				0.944953642384106	0.127788079470199	-0.146860927152318	-4.04609271523179	3.10781456953642	7.81403973509934				-0.202172185430464	-0.129271523178808	-0.87194701986755	4.48741721854305	1.54649006622517	-0.76026490066225				0.144529801324503	-0.0485298013245033	-0.981721854304636	-3.95708609271523	1.0235761589404	-4.25562913907285				0.964026490066225	0.131496688741722	0.0219337748344371	-1.7282119205298	2.29192052980133	0.502516556291392				0.319788079470199	-0.110834437086093	-0.900238410596026	1.42039735099338	1.83761589403974	-1.31470198675497			
23	460	-0.216158940397351	0.178754966887417	-0.919523178807947	-5.00662251655629	2.0953642384106	3.57509933774835				0.960953642384106	0.111788079470199	-0.0988609271523179	-5.44609271523179	1.14781456953642	8.65403973509934				-0.218172185430464	-0.129271523178808	-0.88794701986755	6.72741721854305	2.38649006622517	-1.60026490066225				0.144529801324503	-0.0805298013245033	-0.965721854304636	-2.83708609271523	0.7435761589404	-4.25562913907285				0.980026490066225	0.131496688741722	0.00593377483443711	-2.0082119205298	-1.34807947019868	-0.0574834437086077				0.319788079470199	-0.0948344370860927	-0.900238410596026	1.14039735099338	0.717615894039735	-0.194701986754968			
24	480	-0.232158940397351	0.162754966887417	-0.935523178807947	-4.72662251655629	1.8153642384106	4.41509933774834				0.960953642384106	0.111788079470199	-0.0668609271523178	-6.84609271523179	-7.53218543046358	13.6940397350993				-0.218172185430464	-0.113271523178808	-0.90394701986755	7.56741721854305	2.94649006622517	-0.76026490066225				0.112529801324503	-0.0805298013245033	-0.933721854304636	-5.91708609271523	2.9835761589404	-5.09562913907285				0.964026490066225	0.115496688741722	-0.0100662251655629	-1.1682119205298	1.45192052980132	1.90251655629139				0.287788079470199	-0.0948344370860927	-0.916238410596027	4.50039735099338	0.157615894039735	2.04529801324503			
25	500	-0.216158940397351	0.162754966887417	-0.935523178807947	-7.52662251655629	2.3753642384106	6.09509933774834				1.00895364238411	0.0637880794701987	-0.146860927152318	-7.12609271523179	-10.6121854304636	13.9740397350993				-0.202172185430464	-0.145271523178808	-0.87194701986755	11.487417218543	1.82649006622517	-1.60026490066225				0.0805298013245033	-0.0965298013245033	-0.901721854304636	-8.71708609271523	6.6235761589404	-3.41562913907285				0.932026490066225	0.0994966887417219	0.00593377483443711	-2.0082119205298	2.85192052980133	2.46251655629139				0.255788079470199	-0.0948344370860927	-0.916238410596027	7.58039735099338	-0.682384105960265	2.04529801324503			
26	520	-0.216158940397351	0.178754966887417	-0.903523178807947	-8.36662251655629	2.3753642384106	6.65509933774834				0.976953642384106	0.0317880794701987	-0.0668609271523178	-7.96609271523179	-6.13218543046358	11.1740397350993				-0.202172185430464	-0.161271523178808	-0.88794701986755	11.207417218543	2.38649006622517	-3.28026490066225				0.0645298013245033	-0.0805298013245033	-0.901721854304636	-7.03708609271523	12.5035761589404	-2.29562913907285				0.932026490066225	0.0834966887417219	-0.0100662251655629	0.511788079470198	3.97192052980133	4.70251655629139				0.271788079470199	-0.0948344370860927	-0.916238410596027	5.62039735099338	-0.402384105960265	4.84529801324503			
27	540	-0.216158940397351	0.162754966887417	-0.903523178807947	-10.0466225165563	1.8153642384106	6.65509933774834				0.976953642384106	0.0317880794701987	-0.0348609271523178	-12.7260927152318	-15.6521854304636	10.6140397350993				-0.170172185430464	-0.161271523178808	-0.87194701986755	12.607417218543	1.82649006622517	-6.36026490066225				0.0325298013245033	-0.112529801324503	-0.901721854304636	-4.23708609271523	17.8235761589404	-0.0556291390728476				0.932026490066225	0.0514966887417219	-0.0260662251655629	-1.4482119205298	6.49192052980132	6.66251655629139				0.255788079470199	-0.126834437086093	-0.916238410596027	7.30039735099338	-0.122384105960265	7.92529801324503			
28	560	-0.184158940397351	0.178754966887417	-0.935523178807947	-10.3266225165563	2.0953642384106	6.65509933774834				0.896953642384106	0.0477880794701987	-0.114860927152318	-11.0460927152318	-15.0921854304636	10.0540397350993				-0.170172185430464	-0.161271523178808	-0.85594701986755	9.24741721854305	-0.973509933774833	-6.64026490066225				0.0325298013245033	-0.112529801324503	-0.901721854304636	1.64291390728477	20.9035761589404	1.06437086092715				0.916026490066225	0.0514966887417219	-0.0100662251655629	-2.5682119205298	9.85192052980133	5.82251655629139				0.223788079470199	-0.126834437086093	-0.884238410596026	7.30039735099338	3.51761589403974	13.245298013245			
29	580	-0.168158940397351	0.194754966887417	-0.967523178807947	-12.5666225165563	1.5353642384106	6.65509933774834				0.944953642384106	0.0637880794701987	-0.0828609271523179	-6.84609271523179	7.02781456953642	7.81403973509934				-0.186172185430464	-0.177271523178808	-0.87194701986755	10.367417218543	-0.693509933774834	-6.08026490066225				0.0485298013245033	-0.128529801324503	-0.917721854304636	7.52291390728477	24.8235761589404	-1.17562913907285				0.932026490066225	0.0514966887417219	-0.0100662251655629	-5.0882119205298	14.6119205298013	6.94251655629139				0.223788079470199	-0.110834437086093	-0.900238410596026	7.02039735099338	9.67761589403974	17.725298013245			
30	600	-0.168158940397351	0.194754966887417	-0.983523178807947	-14.5266225165563	0.415364238410596	8.33509933774834				0.944953642384106	0.0957880794701987	-0.114860927152318	0.993907284768212	12.6278145695364	7.25403973509934				-0.186172185430464	-0.193271523178808	-0.91994701986755	8.40741721854305	-0.413509933774833	-4.96026490066225				0.0965298013245033	-0.144529801324503	-0.949721854304636	6.96291390728477	30.4235761589404	-2.01562913907285				0.948026490066225	0.0514966887417219	-0.0100662251655629	-5.3682119205298	19.3719205298013	6.94251655629139				0.239788079470199	-0.110834437086093	-0.916238410596027	13.7403973509934	16.6776158940397	17.725298013245			
31	620	-0.168158940397351	0.210754966887417	-0.935523178807947	-13.6866225165563	2.3753642384106	8.33509933774834				0.896953642384106	0.0317880794701987	-0.0988609271523179	-3.76609271523179	17.3878145695364	8.37403973509934				-0.138172185430464	-0.193271523178808	-0.88794701986755	9.24741721854305	-0.413509933774833	-5.80026490066225				0.128529801324503	-0.128529801324503	-0.933721854304636	3.88291390728477	35.1835761589404	-1.73562913907285				0.948026490066225	0.0514966887417219	-0.0100662251655629	-4.8082119205298	22.4519205298013	6.10251655629139				0.223788079470199	-0.126834437086093	-0.900238410596026	22.1403973509934	20.8776158940397	18.845298013245			
32	640	-0.184158940397351	0.194754966887417	-0.903523178807947	-10.6066225165563	2.9353642384106	8.33509933774834				0.944953642384106	0.111788079470199	-0.0348609271523178	-12.1660927152318	30.5478145695364	5.29403973509934				-0.170172185430464	-0.193271523178808	-0.87194701986755	7.28741721854305	-2.93350993377483	-4.96026490066225				0.144529801324503	-0.144529801324503	-0.965721854304636	5.84291390728477	38.5435761589404	-4.53562913907285				0.932026490066225	0.0514966887417219	0.00593377483443711	-2.5682119205298	24.6919205298013	4.42251655629139				0.191788079470199	-0.126834437086093	-0.900238410596026	20.1803973509934	25.6376158940397	21.925298013245			
33	660	-0.216158940397351	0.226754966887417	-0.903523178807947	-9.20662251655629	1.5353642384106	8.05509933774835				0.992953642384106	0.0957880794701987	-0.00286092715231785	-8.52609271523179	39.2278145695364	5.29403973509934				-0.186172185430464	-0.193271523178808	-0.85594701986755	5.88741721854305	-2.65350993377483	-3.28026490066225				0.160529801324503	-0.176529801324503	-0.981721854304636	3.88291390728477	37.9835761589404	-6.49562913907285				0.900026490066225	0.0834966887417219	0.00593377483443711	-3.6882119205298	31.6919205298013	2.46251655629139				0.191788079470199	-0.110834437086093	-0.884238410596026	23.5403973509934	32.9176158940397	24.725298013245			
34	680	-0.152158940397351	0.258754966887417	-0.983523178807947	-10.6066225165563	1.5353642384106	8.89509933774834				0.944953642384106	0.0637880794701987	-0.0508609271523178	2.95390728476821	35.5878145695364	6.97403973509934				-0.218172185430464	-0.193271523178808	-0.87194701986755	6.16741721854305	-0.693509933774834	-0.76026490066225				0.192529801324503	-0.176529801324503	-1.01372185430464	-2.83708609271523	37.4235761589404	-10.6956291390728				0.900026490066225	0.0514966887417219	0.0219337748344371	-1.1682119205298	40.6519205298013	1.06251655629139				0.223788079470199	-0.110834437086093	-0.852238410596026	21.8603973509934	34.8776158940397	25.285298013245			
35	700	-0.184158940397351	0.274754966887417	-1.03152317880795	-14.2466225165563	0.135364238410596	9.45509933774835				0.928953642384106	0.0477880794701987	-0.114860927152318	-4.04609271523179	49.0278145695364	10.3340397350993				-0.234172185430464	-0.177271523178808	-0.91994701986755	7.84741721854305	-0.693509933774834	-0.48026490066225				0.192529801324503	-0.128529801324503	-0.997721854304636	-15.9970860927152	36.5835761589404	-14.0556291390728				0.948026490066225	0.0514966887417219	0.0699337748344371	1.9117880794702	47.0919205298013	-2.85748344370861				0.271788079470199	-0.110834437086093	-0.852238410596026	21.3003973509934	35.9976158940397	24.445298013245			
36	720	-0.184158940397351	0.258754966887417	-0.871523178807947	-11.4466225165563	4.8953642384106	6.37509933774834				1.02495364238411	0.0797880794701987	-0.0828609271523179	-9.36609271523179	54.0678145695364	9.49403973509934				-0.202172185430464	-0.193271523178808	-0.87194701986755	11.767417218543	3.22649006622517	-0.20026490066225				0.224529801324503	-0.144529801324503	-0.997721854304636	-17.3970860927152	36.8635761589404	-14.8956291390728				0.980026490066225	0.0834966887417219	0.0699337748344371	-0.608211920529802	45.6919205298013	-5.37748344370861				0.287788079470199	-0.142834437086093	-0.852238410596026	24.9403973509934	41.0376158940397	20.805298013245			
37	740	-0.184158940397351	0.242754966887417	-0.887523178807947	-0.526622516556291	3.7753642384106	6.09509933774834				0.976953642384106	0.0637880794701987	-0.0188609271523178	-16.9260927152318	59.6678145695364	4.45403973509934				-0.186172185430464	-0.193271523178808	-0.87194701986755	8.12741721854305	3.78649006622517	0.35973509933775				0.240529801324503	-0.128529801324503	-0.965721854304636	-20.1970860927152	39.1035761589404	-17.6956291390729				0.948026490066225	0.0834966887417219	0.0539337748344371	-3.6882119205298	44.5719205298013	-7.33748344370861				0.303788079470199	-0.158834437086093	-0.836238410596026	31.6603973509934	48.3176158940397	16.045298013245			
38	760	-0.200158940397351	0.258754966887417	-0.935523178807947	-5.84662251655629	2.0953642384106	6.37509933774834				0.912953642384106	0.0957880794701987	0.109139072847682	-20.2860927152318	85.9878145695364	2.77403973509934				-0.138172185430464	-0.177271523178808	-0.87194701986755	5.88741721854305	4.06649006622517	0.35973509933775				0.208529801324503	-0.0805298013245033	-0.917721854304636	-27.4770860927152	39.6635761589404	-18.8156291390729				0.884026490066225	0.0514966887417219	0.0859337748344371	-0.888211920529802	47.9319205298013	-9.29748344370861				0.303788079470199	-0.158834437086093	-0.820238410596026	30.8203973509934	51.1176158940397	14.925298013245			
39	780	-0.248158940397351	0.258754966887417	-0.951523178807947	-11.4466225165563	4.0553642384106	7.21509933774835				0.928953642384106	-0.0162119205298013	0.109139072847682	-11.8860927152318	78.7078145695364	15.0940397350993				-0.186172185430464	-0.177271523178808	-0.88794701986755	7.84741721854305	4.34649006622517	0.63973509933775				0.192529801324503	-0.0645298013245033	-0.853721854304636	-27.7570860927152	37.7035761589404	-21.0556291390728				0.916026490066225	0.0354966887417219	0.117933774834437	-2.8482119205298	52.9719205298013	-10.9774834437086				0.319788079470199	-0.174834437086093	-0.836238410596026	36.1403973509934	52.2376158940397	15.205298013245			
40	800	-0.248158940397351	0.242754966887417	-0.919523178807947	-11.7266225165563	7.6953642384106	6.37509933774834				1.00895364238411	0.0797880794701987	-0.130860927152318	-18.0460927152318	56.0278145695364	11.4540397350993				-0.250172185430464	-0.209271523178808	-0.88794701986755	10.087417218543	5.18649006622517	-0.20026490066225				0.208529801324503	-0.0325298013245033	-0.853721854304636	-21.8770860927152	39.6635761589404	-23.0156291390729				0.980026490066225	0.0354966887417219	0.149933774834437	-5.6482119205298	52.1319205298013	-11.2574834437086				0.383788079470199	-0.254834437086093	-0.804238410596027	38.1003973509934	48.5976158940397	14.365298013245			
41	820	-0.232158940397351	0.274754966887417	-0.903523178807947	-9.76662251655629	5.7353642384106	5.53509933774834				1.05695364238411	0.0637880794701987	-0.0828609271523179	-20.8460927152318	68.6278145695364	8.93403973509934				-0.282172185430464	-0.193271523178808	-0.87194701986755	7.84741721854305	8.26649006622517	0.35973509933775				0.272529801324503	0.0154701986754967	-0.853721854304636	-14.8770860927152	45.8235761589404	-21.6156291390729				0.980026490066225	0.0834966887417219	0.229933774834437	-6.4882119205298	51.2919205298013	-10.6974834437086				0.463788079470199	-0.318834437086093	-0.820238410596026	31.3803973509934	48.3176158940397	15.485298013245			
42	840	-0.184158940397351	0.274754966887417	-0.951523178807947	-13.4066225165563	6.5753642384106	8.05509933774835				0.960953642384106	0.0477880794701987	0.205139072847682	-19.7260927152318	90.1878145695364	2.21403973509934				-0.250172185430464	-0.161271523178808	-0.88794701986755	5.32741721854305	9.10649006622517	1.19973509933775				0.336529801324503	-0.0325298013245033	-0.885721854304636	-6.75708609271523	53.1035761589404	-18.5356291390728				0.964026490066225	0.131496688741722	0.213933774834437	-7.3282119205298	49.6119205298013	-5.65748344370861				0.511788079470199	-0.334834437086093	-0.804238410596027	29.7003973509934	55.8776158940397	18.005298013245			
43	860	-0.184158940397351	0.242754966887417	-1.01552317880795	-14.8066225165563	6.2953642384106	13.0950993377483				0.896953642384106	0.175788079470199	0.301139072847682	4.07390728476821	84.3078145695364	-0.86596026490066				-0.250172185430464	-0.129271523178808	-0.87194701986755	8.96741721854305	6.86649006622517	1.47973509933775				0.368529801324503	-0.0325298013245033	-0.869721854304636	-10.1170860927152	54.7835761589404	-16.2956291390729				0.900026490066225	0.147496688741722	0.197933774834437	-4.5282119205298	51.0119205298013	-3.41748344370861				0.447788079470199	-0.286834437086093	-0.772238410596026	21.3003973509934	54.4776158940397	23.885298013245			
44	880	-0.248158940397351	0.178754966887417	-0.887523178807947	-14.5266225165563	9.9353642384106	17.5750993377483				1.02495364238411	0.0637880794701987	0.205139072847682	10.7939072847682	75.3478145695364	8.37403973509934				-0.234172185430464	-0.113271523178808	-0.88794701986755	15.687417218543	8.54649006622517	0.35973509933775				0.432529801324503	0.0314701986754967	-0.853721854304636	-9.83708609271523	55.3435761589404	-14.0556291390728				0.916026490066225	0.163496688741722	0.309933774834437	3.0317880794702	55.7719205298013	-5.93748344370861				0.399788079470199	-0.286834437086093	-0.708238410596026	20.4603973509934	47.7576158940397	27.525298013245			
45	900	-0.296158940397351	0.210754966887417	-0.903523178807947	-20.9666225165563	13.2953642384106	17.5750993377483				1.04095364238411	0.0317880794701987	0.221139072847682	-4.88609271523179	53.5078145695364	5.01403973509934				-0.202172185430464	-0.193271523178808	-0.91994701986755	24.087417218543	12.7464900662252	-3.28026490066225				0.496529801324503	0.0154701986754967	-0.901721854304636	-4.79708609271523	60.1035761589404	-14.6156291390728				0.916026490066225	0.115496688741722	0.341933774834437	2.4717880794702	53.8119205298013	-7.33748344370861				0.463788079470199	-0.270834437086093	-0.740238410596026	15.4203973509934	46.6376158940397	25.285298013245			
46	920	-0.216158940397351	0.274754966887417	-0.887523178807947	-26.2866225165563	17.7753642384106	15.6150993377483				0.960953642384106	0.0317880794701987	0.269139072847682	-5.72609271523179	55.7478145695364	3.33403973509934				0	0	0	0	0	0				0.496529801324503	-0.000529801324503289	-0.869721854304636	-11.7970860927152	59.8235761589404	-17.9756291390729				0.852026490066225	0.115496688741722	0.357933774834437	1.0717880794702	52.4119205298013	-8.45748344370861				0.543788079470199	-0.318834437086093	-0.676238410596026	21.3003973509934	45.2376158940397	22.485298013245			
47	940	0	0	0	0	0	0				0.912953642384106	0.0637880794701987	0.349139072847682	4.63390728476821	61.3478145695364	8.65403973509934				-0.170172185430464	-0.209271523178808	-0.88794701986755	19.607417218543	18.9064900662252	-10.8402649006623				0.544529801324503	0.0474701986754967	-0.821721854304636	-19.9170860927152	55.6235761589404	-17.6956291390729				0.868026490066225	0.131496688741722	0.421933774834437	4.9917880794702	55.4919205298013	-9.29748344370861				0.575788079470199	-0.366834437086093	-0.612238410596026	23.8203973509934	45.7976158940397	16.605298013245			
48	960	-0.120158940397351	0.418754966887417	-0.967523178807947	-21.8066225165563	20.8553642384106	13.9350993377483				0.960953642384106	0.0317880794701987	0.365139072847682	4.63390728476821	67.2278145695364	12.2940397350993				-0.154172185430464	-0.193271523178808	-0.85594701986755	23.807417218543	12.1864900662252	-10.0002649006623				0.608529801324503	0.111470198675497	-0.805721854304636	-18.5170860927152	48.9035761589404	-14.3356291390729				0.916026490066225	0.147496688741722	0.501933774834437	8.3517880794702	49.6119205298013	-10.1374834437086				0.607788079470199	-0.366834437086093	-0.628238410596026	19.0603973509934	45.5176158940397	10.445298013245			
49	980	-0.152158940397351	0.450754966887417	-0.983523178807947	-19.2866225165563	21.6953642384106	12.5350993377483				0.992953642384106	0.0317880794701987	0.381139072847682	-1.52609271523179	56.8678145695364	8.93403973509934				-0.154172185430464	-0.225271523178808	-0.88794701986755	26.607417218543	11.9064900662252	-7.76026490066225				0.624529801324503	0.0794701986754967	-0.837721854304636	-10.6770860927152	44.1435761589404	-12.0956291390728				0.916026490066225	0.163496688741722	0.469933774834437	4.4317880794702	40.9319205298013	-9.29748344370861				0.623788079470199	-0.366834437086093	-0.676238410596026	12.3403973509934	46.9176158940397	4.00529801324503			
50	1000	-0.120158940397351	0.402754966887417	-0.839523178807947	-11.7266225165563	20.0153642384106	11.6950993377483				0.928953642384106	0.0797880794701987	0.317139072847682	2.11390728476821	54.3478145695364	5.57403973509934				-0.122172185430464	-0.241271523178808	-0.90394701986755	25.4874172185431	9.38649006622517	-7.48026490066225				0.624529801324503	0.0474701986754967	-0.853721854304636	-10.9570860927152	39.1035761589404	-10.6956291390728				0.884026490066225	0.163496688741722	0.485933774834437	7.5117880794702	43.1719205298013	-8.73748344370861				0.623788079470199	-0.350834437086093	-0.676238410596026	12.9003973509934	45.5176158940397	-1.87470198675497			
51	1020	-0.152158940397351	0.370754966887417	-0.887523178807947	-9.48662251655629	22.5353642384106	10.8550993377483				0.992953642384106	0.0317880794701987	0.397139072847682	3.51390728476821	59.3878145695364	6.69403973509934				-0.154172185430464	-0.289271523178808	-0.93594701986755	26.8874172185431	13.8664900662252	-5.80026490066225				0.672529801324503	0.0794701986754967	-0.853721854304636	-14.0370860927152	34.6235761589404	-10.1356291390728				0.932026490066225	0.147496688741722	0.517933774834437	14.2317880794702	44.0119205298013	-9.29748344370861				0.655788079470199	-0.446834437086093	-0.660238410596027	23.2603973509934	39.9176158940397	-6.91470198675497			
52	1040	-0.168158940397351	0.370754966887417	-0.967523178807947	-7.80662251655629	26.7353642384106	9.73509933774834				1.08895364238411	-0.0482119205298013	0.685139072847682	5.75390728476821	60.7878145695364	7.53403973509934				-0.186172185430464	-0.353271523178808	-0.93594701986755	22.407417218543	18.6264900662252	-4.12026490066225				0.720529801324503	0.127470198675497	-0.869721854304636	-13.1970860927152	31.8235761589404	-9.85562913907285				0.980026490066225	0.131496688741722	0.597933774834437	15.3517880794702	43.7319205298013	-10.6974834437086				0.703788079470199	-0.542834437086093	-0.676238410596026	21.8603973509934	34.0376158940397	-7.47470198675497			
53	1060	-0.152158940397351	0.338754966887417	-0.935523178807947	-1.64662251655629	26.4553642384106	6.93509933774835				1.05695364238411	0.0797880794701987	0.557139072847682	9.11390728476821	51.8278145695364	1.37403973509934				-0.186172185430464	-0.337271523178808	-0.82394701986755	15.967417218543	22.5464900662252	-5.52026490066225				0.752529801324503	0.0954701986754967	-0.901721854304636	-5.91708609271523	32.3835761589404	-10.1356291390728				1.01202649006623	0.147496688741722	0.645933774834437	8.9117880794702	41.2119205298013	-13.7774834437086				0.751788079470199	-0.574834437086093	-0.676238410596026	11.7803973509934	36.5576158940397	-4.11470198675497			
54	1080	-0.200158940397351	0.306754966887417	-0.935523178807947	-5.28662251655629	29.5353642384106	7.21509933774835				1.07295364238411	0.0157880794701987	0.557139072847682	0.713907284768212	27.4678145695364	1.37403973509934				-0.266172185430464	-0.321271523178808	-0.93594701986755	6.72741721854305	25.9064900662252	-5.24026490066225				0.768529801324503	0.0634701986754967	-0.901721854304636	-10.6770860927152	34.0635761589404	-9.85562913907285				1.01202649006623	0.179496688741722	0.597933774834437	2.7517880794702	30.2919205298013	-13.4974834437086				0.767788079470199	-0.510834437086093	-0.692238410596026	-5.01960264900662	39.0776158940397	-4.39470198675497			
55	1100	-0.216158940397351	0.338754966887417	-0.935523178807947	0.313377483443709	34.0153642384106	7.21509933774835				1.02495364238411	-0.0642119205298013	0.541139072847682	0.433907284768212	36.4278145695364	1.93403973509934				-0.234172185430464	-0.321271523178808	-0.90394701986755	10.927417218543	34.0264900662252	-7.48026490066225				0.752529801324503	0.111470198675497	-0.821721854304636	-25.7970860927152	34.3435761589404	-9.57562913907285				0.964026490066225	0.179496688741722	0.613933774834437	6.1117880794702	28.0519205298013	-9.85748344370861				0.767788079470199	-0.478834437086093	-0.644238410596026	-7.81960264900662	34.0376158940397	-0.754701986754968			
56	1120	-0.184158940397351	0.402754966887417	-0.919523178807947	-3.88662251655629	35.9753642384106	7.49509933774834				1.08895364238411	-0.0482119205298013	0.605139072847682	11.6339072847682	35.8678145695364	0.53403973509934				-0.218172185430464	-0.337271523178808	-0.87194701986755	1.12741721854305	34.5864900662252	-10.0002649006623				0.720529801324503	0.207470198675497	-0.757721854304636	-29.1570860927152	37.1435761589404	-9.01562913907285				0.980026490066225	0.195496688741722	0.645933774834437	7.5117880794702	33.0919205298013	-8.17748344370861				0.751788079470199	-0.510834437086093	-0.644238410596026	-8.93960264900662	35.4376158940397	-0.194701986754968			
57	1140	-0.136158940397351	0.322754966887417	-0.919523178807947	4.79337748344371	42.6953642384106	6.65509933774834				1.04095364238411	0.111788079470199	0.445139072847682	16.9539072847682	15.4278145695364	-4.50596026490066				-0.218172185430464	-0.289271523178808	-0.93594701986755	-9.51258278145695	40.4664900662252	-10.5602649006623				0.736529801324503	0.239470198675497	-0.757721854304636	-9.83708609271523	41.3435761589404	-9.01562913907285				0.980026490066225	0.195496688741722	0.645933774834437	8.9117880794702	26.3719205298013	-7.89748344370861				0.783788079470199	-0.510834437086093	-0.644238410596026	-14.2596026490066	35.1576158940397	-3.83470198675497			
58	1160	-0.120158940397351	0.370754966887417	-0.935523178807947	8.71337748344371	48.8553642384106	8.61509933774835				1.02495364238411	0.0157880794701987	0.525139072847682	23.3939072847682	15.7078145695364	-0.585960264900661				-0.138172185430464	-0.257271523178808	-0.82394701986755	-14.272582781457	49.1464900662252	-7.76026490066225				0.768529801324503	0.175470198675497	-0.821721854304636	10.3229139072848	45.5435761589404	-9.01562913907285				0.964026490066225	0.179496688741722	0.661933774834437	6.6717880794702	18.5319205298013	-7.89748344370861				0.783788079470199	-0.446834437086093	-0.660238410596027	-22.6596026490066	37.6776158940397	-10.554701986755			
59	1180	-0.072158940397351	0.418754966887417	-0.887523178807947	12.0733774834437	50.8153642384106	6.93509933774835				1.04095364238411	-0.000211920529801304	0.589139072847682	27.5939072847682	6.74781456953642	-3.10596026490066				-0.0741721854304636	-0.321271523178808	-0.74394701986755	-23.792582781457	97.8664900662252	-8.32026490066225				0.800529801324503	0.111470198675497	-0.837721854304636	15.3629139072848	45.5435761589404	-10.1356291390728				0.996026490066225	0.163496688741722	0.645933774834437	11.4317880794702	15.1719205298013	-6.21748344370861				0.751788079470199	-0.398834437086093	-0.660238410596027	-22.3796026490066	43.5576158940397	-19.234701986755			
60	1200	-0.104158940397351	0.386754966887417	-0.983523178807947	24.1133774834437	54.1753642384106	7.49509933774834				1.07295364238411	0.0157880794701987	0.637139072847682	21.9939072847682	4.22781456953642	-5.90596026490066				-0.0421721854304636	-0.257271523178808	-1.03194701986755	6.16741721854305	91.1464900662252	-10.5602649006623				0.832529801324503	0.0794701986754967	-0.885721854304636	12.0029139072848	44.9835761589404	-11.5356291390728				0.996026490066225	0.163496688741722	0.629933774834437	13.1117880794702	13.2119205298013	-8.45748344370861				0.735788079470199	-0.382834437086093	-0.660238410596027	-17.6196026490066	48.0376158940397	-29.594701986755			
61	1220	-0.024158940397351	0.322754966887417	-0.919523178807947	22.4333774834437	62.0153642384106	7.21509933774835				1.00895364238411	0.143788079470199	0.509139072847682	16.3939072847682	-8.37218543046358	-11.2259602649007				-0.266172185430464	-0.209271523178808	-1.09594701986755	-6.71258278145695	52.5064900662252	-11.4002649006623				0.848529801324503	0.0474701986754967	-0.885721854304636	7.24291390728477	41.3435761589404	-12.6556291390728				0.948026490066225	0.211496688741722	0.581933774834437	13.6717880794702	7.61192052980133	-11.8174834437086				0.783788079470199	-0.350834437086093	-0.628238410596026	-10.0596026490066	44.6776158940397	-39.954701986755			
62	1240	0.055841059602649	0.322754966887417	-0.887523178807947	16.2733774834437	64.8153642384106	10.0150993377483				1.04095364238411	0.175788079470199	0.493139072847682	21.4339072847682	-14.2521854304636	-8.42596026490066				0.149827814569536	-0.145271523178808	-0.90394701986755	-8.39258278145695	51.3864900662252	-7.48026490066225				0.832529801324503	0.0634701986754967	-0.933721854304636	2.76291390728477	35.4635761589404	-8.73562913907285				0.964026490066225	0.307496688741722	0.613933774834437	13.6717880794702	6.49192052980132	-14.6174834437086				0.799788079470199	-0.366834437086093	-0.676238410596026	-8.09960264900662	39.3576158940397	-44.434701986755			
63	1260	0.055841059602649	0.354754966887417	-0.983523178807947	21.3133774834437	64.5353642384106	13.0950993377483				1.07295364238411	0.207788079470199	0.493139072847682	33.7539072847682	-28.5321854304636	-5.62596026490066				0.0218278145695364	-0.241271523178808	-0.85594701986755	21.287417218543	72.1064900662252	-3.00026490066225				0.816529801324503	0.0954701986754967	-0.981721854304636	5.84291390728477	30.1435761589404	-5.37562913907285				1.09202649006623	0.275496688741722	0.517933774834437	15.6317880794702	0.331920529801325	-16.0174834437086				0.863788079470199	-0.398834437086093	-0.676238410596026	-19.2996026490066	32.6376158940397	-41.634701986755			
64	1280	0.055841059602649	0.338754966887417	-1.03152317880795	22.7133774834437	69.8553642384106	14.2150993377483				1.02495364238411	0.0957880794701987	0.381139072847682	33.4739072847682	-39.1721854304636	-3.10596026490066				0.213827814569536	-0.305271523178808	-1.19194701986755	29.6874172185431	54.1864900662252	-7.20026490066225				0.784529801324503	0.0794701986754967	-0.981721854304636	7.52291390728477	31.5435761589404	-6.77562913907285				1.12402649006623	0.227496688741722	0.485933774834437	16.1917880794702	-9.18807947019868	-19.3774834437086				0.911788079470199	-0.414834437086093	-0.708238410596026	-30.7796026490066	36.8376158940397	-37.154701986755			
65	1300	0.103841059602649	0.290754966887417	-0.999523178807947	28.0333774834437	74.6153642384106	15.8950993377483				1.10495364238411	0.111788079470199	0.477139072847682	21.1539072847682	-3.33218543046358	-8.70596026490066				0.0538278145695364	-0.289271523178808	-1.04794701986755	-5.31258278145695	27.8664900662252	-11.6802649006622				0.736529801324503	0.0314701986754967	-0.917721854304636	-5.07708609271523	30.4235761589404	-7.05562913907285				1.01202649006623	0.179496688741722	0.565933774834437	18.4317880794702	-9.74807947019868	-20.4974834437086				0.927788079470199	-0.334834437086093	-0.676238410596026	-40.8596026490066	37.9576158940397	-30.434701986755			
66	1320	0.071841059602649	0.226754966887417	-0.999523178807947	34.4733774834437	73.7753642384106	20.3750993377483				1.24895364238411	0.0637880794701987	0.669139072847682	14.4339072847682	2.26781456953642	-10.9459602649007				0.0858278145695364	-0.209271523178808	-0.83994701986755	-45.632582781457	31.7864900662252	-4.12026490066225				0.720529801324503	0.0314701986754967	-0.885721854304636	-18.7970860927152	28.1835761589404	-6.21562913907285				1.02802649006623	0.227496688741722	0.597933774834437	9.4717880794702	-8.62807947019868	-20.4974834437086				0.927788079470199	-0.286834437086093	-0.676238410596026	-45.6196026490066	36.2776158940397	-28.474701986755			
67	1340	0.087841059602649	0.242754966887417	-1.03152317880795	27.1933774834437	80.7753642384106	25.6950993377483				1.16895364238411	0.0957880794701987	0.493139072847682	7.71390728476821	-23.2121854304636	-15.7059602649007				0.197827814569536	-0.225271523178808	-0.83994701986755	19.0474172185431	65.6664900662252	-9.44026490066225				0.688529801324503	0.0794701986754967	-0.917721854304636	-13.7570860927152	30.9835761589404	-3.97562913907285				1.10802649006623	0.259496688741722	0.485933774834437	-0.328211920529802	-16.4680794701987	-23.2974834437086				0.943788079470199	-0.286834437086093	-0.644238410596026	-44.2196026490066	41.8776158940397	-31.834701986755			
68	1360	0.119841059602649	0.306754966887417	-1.06352317880795	36.9933774834437	86.6553642384106	31.2950993377483				1.10495364238411	0.0637880794701987	0.301139072847682	-10.7660927152318	-10.8921854304636	-18.7859602649007				0.0538278145695364	-0.321271523178808	-1.07994701986755	3.92741721854305	67.6264900662252	-9.44026490066225				0.704529801324503	0.127470198675497	-0.901721854304636	-1.99708609271523	45.8235761589404	2.18437086092715				1.04402649006623	0.291496688741722	0.453933774834437	-2.8482119205298	-15.3480794701987	-27.2174834437086				0.943788079470199	-0.222834437086093	-0.628238410596026	-36.9396026490066	45.2376158940397	-32.114701986755			
69	1380	0.199841059602649	0.258754966887417	-0.999523178807947	50.1533774834437	92.5353642384106	34.0950993377484				1.13695364238411	0.143788079470199	0.461139072847682	-23.3660927152318	17.6678145695364	-16.5459602649007				0.101827814569536	-0.289271523178808	-1.07994701986755	-30.512582781457	87.5064900662252	0.35973509933775				0.688529801324503	0.0154701986754967	-0.869721854304636	3.60291390728477	53.3835761589404	3.86437086092715				0.964026490066225	0.275496688741722	0.501933774834437	3.8717880794702	-10.3080794701987	-27.4974834437086				0.895788079470199	-0.158834437086093	-0.644238410596026	-38.0596026490066	45.5176158940397	-25.674701986755			
70	1400	0.327841059602649	0.194754966887417	-1.03152317880795	49.0333774834437	98.1353642384106	35.2150993377483				1.23295364238411	0.0957880794701987	0.557139072847682	-18.0460927152318	24.1078145695364	-14.5859602649007				0.133827814569536	-0.145271523178808	-1.01594701986755	-21.552582781457	98.1464900662252	3.71973509933775				0.672529801324503	0.0474701986754967	-0.821721854304636	1.08291390728477	56.7435761589404	4.42437086092715				1.01202649006623	0.259496688741722	0.533933774834437	-4.2482119205298	-6.66807947019868	-27.7774834437086				0.911788079470199	-0.190834437086093	-0.660238410596027	-42.2596026490066	44.3976158940397	-19.234701986755			
71	1420	0.311841059602649	0.226754966887417	-0.919523178807947	43.7133774834437	109.055364238411	33.2550993377483				1.08895364238411	0.207788079470199	0.477139072847682	-12.4460927152318	5.62781456953642	-23.5459602649007				0.389827814569536	-0.225271523178808	-0.64794701986755	9.24741721854305	111.586490066225	0.35973509933775				0.736529801324503	0.0954701986754967	-0.773721854304636	5.84291390728477	60.6635761589404	4.42437086092715				1.01202649006623	0.355496688741722	0.437933774834437	-18.2482119205298	-10.5880794701987	-29.4574834437086				0.943788079470199	-0.206834437086093	-0.660238410596027	-40.2996026490066	51.1176158940397	-20.914701986755			
72	1440	0.343841059602649	0.162754966887417	-0.999523178807947	50.1533774834437	102.055364238411	33.5350993377483				0.992953642384106	0.175788079470199	0.301139072847682	-11.0460927152318	1.98781456953642	-27.4659602649007				0.373827814569536	-0.417271523178808	-0.90394701986755	14.847417218543	108.226490066225	-7.48026490066225				0.784529801324503	0.0794701986754967	-0.677721854304636	10.0429139072848	69.3435761589404	3.30437086092715				0.964026490066225	0.339496688741722	0.389933774834437	-14.8882119205298	-12.5480794701987	-28.3374834437086				0.927788079470199	-0.110834437086093	-0.628238410596026	-43.3796026490066	55.8776158940397	-19.514701986755			
73	1460	0.439841059602649	0.0987549668874172	-0.887523178807947	44.5533774834437	109.895364238411	31.0150993377483				1.05695364238411	0.111788079470199	0.413139072847682	-13.2860927152318	9.82781456953643	-19.0659602649007				0.373827814569536	-0.433271523178808	-0.77594701986755	11.487417218543	113.546490066225	-6.64026490066225				0.736529801324503	0.0954701986754967	-0.693721854304636	15.6429139072848	73.8235761589404	-0.895629139072848				0.900026490066225	0.291496688741722	0.389933774834437	-15.1682119205298	-14.5080794701987	-26.6574834437086				0.879788079470199	-0.0788344370860927	-0.612238410596026	-34.9796026490066	56.7176158940397	-14.754701986755			
74	1480	0.471841059602649	0.0827549668874172	-0.855523178807947	43.9933774834437	118.015364238411	28.7750993377483				1.04095364238411	0.111788079470199	0.397139072847682	-8.52609271523179	7.30781456953642	-14.3059602649007				0.357827814569536	-0.497271523178808	-0.71194701986755	-0.552582781456954	118.026490066225	2.59973509933775				0.640529801324503	0.143470198675497	-0.613721854304636	10.8829139072848	76.3435761589404	0.504370860927152				0.852026490066225	0.291496688741722	0.469933774834437	-14.0482119205298	-11.1480794701987	-23.5774834437086				0.863788079470199	-0.0788344370860927	-0.628238410596026	-30.4996026490066	47.7576158940397	-11.954701986755			
75	1500	0.487841059602649	0.0187549668874172	-0.823523178807947	34.7533774834437	129.775364238411	25.4150993377483				1.04095364238411	0.0477880794701987	0.413139072847682	-4.88609271523179	19.3478145695364	-14.3059602649007				0.389827814569536	-0.417271523178808	-0.66394701986755	-5.31258278145695	126.146490066225	14.3597350993378				0.656529801324503	0.143470198675497	-0.597721854304636	10.3229139072848	71.0235761589404	-6.21562913907285				0.836026490066225	0.291496688741722	0.485933774834437	-23.8482119205298	-5.26807947019868	-21.3374834437086				0.911788079470199	-0.0468344370860927	-0.612238410596026	-21.8196026490066	32.9176158940397	-9.43470198675497			
76	1520	0.519841059602649	-0.0612450331125828	-0.855523178807947	35.5933774834437	124.735364238411	20.6550993377483				0.912953642384106	-0.0162119205298013	0.445139072847682	-9.92609271523179	0.587814569536424	-10.3859602649007				0.469827814569536	-0.241271523178808	-0.77594701986755	-15.672582781457	126.426490066225	16.5997350993378				0.640529801324503	0.143470198675497	-0.517721854304636	14.8029139072848	70.7435761589404	-12.6556291390728				0.788026490066225	0.259496688741722	0.469933774834437	-23.5682119205298	-4.42807947019868	-14.0574834437086				0.975788079470199	-0.0468344370860927	-0.564238410596026	-10.6196026490066	21.1576158940397	-6.63470198675497			
77	1540	0.567841059602649	-0.0132450331125828	-0.743523178807947	25.5133774834437	109.335364238411	18.1350993377483				0.912953642384106	-0.000211920529801304	0.477139072847682	-12.1660927152318	-2.21218543046358	-9.54596026490066				0.469827814569536	-0.113271523178808	-0.75994701986755	-5.03258278145695	125.586490066225	11.2797350993378				0.720529801324503	0.191470198675497	-0.501721854304636	12.5629139072848	65.4235761589404	-12.3756291390728				0.788026490066225	0.195496688741722	0.437933774834437	-20.2082119205298	3.41192052980132	-5.93748344370861				0.975788079470199	-0.158834437086093	-0.516238410596026	-17.3396026490066	21.4376158940397	-9.71470198675497			
78	1560	0.503841059602649	-0.0292450331125828	-0.615523178807947	22.1533774834437	113.255364238411	15.0550993377483				1.00895364238411	0.0157880794701987	0.413139072847682	-11.0460927152318	2.82781456953642	-9.54596026490066				0.389827814569536	-0.0972715231788079	-0.72794701986755	-0.272582781456954	118.306490066225	2.03973509933775				0.832529801324503	0.271470198675497	-0.405721854304636	24.3229139072848	62.9035761589404	-1.45562913907285				0.852026490066225	0.323496688741722	0.517933774834437	-23.5682119205298	0.891920529801325	-0.617483443708608				1.0077880794702	-0.174834437086093	-0.484238410596026	-8.09960264900662	18.6376158940397	-15.314701986755			
79	1580	0.519841059602649	-0.0772450331125828	-0.567523178807947	16.8333774834437	121.095364238411	12.2550993377483				0.928953642384106	0.223788079470199	0.365139072847682	-12.1660927152318	10.9478145695364	-15.7059602649007				0.485827814569536	-0.113271523178808	-0.66394701986755	7.84741721854305	114.106490066225	-1.60026490066225				0.928529801324503	0.159470198675497	-0.389721854304636	49.5229139072848	48.9035761589404	5.82437086092715				0.788026490066225	0.403496688741722	0.501933774834437	-26.6482119205298	-10.5880794701987	2.46251655629139				0.943788079470199	-0.126834437086093	-0.420238410596026	20.7403973509934	-2.36238410596027	-16.994701986755			
80	1600	0.615841059602649	-0.0932450331125828	-0.599523178807947	10.6733774834437	129.495364238411	10.0150993377483				0.848953642384106	0.0637880794701987	0.365139072847682	-8.24609271523179	18.7878145695364	-11.2259602649007				0.485827814569536	-0.241271523178808	-0.61594701986755	26.3274172185431	110.466490066225	2.87973509933775				0.944529801324503	0.0794701986754967	-0.485721854304636	41.1229139072848	36.5835761589404	12.5443708609272				0.724026490066225	0.323496688741722	0.533933774834437	-21.6082119205298	-11.9880794701987	7.50251655629139				0.863788079470199	-0.222834437086093	-0.324238410596026	-20.4196026490066	19.1976158940397	-2.71470198675497			
81	1620	0.743841059602649	0.0187549668874172	-0.647523178807947	5.35337748344371	123.895364238411	7.49509933774834				0.816953642384106	0.0477880794701987	0.557139072847682	-9.92609271523179	3.94781456953642	-10.9459602649007				0.565827814569536	-0.337271523178808	-0.56794701986755	24.927417218543	113.546490066225	2.87973509933775				0.880529801324503	0.111470198675497	-0.501721854304636	16.2029139072848	19.5035761589404	14.2243708609272				0.772026490066225	0.243496688741722	0.565933774834437	-17.4082119205298	-6.94807947019868	9.74251655629139				0.847788079470199	-0.270834437086093	-0.484238410596026	-58.7796026490066	19.7576158940397	9.32529801324503			
82	1640	0.807841059602649	0.0187549668874172	-0.679523178807947	9.55337748344371	122.775364238411	4.13509933774834				0.832953642384106	0.0957880794701987	0.525139072847682	-0.966092715231788	-21.2521854304636	-8.70596026490066				0.709827814569536	-0.353271523178808	-0.51994701986755	10.087417218543	120.546490066225	-4.96026490066225				0.928529801324503	0.207470198675497	-0.341721854304636	2.48291390728477	11.6635761589404	7.50437086092715				0.772026490066225	0.291496688741722	0.517933774834437	-25.2482119205298	-18.4280794701987	11.1425165562914				0.799788079470199	-0.190834437086093	-0.420238410596026	-16.2196026490066	-5.16238410596027	12.965298013245			
83	1660	0.839841059602649	-0.0292450331125828	-0.599523178807947	5.91337748344371	116.615364238411	1.61509933774834				0.752953642384106	0.143788079470199	0.285139072847682	0.153907284768212	-30.2121854304636	-1.70596026490066				0.773827814569536	-0.321271523178808	-0.50394701986755	3.08741721854305	119.146490066225	-10.2802649006622				0.960529801324503	0.175470198675497	-0.197721854304636	6.40291390728477	8.3035761589404	3.86437086092715				0.724026490066225	0.323496688741722	0.453933774834437	-22.7282119205298	-29.6280794701987	14.7825165562914				0.735788079470199	-0.0308344370860927	-0.404238410596026	-38.6196026490066	-2.08238410596027	22.765298013245			
84	1680	0.807841059602649	-0.0292450331125828	-0.455523178807947	0.313377483443709	116.615364238411	1.33509933774834				0.800953642384106	0.175788079470199	0.413139072847682	5.19390728476821	-4.17218543046358	0.53403973509934				0.725827814569536	-0.337271523178808	-0.43994701986755	-1.39258278145695	112.706490066225	-14.4802649006623				0.896529801324503	0.175470198675497	-0.181721854304636	12.2829139072848	2.1435761589404	1.34437086092715				0.740026490066225	0.275496688741722	0.405933774834437	-5.6482119205298	-21.7880794701987	16.1825165562914				0.735788079470199	0.0171655629139073	-0.484238410596026	-22.3796026490066	4.35761589403974	20.245298013245			
85	1700	0.839841059602649	-0.0132450331125828	-0.423523178807947	-6.96662251655629	115.775364238411	3.01509933774834				0.752953642384106	0.159788079470199	0.525139072847682	15.5539072847682	-14.5321854304636	-0.30596026490066				0.677827814569536	-0.273271523178808	-0.43994701986755	3.64741721854305	112.426490066225	-13.3602649006623				0.848529801324503	0.191470198675497	-0.245721854304636	26.8429139072848	4.6635761589404	0.224370860927152				0.740026490066225	0.211496688741722	0.533933774834437	-0.0482119205298018	-15.9080794701987	16.7425165562914				0.735788079470199	-0.0948344370860927	-0.452238410596026	15.9803973509934	4.07761589403974	4.84529801324503			
86	1720	0.839841059602649	0.00275496688741723	-0.439523178807947	-17.3266225165563	111.015364238411	5.25509933774834				0.800953642384106	0.159788079470199	0.493139072847682	17.5139072847682	-26.5721854304636	3.05403973509934				0.725827814569536	-0.273271523178808	-0.42394701986755	-6.43258278145695	113.546490066225	-8.04026490066225				0.800529801324503	0.143470198675497	-0.245721854304636	48.9629139072848	13.9035761589404	-2.01562913907285				0.708026490066225	0.179496688741722	0.581933774834437	-5.3682119205298	-35.5080794701987	16.7425165562914				0.767788079470199	-0.0948344370860927	-0.388238410596026	4.50039735099338	-4.60238410596027	-2.99470198675497			
87	1740	0.791841059602649	0.0987549668874172	-0.407523178807947	-17.6066225165563	112.695364238411	4.97509933774835				0.752953642384106	-0.0482119205298013	0.445139072847682	16.9539072847682	-49.5321854304636	6.13403973509934				0.869827814569536	-0.273271523178808	-0.37594701986755	-22.672582781457	109.346490066225	-0.76026490066225				0.704529801324503	0.127470198675497	-0.229721854304636	62.4029139072848	20.3435761589404	-3.97562913907285				0.708026490066225	0.179496688741722	0.373933774834437	0.511788079470198	-28.7880794701987	15.6225165562914				0.719788079470199	-0.158834437086093	-0.404238410596026	19.6203973509934	-22.5223841059603	0.365298013245032			
88	1760	0.759841059602649	0.0827549668874172	-0.375523178807947	-10.6066225165563	115.775364238411	-0.344900662251656				0.688953642384106	0.0797880794701987	0.413139072847682	16.1139072847682	-32.7321854304636	1.37403973509934				0.837827814569536	-0.273271523178808	-0.32794701986755	-33.592582781457	109.626490066225	0.63973509933775				0.736529801324503	0.111470198675497	-0.309721854304636	77.8029139072848	26.7835761589404	1.34437086092715				0.676026490066225	0.211496688741722	0.437933774834437	7.2317880794702	-27.6680794701987	17.3025165562914				0.783788079470199	-0.254834437086093	-0.276238410596026	17.9403973509934	-14.9623841059603	2.60529801324503			
89	1780	0.887841059602649	0.130754966887417	-0.327523178807947	10.1133774834437	120.255364238411	-4.26490066225166				0.704953642384106	0.223788079470199	0.413139072847682	7.71390728476821	-22.9321854304636	-0.585960264900661				0.837827814569536	-0.225271523178808	-0.31194701986755	-44.512582781457	104.586490066225	4.55973509933775				0.784529801324503	-0.0325298013245033	-0.325721854304636	69.6829139072848	19.7835761589404	6.38437086092715				0	0	0	0	0	0				0.735788079470199	-0.126834437086093	-0.228238410596026	-22.0996026490066	-8.24238410596027	5.12529801324503			
90	1800	0.935841059602649	0.0507549668874172	-0.263523178807947	17.3933774834437	119.415364238411	-5.10490066225166				0.688953642384106	0.0317880794701987	0.477139072847682	11.9139072847682	-12.8521854304636	2.21403973509934				0.965827814569536	-0.161271523178808	-0.27994701986755	-25.472582781457	110.466490066225	0.35973509933775				0.752529801324503	-0.112529801324503	-0.421721854304636	57.0829139072848	4.9435761589404	8.34437086092715				0.612026490066225	0.131496688741722	0.389933774834437	2.7517880794702	-37.1880794701987	20.6625165562914				0.607788079470199	-0.0628344370860927	-0.324238410596026	-9.77960264900662	-23.3623841059603	2.60529801324503			
91	1820	0.807841059602649	0.0347549668874172	-0.183523178807947	17.6733774834437	112.135364238411	-4.54490066225166				0.688953642384106	0.0317880794701987	0.525139072847682	2.67390728476821	-15.3721854304636	-1.70596026490066				0.885827814569536	-0.145271523178808	-0.21594701986755	-3.07258278145695	103.186490066225	-2.72026490066225				0.816529801324503	-0.0165298013245033	-0.373721854304636	29.3629139072848	-14.9364238410596	6.66437086092715				0.644026490066225	0.163496688741722	0.469933774834437	2.7517880794702	-32.4280794701987	18.7025165562914				0.703788079470199	-0.126834437086093	-0.228238410596026	23.5403973509934	-21.6823841059603	-6.35470198675497			
92	1840	0.727841059602649	-0.0292450331125828	-0.103523178807947	22.1533774834437	117.735364238411	-4.54490066225166				0.640953642384106	0.0957880794701987	0.429139072847682	-0.686092715231788	-35.2521854304636	2.77403973509934				0.837827814569536	-0.193271523178808	-0.18394701986755	7.28741721854305	100.106490066225	-7.76026490066225				0.768529801324503	0.0314701986754967	-0.261721854304636	9.76291390728477	-25.0164238410596	10.0243708609272				0.692026490066225	0.179496688741722	0.437933774834437	3.3117880794702	-41.6680794701987	19.2625165562914				0.735788079470199	-0.222834437086093	-0.212238410596026	7.58039735099338	-0.682384105960265	-15.314701986755			
93	1860	0.839841059602649	-0.0612450331125828	-0.055523178807947	28.5933774834437	123.335364238411	-8.46490066225166				0.672953642384106	0.0957880794701987	0.333139072847682	12.1939072847682	-29.9321854304636	5.57403973509934				0.805827814569536	-0.177271523178808	-0.16794701986755	0.847417218543046	95.0664900662252	-14.2002649006623				0.688529801324503	0.0154701986754967	-0.245721854304636	21.8029139072848	-21.3764238410596	18.7043708609272				0.644026490066225	0.131496688741722	0.341933774834437	4.7117880794702	-38.3080794701987	16.7425165562914				0.799788079470199	-0.222834437086093	-0.308238410596026	-5.57960264900662	-1.80238410596026	-12.794701986755			
94	1880	0.951841059602649	-0.0452450331125828	-0.023523178807947	34.1933774834437	119.975364238411	-5.94490066225166				0.624953642384106	0.191788079470199	0.461139072847682	3.79390728476821	-27.9721854304636	5.57403973509934				0.821827814569536	-0.113271523178808	-0.15194701986755	4.20741721854305	93.9464900662252	-19.5202649006623				0.704529801324503	0.0474701986754967	-0.293721854304636	36.9229139072848	-19.1364238410596	22.6243708609272				0.596026490066225	0.163496688741722	0.389933774834437	6.9517880794702	-31.5880794701987	15.6225165562914				0.687788079470199	-0.190834437086093	-0.340238410596026	8.98039735099338	-38.2023841059603	3.16529801324503			
95	1900	0.935841059602649	-0.0452450331125828	-0.00752317880794696	27.7533774834437	109.615364238411	-1.18490066225166				0.656953642384106	0.127788079470199	0.605139072847682	0.993907284768212	-26.2921854304636	3.05403973509934				0.789827814569536	-0.113271523178808	-0.13594701986755	6.16741721854305	84.1464900662252	-18.1202649006623				0.720529801324503	0.0474701986754967	-0.325721854304636	30.2029139072848	-17.4564238410596	19.2643708609272				0	0	0	0	0	0				0	0	0	0	0	0			
96	1920	0.983841059602649	-0.0452450331125828	0.104476821192053	17.1133774834437	93.6553642384106	1.05509933774834				0.736953642384106	0.111788079470199	0.525139072847682	27.3139072847682	-36.3721854304636	-2.82596026490066				0.821827814569536	-0.177271523178808	-0.0719470198675496	10.927417218543	77.7064900662252	-17.8402649006623				0.736529801324503	-0.000529801324503289	-0.293721854304636	16.2029139072848	-16.3364238410596	18.9843708609272				0.612026490066225	0.211496688741722	0.437933774834437	-1.4482119205298	-41.1080794701987	14.7825165562914				0.719788079470199	-0.158834437086093	-0.244238410596026	-18.7396026490066	-12.4423841059603	-14.474701986755			
97	1940	0	0	0	0	0	0				0.656953642384106	0.127788079470199	0.413139072847682	23.3939072847682	-34.9721854304636	4.17403973509934				0.997827814569536	-0.193271523178808	-0.0559470198675496	11.207417218543	76.3064900662252	-16.7202649006623				0.800529801324503	0.0954701986754967	-0.293721854304636	-0.317086092715232	-16.8964238410596	12.8243708609272				0.628026490066225	0.211496688741722	0.373933774834437	-1.4482119205298	-30.7480794701987	12.8225165562914				0.831788079470199	-0.190834437086093	-0.404238410596026	-8.65960264900662	-15.5223841059603	-6.35470198675497			
98	1960	0.903841059602649	0.0507549668874172	0.056476821192053	38.3933774834437	93.0953642384106	-7.90490066225166				0.592953642384106	0.0637880794701987	0.621139072847682	15.8339072847682	-31.0521854304636	11.1740397350993				0.933827814569536	-0.209271523178808	-0.00794701986754963	14.007417218543	69.3064900662252	-19.5202649006623				0.752529801324503	0.127470198675497	-0.261721854304636	10.8829139072848	-21.0964238410596	7.78437086092715				0.724026490066225	0.115496688741722	0.389933774834437	-0.0482119205298018	-29.0680794701987	14.2225165562914				0.767788079470199	-0.174834437086093	-0.324238410596026	14.8603973509934	-41.2823841059603	7.36529801324503			
99	1980	0.983841059602649	0.00275496688741723	0.168476821192053	61.3533774834437	80.7753642384106	4.41509933774834				0.688953642384106	0.0477880794701987	0.509139072847682	17.5139072847682	-27.4121854304636	6.97403973509934				0.789827814569536	-0.241271523178808	0.00805298013245037	8.96741721854305	59.5064900662252	-19.2402649006623				0.736529801324503	0.0474701986754967	-0.245721854304636	27.6829139072848	-17.4564238410596	4.98437086092715				0.724026490066225	0.0834966887417219	0.421933774834437	0.791788079470198	-29.0680794701987	13.6625165562914				0.655788079470199	-0.190834437086093	-0.260238410596026	12.9003973509934	-40.7223841059603	5.40529801324503			
100	2000	0.887841059602649	-0.141245033112583	0.168476821192053	46.5133774834437	72.0953642384106	6.65509933774834				0.736953642384106	0.0957880794701987	0.333139072847682	7.71390728476821	-14.5321854304636	3.61403973509934				0.917827814569536	-0.273271523178808	0.0240529801324504	13.447417218543	49.7064900662252	-13.9202649006623				0.784529801324503	0.0154701986754967	-0.293721854304636	33.5629139072848	-10.7364238410596	-0.0556291390728476				0.628026490066225	0.211496688741722	0.341933774834437	-5.0882119205298	-34.6680794701987	12.5425165562914				0.607788079470199	-0.0148344370860927	-0.340238410596026	-17.6196026490066	-18.3223841059603	-10.834701986755			
101	2020	0.919841059602649	-0.173245033112583	0.168476821192053	15.1533774834437	62.2953642384106	1.61509933774834				0.720953642384106	0.159788079470199	0.477139072847682	3.23390728476821	2.82781456953642	4.17403973509934				0.949827814569536	-0.289271523178808	0.0400529801324504	21.567417218543	29.5464900662252	-10.2802649006622				0.864529801324503	-0.0165298013245033	-0.309721854304636	22.9229139072848	-10.7364238410596	-1.73562913907285				0.676026490066225	0.195496688741722	0.405933774834437	7.5117880794702	-26.2680794701987	13.1025165562914				0.671788079470199	-0.0148344370860927	-0.452238410596026	20.1803973509934	0.157615894039735	-17.834701986755			
102	2040	0.903841059602649	-0.0612450331125828	0.152476821192053	7.59337748344371	51.9353642384106	-8.18490066225166				0.784953642384106	0.0797880794701987	0.429139072847682	22.2739072847682	-1.93218543046358	8.09403973509934				0.853827814569536	-0.241271523178808	0.00805298013245037	24.3674172185431	16.3864900662252	-11.4002649006623				0.736529801324503	0.0314701986754967	-0.277721854304636	18.1629139072848	-12.9764238410596	-4.53562913907285				0.788026490066225	0.0834966887417219	0.485933774834437	16.4717880794702	-16.4680794701987	12.8225165562914				0.799788079470199	-0.334834437086093	-0.372238410596026	49.3003973509934	-5.72238410596027	-18.674701986755			
103	2060	0.919841059602649	0.0507549668874172	0.152476821192053	15.7133774834437	42.1353642384106	-6.50490066225166				0.800953642384106	-0.0322119205298013	0.413139072847682	23.3939072847682	5.34781456953642	11.1740397350993				0.933827814569536	-0.225271523178808	-0.0399470198675496	15.687417218543	22.2664900662252	-9.16026490066225				0.752529801324503	0.0314701986754967	-0.309721854304636	12.8429139072848	-10.4564238410596	-4.81562913907285				0.836026490066225	0.0674966887417219	0.389933774834437	8.6317880794702	-17.5880794701987	10.8625165562914				0.847788079470199	-0.478834437086093	-0.372238410596026	18.2203973509934	-29.2423841059603	-7.47470198675497			
104	2080	0.903841059602649	0.0347549668874172	0.152476821192053	24.9533774834437	39.3353642384106	-3.70490066225166				0.784953642384106	0.0637880794701987	0.397139072847682	-3.20609271523179	17.1078145695364	10.8940397350993				0.965827814569536	-0.257271523178808	0.0240529801324504	3.64741721854305	14.1464900662252	-6.08026490066225				0.912529801324503	-0.0165298013245033	-0.309721854304636	19.0029139072848	-4.5764238410596	-0.335629139072848				0.852026490066225	0.0674966887417219	0.309933774834437	2.4717880794702	-22.3480794701987	11.7025165562914				0.783788079470199	-0.270834437086093	-0.404238410596026	1.42039735099338	-40.4423841059603	14.645298013245			
105	2100	0.983841059602649	-0.0132450331125828	0.136476821192053	24.1133774834437	34.8553642384106	-6.22490066225166				0.896953642384106	0.0957880794701987	0.477139072847682	3.51390728476821	7.02781456953642	4.73403973509934				0.949827814569536	-0.305271523178808	-0.00794701986754963	2.80741721854305	8.82649006622517	-5.52026490066225				0.768529801324503	-0.0485298013245033	-0.405721854304636	29.9229139072848	-7.3764238410596	-0.0556291390728476				0.868026490066225	0.115496688741722	0.341933774834437	11.7117880794702	-13.3880794701987	11.9825165562914				0.703788079470199	-0.0468344370860927	-0.372238410596026	-11.7396026490066	-23.0823841059603	10.445298013245			
106	2120	0.967841059602649	-0.0932450331125828	0.120476821192053	13.1933774834437	29.2553642384106	-3.42490066225166				0.944953642384106	0.0637880794701987	0.413139072847682	21.9939072847682	5.62781456953642	7.81403973509934				0.997827814569536	-0.273271523178808	0.0400529801324504	15.407417218543	-6.57350993377483	-1.88026490066225				0.704529801324503	-0.0965298013245033	-0.533721854304636	13.9629139072848	-9.8964238410596	-1.45562913907285				0.868026490066225	0.115496688741722	0.357933774834437	16.1917880794702	-13.1080794701987	11.1425165562914				0.703788079470199	-0.0788344370860927	-0.388238410596026	7.30039735099338	2.11761589403974	-5.23470198675497			
107	2140	0.967841059602649	-0.125245033112583	0.104476821192053	9.83337748344371	30.3753642384106	1.33509933774834				0.928953642384106	0.0157880794701987	0.349139072847682	11.0739072847682	1.70781456953642	3.05403973509934				1.04582781456954	-0.289271523178808	-0.00794701986754963	14.567417218543	-6.57350993377483	-0.20026490066225				0.864529801324503	-0.0965298013245033	-0.517721854304636	4.16291390728477	-4.0164238410596	3.58437086092715				0.932026490066225	0.147496688741722	0.261933774834437	-1.7282119205298	-12.2680794701987	9.74251655629139				0.911788079470199	-0.238834437086093	-0.452238410596026	19.6203973509934	7.15761589403974	-8.87470198675497			
108	2160	1.03184105960265	-0.109245033112583	0.072476821192053	-8.92662251655629	32.0553642384106	1.89509933774834				0.912953642384106	0.223788079470199	0.397139072847682	-11.3260927152318	6.46781456953642	3.33403973509934				0.981827814569536	-0.241271523178808	-0.00794701986754963	-3.63258278145695	-9.65350993377483	2.31973509933775				0.896529801324503	-0.0645298013245033	-0.517721854304636	16.4829139072848	-5.1364238410596	5.82437086092715				0.996026490066225	0.147496688741722	0.213933774834437	3.3117880794702	3.13192052980133	4.70251655629139				0.879788079470199	-0.238834437086093	-0.548238410596027	19.9003973509934	-10.2023841059603	4.84529801324503			
109	2180	1.11184105960265	-0.0452450331125828	0.056476821192053	-25.1666225165563	25.8953642384106	1.33509933774834				1.00895364238411	0.159788079470199	0.397139072847682	-2.36609271523179	1.42781456953642	6.69403973509934				0.965827814569536	-0.161271523178808	-0.0239470198675496	-11.192582781457	-6.01350993377483	0.91973509933775				0.816529801324503	-0.160529801324503	-0.549721854304636	22.0829139072848	-6.8164238410596	8.62437086092715				0.980026490066225	0.147496688741722	0.277933774834437	7.2317880794702	6.49192052980132	4.42251655629139				0.831788079470199	-0.110834437086093	-0.468238410596026	-2.77960264900662	-6.28238410596027	7.64529801324503			
110	2200	1.11184105960265	0.0827549668874172	0.056476821192053	-23.2066225165563	25.0553642384106	-0.344900662251656				1.04095364238411	0.0157880794701987	0.349139072847682	10.5139072847682	-2.21218543046358	5.29403973509934				1.01382781456954	-0.129271523178808	0.00805298013245037	-3.91258278145695	-4.05350993377483	0.63973509933775				0.928529801324503	-0.208529801324503	-0.565721854304636	0.522913907284768	-2.8964238410596	10.5843708609272				0.964026490066225	0.131496688741722	0.277933774834437	7.5117880794702	13.2119205298013	4.14251655629139				0.783788079470199	-0.0628344370860927	-0.516238410596026	-21.5396026490066	5.75761589403974	-2.71470198675497			
111	2220	1.01584105960265	0.162754966887417	0.056476821192053	-9.48662251655629	15.5353642384106	-2.02490066225166				0.976953642384106	0.127788079470199	0.349139072847682	-1.24609271523179	0.867814569536424	5.29403973509934				1.01382781456954	-0.145271523178808	-0.0239470198675496	6.44741721854305	-0.693509933774834	-0.76026490066225				1.0085298013245	-0.112529801324503	-0.517721854304636	-8.43708609271523	-8.7764238410596	14.7843708609272				0.964026490066225	0.179496688741722	0.293933774834437	3.0317880794702	14.0519205298013	4.14251655629139				0.783788079470199	0.0171655629139073	-0.692238410596026	-1.65960264900662	11.6376158940397	-14.194701986755			
112	2240	0.951841059602649	0.146754966887417	0.152476821192053	4.23337748344371	13.0153642384106	-5.66490066225166				0.960953642384106	0.175788079470199	0.381139072847682	-3.20609271523179	5.34781456953642	6.41403973509934				0.965827814569536	-0.145271523178808	-0.0719470198675496	4.48741721854305	3.78649006622517	-2.44026490066225				0.848529801324503	-0.0485298013245033	-0.437721854304636	-9.83708609271523	-15.4964238410596	13.1043708609272				0.964026490066225	0.131496688741722	0.277933774834437	9.7517880794702	12.9319205298013	3.58251655629139				0.799788079470199	-0.0948344370860927	-0.708238410596026	32.2203973509934	11.6376158940397	-16.434701986755			
113	2260	0.951841059602649	0.0507549668874172	0.184476821192053	15.9933774834437	9.0953642384106	-8.74490066225166				0.960953642384106	0.111788079470199	0.397139072847682	14.4339072847682	-2.49218543046358	5.29403973509934				0.997827814569536	-0.161271523178808	-0.0559470198675496	8.12741721854305	6.58649006622517	-2.72026490066225				0.752529801324503	-0.0325298013245033	-0.421721854304636	-10.9570860927152	-13.5364238410596	6.94437086092715				0.916026490066225	0.115496688741722	0.213933774834437	14.7917880794702	9.85192052980133	7.22251655629139				0.847788079470199	-0.270834437086093	-0.580238410596026	38.6603973509934	10.7976158940397	-15.874701986755			
114	2280	0.951841059602649	-0.0612450331125828	0.200476821192053	19.9133774834437	3.7753642384106	-7.06490066225166				0.880953642384106	0.127788079470199	0.253139072847682	12.1939072847682	-7.53218543046358	4.17403973509934				0.949827814569536	-0.209271523178808	-0.0879470198675496	5.60741721854305	1.54649006622517	-2.44026490066225				0.784529801324503	-0.0325298013245033	-0.453721854304636	-0.0370860927152318	-5.1364238410596	3.30437086092715				0.868026490066225	0.147496688741722	0.293933774834437	10.8717880794702	10.9719205298013	7.78251655629139				0.751788079470199	-0.286834437086093	-0.500238410596026	13.4603973509934	-5.44238410596027	0.365298013245032			
115	2300	0.951841059602649	-0.0932450331125828	0.184476821192053	12.9133774834437	-2.1046357615894	-0.0649006622516557				0.896953642384106	0.159788079470199	0.333139072847682	0.153907284768212	5.34781456953642	5.57403973509934				0.949827814569536	-0.193271523178808	-0.0399470198675496	5.88741721854305	-0.973509933774833	-3.00026490066225				0.800529801324503	-0.128529801324503	-0.485721854304636	20.1229139072848	5.2235761589404	-1.17562913907285				0.852026490066225	0.115496688741722	0.309933774834437	9.1917880794702	4.53192052980133	5.26251655629139				0.655788079470199	-0.158834437086093	-0.436238410596026	-4.45960264900662	-14.6823841059603	20.245298013245			
116	2320	0.919841059602649	-0.0292450331125828	0.168476821192053	2.83337748344371	0.975364238410596	1.33509933774834				0.912953642384106	0.143788079470199	0.349139072847682	0.713907284768212	1.70781456953642	6.13403973509934				0.949827814569536	-0.225271523178808	-0.0559470198675496	7.00741721854305	-1.81350993377483	-1.60026490066225				0.784529801324503	-0.144529801324503	-0.549721854304636	16.7629139072848	4.9435761589404	-9.29562913907285				0.868026490066225	0.115496688741722	0.261933774834437	4.4317880794702	2.85192052980133	2.74251655629139				0.687788079470199	-0.0468344370860927	-0.388238410596026	-9.77960264900662	-13.0023841059603	20.525298013245			
117	2340	0.887841059602649	0.0347549668874172	0.152476821192053	0.0333774834437086	5.1753642384106	-0.624900662251656				0.896953642384106	0.0957880794701987	0.317139072847682	7.99390728476821	0.307814569536424	5.57403973509934				0.965827814569536	-0.209271523178808	-0.0559470198675496	3.92741721854305	-2.65350993377483	-0.76026490066225				0.768529801324503	-0.0485298013245033	-0.549721854304636	-4.51708609271523	2.7035761589404	-8.73562913907285				0.868026490066225	0.179496688741722	0.309933774834437	0.231788079470198	-0.788079470198675	3.58251655629139				0.783788079470199	-0.0468344370860927	-0.452238410596026	-3.61960264900662	-4.60238410596027	-1.31470198675497			
118	2360	0.935841059602649	0.0667549668874172	0.120476821192053	4.79337748344371	4.3353642384106	-2.86490066225166				0.880953642384106	0.143788079470199	0.317139072847682	7.71390728476821	5.06781456953642	6.13403973509934				0.885827814569536	-0.193271523178808	-0.0559470198675496	0.00741721854304636	-4.05350993377483	0.91973509933775				0.800529801324503	-0.0325298013245033	-0.501721854304636	-4.79708609271523	-0.9364238410596	-5.37562913907285				0.916026490066225	0.195496688741722	0.309933774834437	5.5517880794702	-1.62807947019868	3.86251655629139				0.879788079470199	-0.142834437086093	-0.516238410596026	9.54039735099338	14.7176158940397	-13.914701986755			
119	2380	0.967841059602649	0.0667549668874172	0.104476821192053	6.19337748344371	-0.144635761589404	-1.74490066225166				0.944953642384106	0.127788079470199	0.349139072847682	0.433907284768212	1.98781456953642	9.21403973509934				0.933827814569536	-0.145271523178808	-0.0559470198675496	-4.47258278145695	-1.81350993377483	2.87973509933775				0.800529801324503	-0.112529801324503	-0.517721854304636	1.64291390728477	-4.2964238410596	-1.17562913907285				0.948026490066225	0.115496688741722	0.229933774834437	6.3917880794702	2.29192052980133	3.30251655629139				0.927788079470199	-0.158834437086093	-0.628238410596026	6.18039735099338	9.67761589403974	-7.47470198675497			
120	2400	0.999841059602649	0.0507549668874172	0.088476821192053	1.99337748344371	-2.9446357615894	1.05509933774834				0.976953642384106	0.143788079470199	0.301139072847682	-6.28609271523179	-1.93218543046358	5.85403973509934				0.949827814569536	-0.129271523178808	-0.0399470198675496	-3.63258278145695	-0.973509933774833	4.55973509933775				0.768529801324503	-0.128529801324503	-0.517721854304636	-1.71708609271523	-1.2164238410596	1.34437086092715				0.964026490066225	0.0994966887417219	0.261933774834437	-1.7282119205298	7.89192052980133	3.86251655629139				0.847788079470199	-0.158834437086093	-0.564238410596026	34.1803973509934	-13.2823841059603	2.88529801324503			
121	2420	1.01584105960265	0.0347549668874172	0.120476821192053	-3.60662251655629	-0.704635761589404	0.775099337748344				1.00895364238411	0.0797880794701987	0.285139072847682	-4.32609271523179	-1.37218543046358	3.61403973509934				0.965827814569536	-0.129271523178808	-0.0559470198675496	1.12741721854305	-1.25350993377483	4.55973509933775				0.784529801324503	-0.0485298013245033	-0.501721854304636	-3.95708609271523	5.5035761589404	1.06437086092715				0.948026490066225	0.163496688741722	0.277933774834437	0.511788079470198	7.33192052980133	4.14251655629139				0.719788079470199	-0.174834437086093	-0.468238410596026	13.7403973509934	-21.9623841059603	0.925298013245032			
122	2440	1.01584105960265	0.0347549668874172	0.168476821192053	-0.246622516556291	4.8953642384106	-3.42490066225166				0.992953642384106	0.127788079470199	0.269139072847682	2.67390728476821	-2.77218543046358	2.77403973509934				0.949827814569536	-0.129271523178808	-0.0879470198675496	2.52741721854305	-1.25350993377483	2.87973509933775				0.832529801324503	-0.0805298013245033	-0.501721854304636	9.48291390728477	8.0235761589404	4.98437086092715				0.948026490066225	0.147496688741722	0.245933774834437	3.5917880794702	2.85192052980133	4.98251655629139				0.751788079470199	-0.110834437086093	-0.548238410596027	-12.5796026490066	-1.24238410596026	-0.474701986754968			
123	2460	0.967841059602649	0.0347549668874172	0.168476821192053	1.43337748344371	1.5353642384106	-2.30490066225166				0.976953642384106	0.111788079470199	0.317139072847682	3.23390728476821	-5.29218543046358	6.41403973509934				0.949827814569536	-0.129271523178808	-0.11994701986755	3.36741721854305	1.82649006622517	1.19973509933775				0.848529801324503	-0.176529801324503	-0.517721854304636	13.6829139072848	5.7835761589404	5.26437086092715				0.948026490066225	0.0674966887417219	0.245933774834437	0.791788079470198	-0.508079470198675	6.94251655629139				0.847788079470199	-0.110834437086093	-0.628238410596026	-8.09960264900662	10.5176158940397	-2.71470198675497			
124	2480	0.967841059602649	0.0187549668874172	0.136476821192053	2.27337748344371	-1.5446357615894	-3.98490066225166				0.944953642384106	0.0637880794701987	0.285139072847682	-2.64609271523179	-2.21218543046358	5.01403973509934				0.981827814569536	-0.161271523178808	-0.10394701986755	0.00741721854304636	4.62649006622517	-0.20026490066225				0.832529801324503	-0.176529801324503	-0.533721854304636	-1.99708609271523	1.3035761589404	2.46437086092715				0.948026490066225	0.0514966887417219	0.245933774834437	-1.1682119205298	-0.228079470198675	7.22251655629139				0.767788079470199	-0.142834437086093	-0.644238410596026	8.70039735099338	-3.76238410596027	-0.754701986754968			
125	2500	0.967841059602649	0.00275496688741723	0.136476821192053	1.43337748344371	-3.7846357615894	-3.14490066225166				0.928953642384106	0.127788079470199	0.333139072847682	-5.16609271523179	1.42781456953642	0.53403973509934				0.965827814569536	-0.193271523178808	-0.0719470198675496	-3.63258278145695	4.90649006622517	-0.48026490066225				0.816529801324503	-0.128529801324503	-0.501721854304636	-7.59708609271523	0.7435761589404	2.18437086092715				0.916026490066225	0.131496688741722	0.261933774834437	0.511788079470198	-0.508079470198675	5.26251655629139				0.687788079470199	-0.190834437086093	-0.548238410596027	26.0603973509934	-16.3623841059603	0.645298013245032			
126	2520	0.935841059602649	0.0187549668874172	0.168476821192053	6.19337748344371	-4.0646357615894	-0.904900662251656				0.912953642384106	0.127788079470199	0.301139072847682	-2.64609271523179	-3.05218543046358	2.21403973509934				0.917827814569536	-0.177271523178808	-0.0719470198675496	0.567417218543046	2.38649006622517	-1.88026490066225				0.800529801324503	-0.128529801324503	-0.501721854304636	-0.0370860927152318	-1.7764238410596	3.02437086092715				0.916026490066225	0.0994966887417219	0.245933774834437	2.1917880794702	0.611920529801325	3.58251655629139				0.735788079470199	-0.206834437086093	-0.500238410596026	8.42039735099338	-3.48238410596027	1.76529801324503			
127	2540	0.935841059602649	0.00275496688741723	0.152476821192053	4.79337748344371	-2.6646357615894	-0.344900662251656				0.944953642384106	0.0797880794701987	0.269139072847682	-1.24609271523179	-1.93218543046358	3.61403973509934				0.949827814569536	-0.177271523178808	-0.0879470198675496	6.44741721854305	-0.973509933774833	-2.72026490066225				0.800529801324503	-0.144529801324503	-0.501721854304636	0.242913907284768	-2.3364238410596	3.58437086092715				0.916026490066225	0.0514966887417219	0.261933774834437	-1.7282119205298	-2.18807947019868	4.70251655629139				0.767788079470199	-0.190834437086093	-0.580238410596026	-7.25960264900662	4.07761589403974	6.52529801324503			
128	2560	0.919841059602649	0.00275496688741723	0.152476821192053	0.593377483443709	-3.7846357615894	0.215099337748344				0.880953642384106	0.0637880794701987	0.285139072847682	-5.72609271523179	0.587814569536424	2.21403973509934				0.933827814569536	-0.209271523178808	-0.0719470198675496	4.20741721854305	-1.53350993377483	-2.44026490066225				0.800529801324503	-0.144529801324503	-0.469721854304636	-4.79708609271523	-1.2164238410596	3.30437086092715				0.900026490066225	0.0834966887417219	0.245933774834437	-5.0882119205298	-0.788079470198675	3.30251655629139				0.735788079470199	-0.126834437086093	-0.580238410596026	-2.21960264900662	-5.72238410596027	9.32529801324503			
129	2580	0.951841059602649	0.00275496688741723	0.136476821192053	0.593377483443709	-2.9446357615894	0.495099337748344				0.944953642384106	0.0797880794701987	0.317139072847682	0.713907284768212	4.78781456953642	1.09403973509934				0.917827814569536	-0.193271523178808	-0.0719470198675496	-2.79258278145695	-1.53350993377483	-3.00026490066225				0.816529801324503	-0.112529801324503	-0.469721854304636	-2.27708609271523	1.5835761589404	3.30437086092715				0.916026490066225	0.115496688741722	0.261933774834437	0.511788079470198	2.29192052980133	1.62251655629139				0	0	0	0	0	0			
130	2600	1.01584105960265	0.00275496688741723	0.136476821192053	-0.246622516556291	-0.144635761589404	0.215099337748344				0.992953642384106	0.111788079470199	0.269139072847682	4.35390728476821	6.46781456953642	0.25403973509934				0.917827814569536	-0.161271523178808	-0.0879470198675496	1.40741721854305	-1.53350993377483	-2.72026490066225				0.832529801324503	-0.0965298013245033	-0.517721854304636	3.88291390728477	-0.6564238410596	3.30437086092715				0.964026490066225	0.0994966887417219	0.245933774834437	3.3117880794702	3.13192052980133	1.62251655629139				0.719788079470199	-0.142834437086093	-0.532238410596027	-4.73960264900662	6.59761589403974	-1.59470198675497			
131	2620	0.967841059602649	0.0347549668874172	0.168476821192053	-1.08662251655629	2.6553642384106	-0.344900662251656				0.960953642384106	0.0797880794701987	0.285139072847682	-2.08609271523179	4.22781456953642	1.37403973509934				0.981827814569536	-0.177271523178808	-0.0719470198675496	4.76741721854305	0.146490066225167	-2.44026490066225				0.864529801324503	-0.160529801324503	-0.517721854304636	5.84291390728477	-4.2964238410596	4.14437086092715				0.948026490066225	0.0674966887417219	0.261933774834437	4.4317880794702	2.01192052980133	1.34251655629139				0.751788079470199	-0.142834437086093	-0.596238410596026	3.66039735099338	13.8776158940397	-6.07470198675497			
132	2640	0.935841059602649	0.0187549668874172	0.184476821192053	-2.76662251655629	3.7753642384106	-0.344900662251656				0.944953642384106	0.0797880794701987	0.317139072847682	-4.60609271523179	5.06781456953642	0.25403973509934				0.965827814569536	-0.193271523178808	-0.10394701986755	3.36741721854305	-0.693509933774834	-2.16026490066225				0.896529801324503	-0.208529801324503	-0.501721854304636	-3.39708609271523	-6.8164238410596	2.74437086092715				0.948026490066225	0.0994966887417219	0.245933774834437	-0.328211920529802	-1.62807947019868	1.90251655629139				0.783788079470199	-0.174834437086093	-0.612238410596026	10.3803973509934	8.55761589403974	-6.63470198675497			
133	2660	0.983841059602649	0.0347549668874172	0.200476821192053	-1.08662251655629	5.1753642384106	-1.46490066225166				0.976953642384106	0.111788079470199	0.317139072847682	2.11390728476821	7.30781456953642	-1.70596026490066				0.965827814569536	-0.177271523178808	-0.10394701986755	-1.67258278145695	2.66649006622517	-2.16026490066225				0.896529801324503	-0.144529801324503	-0.533721854304636	-7.59708609271523	-7.3764238410596	-0.335629139072848				0.932026490066225	0.115496688741722	0.261933774834437	-1.1682119205298	-3.30807947019868	0.502516556291392				0.735788079470199	-0.190834437086093	-0.564238410596026	11.2203973509934	1.55761589403974	-4.67470198675497			
134	2680	0.983841059602649	0.0347549668874172	0.168476821192053	4.23337748344371	2.0953642384106	-2.02490066225166				0.928953642384106	0.143788079470199	0.301139072847682	3.79390728476821	8.98781456953643	-0.86596026490066				0.965827814569536	-0.193271523178808	-0.0879470198675496	0.567417218543046	2.66649006622517	-3.00026490066225				0.832529801324503	-0.112529801324503	-0.501721854304636	-2.83708609271523	-4.2964238410596	-2.01562913907285				0.916026490066225	0.0834966887417219	0.277933774834437	4.4317880794702	-3.02807947019868	-0.897483443708608				0.735788079470199	-0.174834437086093	-0.532238410596027	0.300397350993377	0.157615894039735	-1.87470198675497			
135	2700	0.951841059602649	0.0187549668874172	0.136476821192053	6.75337748344371	-0.704635761589404	-0.624900662251656				0.928953642384106	0.111788079470199	0.349139072847682	4.63390728476821	11.7878145695364	0.25403973509934				0.981827814569536	-0.193271523178808	-0.0559470198675496	5.32741721854305	0.146490066225167	-2.44026490066225				0.784529801324503	-0.112529801324503	-0.469721854304636	0.522913907284768	-6.5364238410596	-3.41562913907285				0.916026490066225	0.0994966887417219	0.277933774834437	6.1117880794702	-0.788079470198675	-2.29748344370861				0.751788079470199	-0.158834437086093	-0.548238410596027	-8.93960264900662	0.437615894039735	0.365298013245032			
136	2720	0.967841059602649	-0.0132450331125828	0.168476821192053	5.35337748344371	-2.1046357615894	-0.904900662251656				0.944953642384106	0.0957880794701987	0.317139072847682	4.35390728476821	7.58781456953643	-0.30596026490066				0.965827814569536	-0.161271523178808	-0.0559470198675496	7.00741721854305	-1.25350993377483	-1.60026490066225				0.800529801324503	-0.112529801324503	-0.501721854304636	0.522913907284768	-9.6164238410596	-4.53562913907285				0.932026490066225	0.0994966887417219	0.277933774834437	3.0317880794702	-1.34807947019868	-2.29748344370861				0.767788079470199	-0.126834437086093	-0.548238410596027	3.66039735099338	-0.402384105960265	-3.83470198675497			
137	2740	0.967841059602649	0.00275496688741723	0.200476821192053	3.67337748344371	-0.984635761589404	0.215099337748344				0.928953642384106	0.127788079470199	0.317139072847682	-0.126092715231788	7.86781456953642	-2.26596026490066				0.981827814569536	-0.177271523178808	-0.0719470198675496	5.04741721854305	-1.53350993377483	-1.04026490066225				0.848529801324503	-0.144529801324503	-0.517721854304636	1.64291390728477	-5.9764238410596	-4.53562913907285				0.932026490066225	0.131496688741722	0.261933774834437	5.2717880794702	0.0519205298013249	-3.13748344370861				0.751788079470199	-0.126834437086093	-0.516238410596026	5.06039735099338	2.95761589403974	-8.03470198675497			
138	2760	0.951841059602649	0.0187549668874172	0.200476821192053	2.55337748344371	4.0553642384106	0.215099337748344				0.944953642384106	0.111788079470199	0.301139072847682	2.39390728476821	9.26781456953642	-0.86596026490066				0.949827814569536	-0.193271523178808	-0.0559470198675496	5.32741721854305	-2.93350993377483	-0.48026490066225				0.832529801324503	-0.160529801324503	-0.533721854304636	2.48291390728477	-4.8564238410596	-4.53562913907285				0.932026490066225	0.131496688741722	0.261933774834437	6.9517880794702	-0.788079470198675	-4.25748344370861				0.751788079470199	-0.158834437086093	-0.548238410596027	4.22039735099338	2.95761589403974	-5.79470198675497			
139	2780	0.967841059602649	0.0507549668874172	0.184476821192053	0.313377483443709	6.8553642384106	-0.624900662251656				0.944953642384106	0.111788079470199	0.349139072847682	5.47390728476821	8.98781456953643	-0.30596026490066				0.949827814569536	-0.193271523178808	-0.0719470198675496	3.64741721854305	-1.81350993377483	-0.20026490066225				0.800529801324503	-0.112529801324503	-0.549721854304636	3.32291390728477	-8.2164238410596	-4.53562913907285				0.948026490066225	0.115496688741722	0.261933774834437	7.2317880794702	-1.62807947019868	-3.69748344370861				0.799788079470199	-0.158834437086093	-0.532238410596027	5.62039735099338	-1.24238410596026	-5.23470198675497			
140	2800	0.951841059602649	0.0667549668874172	0.168476821192053	0.313377483443709	4.0553642384106	-1.74490066225166				0.928953642384106	0.111788079470199	0.349139072847682	1.83390728476821	8.42781456953642	-0.86596026490066				0.965827814569536	-0.193271523178808	-0.0559470198675496	2.52741721854305	1.26649006622517	0.35973509933775				0.784529801324503	-0.112529801324503	-0.533721854304636	-3.95708609271523	-9.6164238410596	-5.37562913907285				0.916026490066225	0.115496688741722	0.261933774834437	7.7917880794702	-1.06807947019868	-2.85748344370861				0.783788079470199	-0.126834437086093	-0.532238410596027	3.10039735099338	-1.80238410596026	-7.75470198675497			
141	2820	0.967841059602649	0.0507549668874172	0.136476821192053	4.23337748344371	2.3753642384106	-0.904900662251656				0.912953642384106	0.143788079470199	0.333139072847682	2.67390728476821	10.3878145695364	-2.54596026490066				0.949827814569536	-0.161271523178808	-0.0399470198675496	5.32741721854305	0.986490066225167	0.63973509933775				0.768529801324503	-0.112529801324503	-0.517721854304636	-6.47708609271523	-8.7764238410596	-4.81562913907285				0.900026490066225	0.147496688741722	0.261933774834437	4.4317880794702	0.0519205298013249	-4.53748344370861				0.767788079470199	-0.126834437086093	-0.548238410596027	4.22039735099338	-2.08238410596027	-9.99470198675497			
142	2840	0.999841059602649	0.0187549668874172	0.152476821192053	4.51337748344371	2.0953642384106	-0.344900662251656				0.960953642384106	0.111788079470199	0.333139072847682	4.35390728476821	11.7878145695364	-0.86596026490066				0.965827814569536	-0.145271523178808	-0.0559470198675496	5.04741721854305	0.146490066225167	2.03973509933775				0.768529801324503	-0.0965298013245033	-0.533721854304636	-2.55708609271523	-5.4164238410596	-0.615629139072848				0.932026490066225	0.115496688741722	0.261933774834437	4.4317880794702	0.611920529801325	-4.25748344370861				0.815788079470199	-0.174834437086093	-0.548238410596027	1.98039735099338	-2.64238410596027	-8.31470198675497			
143	2860	0.983841059602649	0.00275496688741723	0.200476821192053	3.67337748344371	0.695364238410596	-0.344900662251656				0.976953642384106	0.0797880794701987	0.413139072847682	3.51390728476821	6.46781456953642	-1.70596026490066				0.981827814569536	-0.177271523178808	-0.0559470198675496	4.48741721854305	-0.133509933774833	1.47973509933775				0.768529801324503	-0.0965298013245033	-0.533721854304636	4.44291390728477	-3.1764238410596	-1.73562913907285				0.964026490066225	0.0994966887417219	0.245933774834437	4.4317880794702	2.85192052980133	-2.85748344370861				0.831788079470199	-0.174834437086093	-0.532238410596027	-4.73960264900662	0.157615894039735	-4.67470198675497			
144	2880	0.951841059602649	0.00275496688741723	0.200476821192053	5.07337748344371	3.4953642384106	-1.18490066225166				0.912953642384106	0.0637880794701987	0.381139072847682	0.153907284768212	3.66781456953642	-2.26596026490066				0.949827814569536	-0.177271523178808	-0.0559470198675496	4.20741721854305	1.54649006622517	0.35973509933775				0.768529801324503	-0.0805298013245033	-0.533721854304636	-1.71708609271523	-2.3364238410596	-5.37562913907285				0.932026490066225	0.131496688741722	0.293933774834437	5.2717880794702	4.53192052980133	-2.01748344370861				0.815788079470199	-0.142834437086093	-0.548238410596027	-0.259602649006623	-1.80238410596026	-3.27470198675497			
145	2900	0.935841059602649	-0.0132450331125828	0.184476821192053	1.99337748344371	3.2153642384106	-0.624900662251656				0.912953642384106	0.0957880794701987	0.349139072847682	3.23390728476821	6.18781456953642	-3.10596026490066				0.949827814569536	-0.177271523178808	-0.0559470198675496	4.76741721854305	2.38649006622517	-1.32026490066225				0.784529801324503	-0.112529801324503	-0.517721854304636	1.36291390728477	-1.2164238410596	-4.53562913907285				0.916026490066225	0.147496688741722	0.277933774834437	3.5917880794702	6.21192052980133	-2.85748344370861				0.767788079470199	-0.110834437086093	-0.516238410596026	4.50039735099338	1.27761589403974	-3.83470198675497			
146	2920	0.951841059602649	0.00275496688741723	0.152476821192053	-0.806622516556291	1.8153642384106	-1.18490066225166				0.960953642384106	0.0957880794701987	0.365139072847682	3.79390728476821	3.10781456953642	-0.585960264900661				0.981827814569536	-0.209271523178808	-0.0399470198675496	6.16741721854305	2.10649006622517	-2.44026490066225				0	0	0	0	0	0				0	0	0	0	0	0				0	0	0	0	0	0			
147	2940	0.967841059602649	-0.0132450331125828	0.152476821192053	-5.56662251655629	-0.144635761589404	-0.0649006622516557				0.928953642384106	0.111788079470199	0.317139072847682	-2.92609271523179	2.26781456953642	-0.0259602649006601				0.965827814569536	-0.225271523178808	-0.0399470198675496	7.00741721854305	1.26649006622517	-1.88026490066225				0.784529801324503	-0.112529801324503	-0.565721854304636	-5.63708609271523	-4.2964238410596	2.74437086092715				0.916026490066225	0.147496688741722	0.293933774834437	-1.7282119205298	2.01192052980133	-0.617483443708608				0.831788079470199	-0.206834437086093	-0.548238410596027	3.66039735099338	-0.962384105960265	-4.39470198675497			
148	2960	0.983841059602649	0.0187549668874172	0.152476821192053	-3.88662251655629	2.3753642384106	0.495099337748344				0.928953642384106	0.111788079470199	0.381139072847682	-9.36609271523179	7.86781456953642	-1.14596026490066				0.917827814569536	-0.209271523178808	-0.0399470198675496	3.36741721854305	1.82649006622517	-0.48026490066225				0.784529801324503	-0.0965298013245033	-0.533721854304636	-6.19708609271523	-5.9764238410596	3.30437086092715				0.948026490066225	0.163496688741722	0.277933774834437	-2.5682119205298	2.29192052980133	-0.897483443708608				0.831788079470199	-0.190834437086093	-0.532238410596027	-4.73960264900662	-2.08238410596027	0.0852980132450323			
149	2980	0.967841059602649	0.0187549668874172	0.184476821192053	-3.04662251655629	5.7353642384106	0.215099337748344				0.928953642384106	0.0957880794701987	0.413139072847682	-4.32609271523179	3.66781456953642	-0.86596026490066				0.949827814569536	-0.193271523178808	-0.0559470198675496	-2.79258278145695	2.66649006622517	0.63973509933775				0.800529801324503	-0.112529801324503	-0.517721854304636	-7.03708609271523	-4.0164238410596	3.02437086092715				0.932026490066225	0.115496688741722	0.293933774834437	-1.4482119205298	5.09192052980133	0.222516556291392				0.799788079470199	-0.142834437086093	-0.532238410596027	-12.5796026490066	-2.08238410596027	6.52529801324503			
150	3000	0.951841059602649	0.0347549668874172	0.200476821192053	-2.76662251655629	5.4553642384106	-0.344900662251656				0.944953642384106	0.0797880794701987	0.365139072847682	2.95390728476821	1.14781456953642	-0.0259602649006601				0.981827814569536	-0.209271523178808	-0.0559470198675496	-3.63258278145695	2.94649006622517	1.75973509933775				0.784529801324503	-0.0965298013245033	-0.517721854304636	-8.71708609271523	-4.0164238410596	5.26437086092715				0.932026490066225	0.0994966887417219	0.293933774834437	-3.4082119205298	3.69192052980133	0.502516556291392				0.799788079470199	-0.142834437086093	-0.548238410596027	2.82039735099338	-5.44238410596027	4.56529801324503			
151	3020	0.967841059602649	0.0187549668874172	0.216476821192053	-2.20662251655629	2.9353642384106	-1.46490066225166				0.944953642384106	0.0957880794701987	0.349139072847682	-0.966092715231788	3.10781456953642	-1.42596026490066				1.01382781456954	-0.209271523178808	-0.0559470198675496	-1.95258278145695	2.66649006622517	0.35973509933775				0.784529801324503	-0.0645298013245033	-0.533721854304636	-10.6770860927152	-1.4964238410596	4.98437086092715				0.948026490066225	0.131496688741722	0.293933774834437	-7.3282119205298	1.45192052980132	1.34251655629139				0.815788079470199	-0.174834437086093	-0.532238410596027	4.50039735099338	0.157615894039735	-2.71470198675497			
152	3040	0.967841059602649	0.00275496688741723	0.232476821192053	-4.44662251655629	0.695364238410596	-2.02490066225166				0.944953642384106	0.127788079470199	0.397139072847682	-6.00609271523179	5.62781456953642	-1.14596026490066				0.965827814569536	-0.193271523178808	-0.0559470198675496	3.36741721854305	0.426490066225167	-0.20026490066225				0.816529801324503	-0.0805298013245033	-0.549721854304636	-6.75708609271523	2.7035761589404	5.54437086092715				0.932026490066225	0.147496688741722	0.309933774834437	-6.7682119205298	1.73192052980133	1.62251655629139				0.815788079470199	-0.174834437086093	-0.564238410596026	0.860397350993377	2.11761589403974	-1.31470198675497			
153	3060	0.967841059602649	-0.0132450331125828	0.200476821192053	-0.806622516556291	3.7753642384106	-1.18490066225166				0.944953642384106	0.0797880794701987	0.413139072847682	-4.88609271523179	5.90781456953642	1.09403973509934				0.965827814569536	-0.193271523178808	-0.0559470198675496	4.76741721854305	1.26649006622517	0.35973509933775				0.832529801324503	-0.112529801324503	-0.533721854304636	-0.877086092715232	3.2635761589404	9.74437086092715				0.916026490066225	0.131496688741722	0.325933774834437	-2.0082119205298	4.25192052980133	2.46251655629139				0.799788079470199	-0.174834437086093	-0.564238410596026	3.10039735099338	-2.64238410596027	6.24529801324503			
154	3080	0.951841059602649	0.00275496688741723	0.216476821192053	-0.246622516556291	5.1753642384106	-1.46490066225166				0.944953642384106	0.0637880794701987	0.429139072847682	-5.44609271523179	6.74781456953642	1.65403973509934				0.981827814569536	-0.209271523178808	-0.0559470198675496	0.00741721854304636	2.10649006622517	0.91973509933775				0.816529801324503	-0.128529801324503	-0.533721854304636	-7.59708609271523	-0.3764238410596	10.3043708609272				0.932026490066225	0.0834966887417219	0.293933774834437	-3.9682119205298	7.05192052980133	1.62251655629139				0.783788079470199	-0.174834437086093	-0.532238410596027	-1.09960264900662	-7.40238410596027	9.88529801324503			
155	3100	0.951841059602649	-0.0132450331125828	0.232476821192053	-1.36662251655629	6.5753642384106	-2.30490066225166				0.912953642384106	0.111788079470199	0.397139072847682	-6.84609271523179	2.54781456953642	-0.30596026490066				0.965827814569536	-0.225271523178808	-0.0559470198675496	-3.63258278145695	0.146490066225167	0.0797350993377501				0.784529801324503	-0.0805298013245033	-0.517721854304636	-15.4370860927152	-0.6564238410596	6.38437086092715				0.932026490066225	0.115496688741722	0.277933774834437	-6.2082119205298	5.09192052980133	0.782516556291392				0.783788079470199	-0.174834437086093	-0.500238410596026	0.580397350993377	-4.04238410596027	5.12529801324503			
156	3120	0.967841059602649	0.00275496688741723	0.216476821192053	-2.20662251655629	5.4553642384106	-2.02490066225166				0.896953642384106	0.0957880794701987	0.349139072847682	-3.48609271523179	1.70781456953642	1.37403973509934				0.933827814569536	-0.193271523178808	-0.0399470198675496	-1.39258278145695	-1.81350993377483	-1.04026490066225				0.800529801324503	-0.0485298013245033	-0.517721854304636	-8.99708609271523	2.1435761589404	2.46437086092715				0.916026490066225	0.147496688741722	0.293933774834437	-7.6082119205298	3.13192052980133	1.06251655629139				0.767788079470199	-0.158834437086093	-0.516238410596026	-2.77960264900662	5.19761589403974	0.365298013245032			
157	3140	0.967841059602649	0.0187549668874172	0.168476821192053	-3.32662251655629	1.5353642384106	-1.18490066225166				0.928953642384106	0.0957880794701987	0.381139072847682	-1.80609271523179	3.10781456953642	3.05403973509934				0.949827814569536	-0.193271523178808	-0.0559470198675496	1.68741721854305	-0.413509933774833	-0.20026490066225				0.832529801324503	-0.0805298013245033	-0.485721854304636	-1.99708609271523	2.7035761589404	3.30437086092715				0.884026490066225	0.115496688741722	0.293933774834437	-4.2482119205298	2.01192052980133	1.34251655629139				0.751788079470199	-0.158834437086093	-0.564238410596026	-0.539602649006623	4.35761589403974	2.04529801324503			
158	3160	0.951841059602649	0.0187549668874172	0.152476821192053	-1.64662251655629	-1.8246357615894	-1.18490066225166				0.912953642384106	0.111788079470199	0.397139072847682	-4.60609271523179	5.34781456953642	3.61403973509934				0.933827814569536	-0.177271523178808	-0.0399470198675496	1.12741721854305	-0.973509933774833	0.0797350993377501				0.816529801324503	-0.0965298013245033	-0.485721854304636	-3.95708609271523	1.0235761589404	4.42437086092715				0.884026490066225	0.115496688741722	0.309933774834437	-5.3682119205298	0.0519205298013249	1.62251655629139				0.751788079470199	-0.158834437086093	-0.564238410596026	4.50039735099338	-4.88238410596027	7.64529801324503			
159	3180	0.951841059602649	0.00275496688741723	0.152476821192053	2.27337748344371	-2.6646357615894	-0.904900662251656				0.912953642384106	0.0957880794701987	0.413139072847682	-7.12609271523179	6.18781456953642	2.49403973509934				0.917827814569536	-0.177271523178808	-0.0559470198675496	-0.552582781456954	-2.37350993377483	-0.76026490066225				0.816529801324503	-0.0645298013245033	-0.469721854304636	-4.79708609271523	-1.2164238410596	2.74437086092715				0.916026490066225	0.115496688741722	0.325933774834437	-4.8082119205298	-1.06807947019868	2.18251655629139				0.751788079470199	-0.174834437086093	-0.548238410596027	5.90039735099338	-8.24238410596027	6.24529801324503			
160	3200	0.951841059602649	0.00275496688741723	0.216476821192053	3.11337748344371	-0.704635761589404	-0.0649006622516557				0.928953642384106	0.0797880794701987	0.413139072847682	-2.36609271523179	4.78781456953642	2.21403973509934				0.933827814569536	-0.193271523178808	-0.0559470198675496	0.567417218543046	-0.413509933774833	-1.32026490066225				0.832529801324503	-0.0485298013245033	-0.469721854304636	1.92291390728477	0.1835761589404	0.224370860927152				0.932026490066225	0.115496688741722	0.325933774834437	-2.2882119205298	-1.06807947019868	3.30251655629139				0.799788079470199	-0.190834437086093	-0.548238410596027	3.38039735099338	-1.24238410596026	2.60529801324503			
161	3220	0.983841059602649	0.00275496688741723	0.232476821192053	-1.36662251655629	0.135364238410596	-0.344900662251656				0.944953642384106	0.0637880794701987	0.397139072847682	-1.52609271523179	5.06781456953642	2.21403973509934				0.981827814569536	-0.193271523178808	-0.0399470198675496	0.847417218543046	0.706490066225167	-1.88026490066225				0.848529801324503	-0.0645298013245033	-0.469721854304636	4.72291390728477	2.7035761589404	0.504370860927152				0.932026490066225	0.0834966887417219	0.325933774834437	0.231788079470198	1.73192052980133	3.02251655629139				0.799788079470199	-0.222834437086093	-0.564238410596026	1.14039735099338	0.157615894039735	2.32529801324503			
162	3240	0.983841059602649	0.0187549668874172	0.232476821192053	-5.28662251655629	0.135364238410596	-1.46490066225166				0.928953642384106	0.0957880794701987	0.397139072847682	-2.64609271523179	2.26781456953642	0.81403973509934				0.965827814569536	-0.193271523178808	-0.0399470198675496	-0.832582781456954	0.706490066225167	-2.44026490066225				0.848529801324503	-0.0965298013245033	-0.501721854304636	5.56291390728477	3.5435761589404	0.784370860927152				0.932026490066225	0.0834966887417219	0.325933774834437	1.6317880794702	2.29192052980133	2.74251655629139				0.783788079470199	-0.222834437086093	-0.548238410596027	3.10039735099338	-5.44238410596027	5.12529801324503			
163	3260	0.967841059602649	0.0187549668874172	0.216476821192053	-1.64662251655629	-0.984635761589404	-0.904900662251656				0.928953642384106	0.0797880794701987	0.413139072847682	0.153907284768212	1.70781456953642	1.37403973509934				0.949827814569536	-0.177271523178808	-0.0559470198675496	0.847417218543046	-1.25350993377483	-2.72026490066225				0.832529801324503	-0.128529801324503	-0.549721854304636	8.64291390728477	2.4235761589404	-0.615629139072848				0.932026490066225	0.0834966887417219	0.309933774834437	1.9117880794702	1.17192052980133	1.90251655629139				0.767788079470199	-0.206834437086093	-0.516238410596026	5.34039735099338	-7.96238410596027	4.00529801324503			
164	3280	0.951841059602649	0.0187549668874172	0.200476821192053	-0.806622516556291	-2.6646357615894	-0.624900662251656				0.912953642384106	0.0797880794701987	0.413139072847682	0.433907284768212	0.307814569536424	-0.0259602649006601				0.965827814569536	-0.193271523178808	-0.0559470198675496	0.847417218543046	-1.53350993377483	-1.32026490066225				0.848529801324503	-0.128529801324503	-0.549721854304636	6.40291390728477	-0.6564238410596	-1.17562913907285				0.916026490066225	0.0994966887417219	0.293933774834437	0.511788079470198	-1.06807947019868	1.90251655629139				0.767788079470199	-0.190834437086093	-0.516238410596026	3.94039735099338	-1.80238410596026	0.365298013245032			
165	3300	0.967841059602649	0.00275496688741723	0.184476821192053	-2.20662251655629	-2.3846357615894	-0.904900662251656				0.928953642384106	0.111788079470199	0.397139072847682	-2.92609271523179	2.54781456953642	-1.14596026490066				0.965827814569536	-0.209271523178808	-0.0559470198675496	0.567417218543046	-2.65350993377483	-1.04026490066225				0.832529801324503	-0.128529801324503	-0.533721854304636	2.20291390728477	-4.0164238410596	0.504370860927152				0.900026490066225	0.115496688741722	0.325933774834437	2.1917880794702	0.891920529801325	1.34251655629139				0.751788079470199	-0.190834437086093	-0.516238410596026	7.86039735099338	0.157615894039735	-2.99470198675497			
166	3320	0.951841059602649	0.00275496688741723	0.200476821192053	-3.32662251655629	-0.984635761589404	-0.624900662251656				0.944953642384106	0.111788079470199	0.397139072847682	-3.76609271523179	2.82781456953642	-0.86596026490066				0.981827814569536	-0.193271523178808	-0.0559470198675496	1.12741721854305	-3.49350993377483	-2.44026490066225				0.832529801324503	-0.112529801324503	-0.533721854304636	-4.79708609271523	-3.7364238410596	1.06437086092715				0.916026490066225	0.115496688741722	0.309933774834437	1.3517880794702	-0.508079470198675	-0.337483443708608				0.767788079470199	-0.190834437086093	-0.532238410596027	3.66039735099338	-0.962384105960265	-1.59470198675497			
167	3340	0.983841059602649	0.0187549668874172	0.200476821192053	-1.92662251655629	0.415364238410596	-1.46490066225166				0.928953642384106	0.0957880794701987	0.397139072847682	2.67390728476821	-0.532185430463576	0.25403973509934				0.965827814569536	-0.177271523178808	-0.0559470198675496	-0.552582781456954	-3.21350993377483	-2.16026490066225				0.816529801324503	-0.112529801324503	-0.517721854304636	-3.67708609271523	-3.4564238410596	-0.0556291390728476				0.916026490066225	0.0994966887417219	0.325933774834437	1.0717880794702	1.73192052980133	-1.73748344370861				0.767788079470199	-0.190834437086093	-0.532238410596027	1.98039735099338	-3.48238410596027	0.645298013245032			
168	3360	0.951841059602649	0.0187549668874172	0.200476821192053	-1.36662251655629	-0.704635761589404	-2.30490066225166				0.912953642384106	0.111788079470199	0.413139072847682	2.95390728476821	-0.532185430463576	0.25403973509934				0.965827814569536	-0.193271523178808	-0.0559470198675496	0.567417218543046	-1.53350993377483	-1.04026490066225				0.800529801324503	-0.0805298013245033	-0.517721854304636	-2.55708609271523	-2.3364238410596	-1.17562913907285				0.948026490066225	0.115496688741722	0.325933774834437	-0.328211920529802	1.45192052980132	-1.17748344370861				0.783788079470199	-0.206834437086093	-0.516238410596026	0.0203973509933773	-3.20238410596026	-0.474701986754968			
169	3380	0.967841059602649	0.0347549668874172	0.216476821192053	1.43337748344371	-3.2246357615894	-1.46490066225166				0.912953642384106	0.0957880794701987	0.429139072847682	2.39390728476821	-1.93218543046358	-0.0259602649006601				0.965827814569536	-0.193271523178808	-0.0559470198675496	1.40741721854305	-2.65350993377483	-1.60026490066225				0.816529801324503	-0.0645298013245033	-0.517721854304636	-2.55708609271523	-3.1764238410596	-0.895629139072848				0.932026490066225	0.131496688741722	0.309933774834437	-0.0482119205298018	0.891920529801325	-0.897483443708608				0.783788079470199	-0.190834437086093	-0.532238410596027	-2.77960264900662	-0.682384105960265	-2.15470198675497			
170	3400	0.983841059602649	0.0347549668874172	0.168476821192053	1.71337748344371	-3.5046357615894	-1.46490066225166				0.944953642384106	0.0637880794701987	0.397139072847682	0.993907284768212	-1.93218543046358	0.25403973509934				0.965827814569536	-0.177271523178808	-0.0399470198675496	1.68741721854305	-2.37350993377483	-1.88026490066225				0.848529801324503	-0.0805298013245033	-0.501721854304636	0.242913907284768	-2.8964238410596	2.18437086092715				0.916026490066225	0.115496688741722	0.341933774834437	4.1517880794702	2.57192052980133	-0.617483443708608				0.783788079470199	-0.174834437086093	-0.548238410596027	0.0203973509933773	3.23761589403974	-2.43470198675497			
171	3420	0.967841059602649	0.00275496688741723	0.216476821192053	0.873377483443709	-3.7846357615894	-2.30490066225166				0.928953642384106	0.0797880794701987	0.413139072847682	-3.76609271523179	2.26781456953642	-0.30596026490066				0.981827814569536	-0.193271523178808	-0.0399470198675496	-0.552582781456954	-2.65350993377483	-1.88026490066225				0.832529801324503	-0.0965298013245033	-0.501721854304636	2.76291390728477	-3.4564238410596	1.62437086092715				0.932026490066225	0.115496688741722	0.309933774834437	3.8717880794702	2.85192052980133	-0.337483443708608				0.783788079470199	-0.174834437086093	-0.548238410596027	-0.539602649006623	4.07761589403974	-3.27470198675497			
172	3440	0.951841059602649	0.0187549668874172	0.216476821192053	1.15337748344371	-1.2646357615894	-2.02490066225166				0.912953642384106	0.127788079470199	0.413139072847682	-0.126092715231788	0.307814569536424	-0.0259602649006601				0.981827814569536	-0.193271523178808	-0.0399470198675496	-1.11258278145695	-2.09350993377483	-2.72026490066225				0.832529801324503	-0.0805298013245033	-0.517721854304636	1.36291390728477	-1.4964238410596	-1.45562913907285				0.916026490066225	0.115496688741722	0.325933774834437	3.5917880794702	3.97192052980133	-1.45748344370861				0.783788079470199	-0.174834437086093	-0.532238410596027	5.90039735099338	0.997615894039735	-4.11470198675497			
173	3460	0.951841059602649	0.0187549668874172	0.232476821192053	1.15337748344371	-0.144635761589404	-2.58490066225166				0.912953642384106	0.111788079470199	0.429139072847682	4.35390728476821	-0.532185430463576	0.53403973509934				0.965827814569536	-0.177271523178808	-0.0559470198675496	2.24741721854305	-3.49350993377483	-3.00026490066225				0.816529801324503	-0.0965298013245033	-0.533721854304636	1.36291390728477	-1.4964238410596	-2.01562913907285				0.916026490066225	0.115496688741722	0.325933774834437	5.5517880794702	4.53192052980133	-1.73748344370861				0.767788079470199	-0.206834437086093	-0.532238410596027	5.62039735099338	1.55761589403974	-5.23470198675497			
174	3480	0.967841059602649	0.0187549668874172	0.232476821192053	0.593377483443709	-3.7846357615894	-2.58490066225166				0.912953642384106	0.0797880794701987	0.429139072847682	4.63390728476821	0.0278145695364242	0.25403973509934				0.965827814569536	-0.193271523178808	-0.0399470198675496	3.92741721854305	-4.61350993377483	-2.16026490066225				0.800529801324503	-0.0965298013245033	-0.517721854304636	-0.597086092715232	-3.1764238410596	-1.17562913907285				0.900026490066225	0.0994966887417219	0.309933774834437	6.6717880794702	5.65192052980133	-2.01748344370861				0.767788079470199	-0.222834437086093	-0.532238410596027	0.0203973509933773	1.55761589403974	-3.27470198675497			
175	3500	0.951841059602649	0.0187549668874172	0.168476821192053	2.55337748344371	-7.7046357615894	-1.74490066225166				0.912953642384106	0.0957880794701987	0.413139072847682	-0.126092715231788	1.14781456953642	0.81403973509934				0.949827814569536	-0.177271523178808	-0.0559470198675496	5.32741721854305	-4.89350993377483	-1.88026490066225				0.800529801324503	-0.0805298013245033	-0.501721854304636	-1.99708609271523	-5.1364238410596	-1.73562913907285				0.900026490066225	0.115496688741722	0.325933774834437	5.8317880794702	7.89192052980133	-2.57748344370861				0.783788079470199	-0.174834437086093	-0.532238410596027	-1.09960264900662	-0.962384105960265	-2.15470198675497			
176	3520	0.967841059602649	0.0187549668874172	0.168476821192053	4.23337748344371	-8.82463576158941	-0.904900662251656				0.896953642384106	0.111788079470199	0.397139072847682	-1.24609271523179	1.70781456953642	0.25403973509934				0.965827814569536	-0.193271523178808	-0.0399470198675496	0.567417218543046	-3.77350993377483	-1.88026490066225				0.800529801324503	-0.0805298013245033	-0.517721854304636	-2.83708609271523	-5.1364238410596	-0.615629139072848				0.916026490066225	0.131496688741722	0.341933774834437	8.3517880794702	5.93192052980133	-2.29748344370861				0.783788079470199	-0.158834437086093	-0.516238410596026	-0.259602649006623	-1.24238410596026	-2.15470198675497			
177	3540	0.967841059602649	0.0347549668874172	0.168476821192053	3.11337748344371	-6.0246357615894	-1.74490066225166				0.928953642384106	0.0957880794701987	0.381139072847682	4.35390728476821	0.587814569536424	0.25403973509934				0.949827814569536	-0.193271523178808	-0.0399470198675496	0.00741721854304636	-5.17350993377483	-1.32026490066225				0.800529801324503	-0.0645298013245033	-0.517721854304636	1.64291390728477	-4.0164238410596	1.62437086092715				0.932026490066225	0.131496688741722	0.341933774834437	2.7517880794702	0.0519205298013249	-1.45748344370861				0.799788079470199	-0.174834437086093	-0.532238410596027	1.98039735099338	1.83761589403974	-5.79470198675497			
178	3560	0.967841059602649	0.0347549668874172	0.216476821192053	-0.526622516556291	-3.2246357615894	-2.58490066225166				0.944953642384106	0.0797880794701987	0.397139072847682	4.63390728476821	1.14781456953642	-0.0259602649006601				0.965827814569536	-0.177271523178808	-0.0559470198675496	2.52741721854305	-4.61350993377483	-2.16026490066225				0.816529801324503	-0.0805298013245033	-0.517721854304636	1.08291390728477	-3.7364238410596	0.784370860927152				0.932026490066225	0.115496688741722	0.309933774834437	3.5917880794702	3.13192052980133	-1.73748344370861				0.783788079470199	-0.174834437086093	-0.548238410596027	1.70039735099338	3.23761589403974	-6.91470198675497			
