No	Time	12-AccX	12-AccY	12-AccZ	12-GyroX	12-GyroY	12-GyroZ	13-AccX	13-AccY	13-AccZ	13-GyroX	13-GyroY	13-GyroZ	14-AccX	14-AccY	14-AccZ	14-GyroX	14-GyroY	14-GyroZ	15-AccX	15-AccY	15-AccZ	15-GyroX	15-GyroY	15-GyroZ	16-AccX	16-AccY	16-AccZ	16-GyroX	16-GyroY	16-GyroZ	17-AccX	17-AccY	17-AccZ	17-GyroX	17-GyroY	17-GyroZ
0	0	0	0	0	0	0	0				0	0	0	0	0	0				0	0	0	0	0	0				0	0	0	0	0	0				0	0	0	0	0	0				0.463788079470199	-0.126834437086093	-0.820238410596026	0.300397350993377	-0.122384105960265	-1.03470198675497			
1	20	-0.264158940397351	0.0507549668874172	-0.951523178807947	-0.246622516556291	-0.424635761589404	-1.18490066225166				0.960953642384106	0.0477880794701987	0.333139072847682	-0.406092715231788	-3.61218543046358	-0.30596026490066				-0.250172185430464	-0.145271523178808	-0.87194701986755	0.287417218543046	0.426490066225167	0.0797350993377501				0.656529801324503	-0.240529801324503	-0.677721854304636	-0.0370860927152318	1.3035761589404	1.62437086092715				0.932026490066225	0.0834966887417219	0.245933774834437	-0.0482119205298018	0.611920529801325	-0.0574834437086077				0.463788079470199	-0.126834437086093	-0.820238410596026	0.300397350993377	-0.682384105960265	-1.03470198675497			
2	40	-0.248158940397351	0.0667549668874172	-0.935523178807947	0.0333774834437086	-0.144635761589404	-0.904900662251656				0.960953642384106	0.0477880794701987	0.317139072847682	0.153907284768212	-4.45218543046358	-0.30596026490066				-0.234172185430464	-0.161271523178808	-0.88794701986755	0.567417218543046	-0.133509933774833	-0.20026490066225				0.640529801324503	-0.208529801324503	-0.677721854304636	-0.597086092715232	0.4635761589404	2.18437086092715				0.948026490066225	0.0674966887417219	0.213933774834437	-1.1682119205298	0.611920529801325	0.782516556291392				0.479788079470199	-0.142834437086093	-0.820238410596026	-0.259602649006623	0.717615894039735	-0.754701986754968			
3	60	-0.248158940397351	0.0667549668874172	-0.935523178807947	-0.526622516556291	-0.144635761589404	-0.904900662251656				0.944953642384106	0.0477880794701987	0.317139072847682	0.153907284768212	-3.33218543046358	0.53403973509934				-0.234172185430464	-0.145271523178808	-0.87194701986755	0.567417218543046	0.146490066225167	0.0797350993377501				0.656529801324503	-0.224529801324503	-0.693721854304636	1.08291390728477	0.7435761589404	1.34437086092715				0.948026490066225	0.0674966887417219	0.213933774834437	-1.7282119205298	-0.508079470198675	0.782516556291392				0.463788079470199	-0.126834437086093	-0.836238410596026	-0.259602649006623	1.55761589403974	-1.31470198675497			
4	80	-0.248158940397351	0.0667549668874172	-0.935523178807947	-1.08662251655629	0.415364238410596	-0.904900662251656				0.944953642384106	0.0477880794701987	0.317139072847682	0.153907284768212	-3.89218543046358	0.25403973509934				-0.234172185430464	-0.145271523178808	-0.87194701986755	-0.552582781456954	0.706490066225167	0.0797350993377501				0.640529801324503	-0.224529801324503	-0.693721854304636	1.64291390728477	1.0235761589404	1.62437086092715				0.948026490066225	0.0674966887417219	0.213933774834437	-0.608211920529802	-0.788079470198675	-0.617483443708608				0.463788079470199	-0.126834437086093	-0.820238410596026	0.0203973509933773	0.997615894039735	-0.474701986754968			
5	100	-0.264158940397351	0.0667549668874172	-0.935523178807947	0.313377483443709	0.135364238410596	-0.624900662251656				0.944953642384106	0.0477880794701987	0.317139072847682	0.153907284768212	-2.21218543046358	0.25403973509934				-0.250172185430464	-0.145271523178808	-0.87194701986755	-0.832582781456954	0.426490066225167	0.63973509933775				0.656529801324503	-0.240529801324503	-0.693721854304636	-0.597086092715232	-0.3764238410596	-0.335629139072848				0.948026490066225	0.0834966887417219	0.229933774834437	0.511788079470198	-0.508079470198675	-0.0574834437086077				0.463788079470199	-0.126834437086093	-0.820238410596026	0.580397350993377	-0.962384105960265	-0.194701986754968			
6	120	-0.264158940397351	0.0667549668874172	-0.935523178807947	-0.806622516556291	0.415364238410596	-1.74490066225166				0.944953642384106	0.0477880794701987	0.317139072847682	0.713907284768212	-2.21218543046358	0.81403973509934				-0.250172185430464	-0.145271523178808	-0.88794701986755	0.00741721854304636	1.26649006622517	0.35973509933775				0.656529801324503	-0.224529801324503	-0.645721854304636	-1.15708609271523	-1.2164238410596	0.784370860927152				0.948026490066225	0.0674966887417219	0.229933774834437	-0.0482119205298018	0.611920529801325	0.222516556291392				0.463788079470199	-0.126834437086093	-0.820238410596026	0.0203973509933773	-1.24238410596026	0.0852980132450323			
7	140	-0.248158940397351	0.0667549668874172	-0.919523178807947	-0.246622516556291	0.135364238410596	-0.904900662251656				0.944953642384106	0.0477880794701987	0.301139072847682	1.55390728476821	-2.21218543046358	1.09403973509934				-0.250172185430464	-0.145271523178808	-0.87194701986755	1.40741721854305	0.146490066225167	0.0797350993377501				0.640529801324503	-0.224529801324503	-0.677721854304636	-0.0370860927152318	-0.9364238410596	0.784370860927152				0.948026490066225	0.0834966887417219	0.229933774834437	-0.328211920529802	-0.228079470198675	-0.0574834437086077				0.463788079470199	-0.142834437086093	-0.820238410596026	-1.09960264900662	0.157615894039735	0.365298013245032			
8	160	-0.248158940397351	0.0667549668874172	-0.935523178807947	-0.806622516556291	-0.424635761589404	-1.18490066225166				0.944953642384106	0.0477880794701987	0.301139072847682	1.83390728476821	-0.812185430463576	0.25403973509934				-0.250172185430464	-0.129271523178808	-0.87194701986755	-0.832582781456954	0.426490066225167	-0.48026490066225				0.640529801324503	-0.224529801324503	-0.661721854304636	-0.317086092715232	0.1835761589404	1.06437086092715				0.932026490066225	0.0674966887417219	0.213933774834437	-1.1682119205298	-1.34807947019868	0.222516556291392				0.463788079470199	-0.126834437086093	-0.820238410596026	-0.539602649006623	0.717615894039735	0.0852980132450323			
9	180	-0.248158940397351	0.0667549668874172	-0.951523178807947	-1.08662251655629	0.135364238410596	-1.46490066225166				0.960953642384106	0.0637880794701987	0.301139072847682	1.83390728476821	-0.812185430463576	0.81403973509934				-0.234172185430464	-0.145271523178808	-0.88794701986755	-0.272582781456954	0.146490066225167	0.0797350993377501				0.640529801324503	-0.224529801324503	-0.677721854304636	0.522913907284768	1.0235761589404	1.34437086092715				0.932026490066225	0.0674966887417219	0.229933774834437	-0.0482119205298018	0.611920529801325	0.222516556291392				0.463788079470199	-0.126834437086093	-0.804238410596027	-0.259602649006623	0.717615894039735	0.925298013245032			
10	200	-0.248158940397351	0.0667549668874172	-0.951523178807947	0.313377483443709	0.695364238410596	-0.904900662251656				0.944953642384106	0.0477880794701987	0.301139072847682	1.55390728476821	0.0278145695364242	0.81403973509934				-0.234172185430464	-0.145271523178808	-0.87194701986755	0.287417218543046	-0.693509933774834	-0.76026490066225				0.640529801324503	-0.224529801324503	-0.677721854304636	1.08291390728477	1.0235761589404	0.224370860927152				0.932026490066225	0.0674966887417219	0.229933774834437	1.0717880794702	0.611920529801325	0.502516556291392				0.479788079470199	-0.126834437086093	-0.820238410596026	-0.259602649006623	0.157615894039735	0.0852980132450323			
11	220	-0.248158940397351	0.0667549668874172	-0.935523178807947	-0.246622516556291	-0.424635761589404	-1.18490066225166				0.944953642384106	0.0477880794701987	0.317139072847682	1.55390728476821	0.0278145695364242	0.53403973509934				-0.250172185430464	-0.145271523178808	-0.87194701986755	1.68741721854305	0.426490066225167	-1.32026490066225				0.640529801324503	-0.224529801324503	-0.693721854304636	0.802913907284768	1.8635761589404	0.784370860927152				0.948026490066225	0.0674966887417219	0.229933774834437	-0.888211920529802	0.331920529801325	-0.617483443708608				0.463788079470199	-0.142834437086093	-0.820238410596026	-0.259602649006623	-0.122384105960265	0.0852980132450323			
12	240	-0.248158940397351	0.0667549668874172	-0.935523178807947	0.593377483443709	-0.984635761589404	-0.904900662251656				0.944953642384106	0.0477880794701987	0.301139072847682	0.993907284768212	0.867814569536424	1.65403973509934				-0.250172185430464	-0.145271523178808	-0.87194701986755	0.00741721854304636	-0.133509933774833	-0.76026490066225				0.640529801324503	-0.224529801324503	-0.693721854304636	0.522913907284768	1.0235761589404	0.784370860927152				0.948026490066225	0.0674966887417219	0.229933774834437	-0.0482119205298018	0.331920529801325	-0.337483443708608				0.463788079470199	-0.142834437086093	-0.820238410596026	-0.259602649006623	0.717615894039735	-0.194701986754968			
13	260	-0.248158940397351	0.0667549668874172	-0.951523178807947	0.313377483443709	-0.424635761589404	-0.624900662251656				0.960953642384106	0.0477880794701987	0.301139072847682	0.993907284768212	-0.532185430463576	0.81403973509934				-0.250172185430464	-0.145271523178808	-0.87194701986755	1.68741721854305	-0.973509933774833	-1.04026490066225				0.640529801324503	-0.224529801324503	-0.693721854304636	-0.0370860927152318	0.1835761589404	1.62437086092715				0.948026490066225	0.0674966887417219	0.229933774834437	0.791788079470198	-1.34807947019868	-0.337483443708608				0.463788079470199	-0.126834437086093	-0.820238410596026	-0.539602649006623	0.157615894039735	0.0852980132450323			
14	280	-0.264158940397351	0.0667549668874172	-0.935523178807947	0.313377483443709	0.135364238410596	-0.904900662251656				0.960953642384106	0.0477880794701987	0.301139072847682	-0.406092715231788	1.42781456953642	-0.0259602649006601				-0.250172185430464	-0.161271523178808	-0.88794701986755	1.12741721854305	-0.413509933774833	-0.76026490066225				0.640529801324503	-0.224529801324503	-0.693721854304636	-0.0370860927152318	-0.3764238410596	0.784370860927152				0.948026490066225	0.0674966887417219	0.229933774834437	-0.328211920529802	-0.788079470198675	0.502516556291392				0.463788079470199	-0.142834437086093	-0.820238410596026	0.0203973509933773	0.437615894039735	0.645298013245032			
15	300	-0.264158940397351	0.0667549668874172	-0.935523178807947	0.313377483443709	-0.704635761589404	-1.18490066225166				0.960953642384106	0.0477880794701987	0.317139072847682	-1.24609271523179	2.26781456953642	-0.30596026490066				-0.234172185430464	-0.145271523178808	-0.87194701986755	0.847417218543046	0.146490066225167	-0.20026490066225				0.640529801324503	-0.240529801324503	-0.693721854304636	-0.597086092715232	-0.6564238410596	0.504370860927152				0.948026490066225	0.0674966887417219	0.245933774834437	-0.888211920529802	0.331920529801325	0.502516556291392				0.479788079470199	-0.142834437086093	-0.820238410596026	-1.09960264900662	0.437615894039735	0.0852980132450323			
16	320	-0.248158940397351	0.0667549668874172	-0.935523178807947	-0.246622516556291	-0.424635761589404	-0.344900662251656				0.960953642384106	0.0637880794701987	0.317139072847682	-0.126092715231788	0.867814569536424	0.53403973509934				-0.234172185430464	-0.145271523178808	-0.85594701986755	-0.552582781456954	-0.413509933774833	-0.48026490066225				0.656529801324503	-0.240529801324503	-0.693721854304636	-1.99708609271523	-0.0964238410596001	0.224370860927152				0.948026490066225	0.0674966887417219	0.229933774834437	-1.1682119205298	0.0519205298013249	-0.897483443708608				0.479788079470199	-0.142834437086093	-0.836238410596026	-0.259602649006623	0.157615894039735	-0.194701986754968			
17	340	-0.264158940397351	0.0667549668874172	-0.951523178807947	0.593377483443709	-0.424635761589404	-0.904900662251656				0.960953642384106	0.0477880794701987	0.317139072847682	0.993907284768212	-0.252185430463576	0.53403973509934				-0.250172185430464	-0.145271523178808	-0.87194701986755	-0.272582781456954	-0.133509933774833	0.63973509933775				0.656529801324503	-0.224529801324503	-0.677721854304636	-2.55708609271523	-0.6564238410596	-0.0556291390728476				0.948026490066225	0.0674966887417219	0.229933774834437	-1.1682119205298	-0.228079470198675	-0.337483443708608				0.479788079470199	-0.142834437086093	-0.820238410596026	-1.09960264900662	0.717615894039735	0.925298013245032			
18	360	-0.264158940397351	0.0667549668874172	-0.935523178807947	0.593377483443709	0.415364238410596	-0.624900662251656				0.944953642384106	0.0477880794701987	0.301139072847682	0.993907284768212	-1.09218543046358	0.81403973509934				-0.250172185430464	-0.145271523178808	-0.87194701986755	0.847417218543046	-0.133509933774833	0.0797350993377501				0.656529801324503	-0.224529801324503	-0.677721854304636	-0.0370860927152318	0.1835761589404	1.62437086092715				0.948026490066225	0.0674966887417219	0.213933774834437	-0.608211920529802	0.0519205298013249	0.222516556291392				0.463788079470199	-0.126834437086093	-0.836238410596026	-1.37960264900662	-0.122384105960265	0.365298013245032			
19	380	-0.264158940397351	0.0667549668874172	-0.919523178807947	0.0333774834437086	0.975364238410596	-1.18490066225166				0.960953642384106	0.0317880794701987	0.301139072847682	1.83390728476821	-1.09218543046358	1.37403973509934				-0.250172185430464	-0.129271523178808	-0.87194701986755	0.287417218543046	0.426490066225167	-0.20026490066225				0.656529801324503	-0.224529801324503	-0.677721854304636	-1.15708609271523	-2.0564238410596	0.504370860927152				0.948026490066225	0.0674966887417219	0.213933774834437	-0.888211920529802	-0.788079470198675	-0.617483443708608				0.479788079470199	-0.126834437086093	-0.836238410596026	0.300397350993377	-2.08238410596027	-0.754701986754968			
20	400	-0.264158940397351	0.0667549668874172	-0.935523178807947	-0.246622516556291	0.975364238410596	-0.624900662251656				0.944953642384106	0.0477880794701987	0.285139072847682	2.67390728476821	-1.65218543046358	1.09403973509934				-0.250172185430464	-0.129271523178808	-0.87194701986755	-0.272582781456954	-0.693509933774834	-0.76026490066225				0.656529801324503	-0.208529801324503	-0.693721854304636	-1.43708609271523	-3.1764238410596	1.06437086092715				0.932026490066225	0.0834966887417219	0.213933774834437	-0.888211920529802	-1.06807947019868	-0.0574834437086077				0.479788079470199	-0.142834437086093	-0.852238410596026	2.54039735099338	-4.04238410596027	-0.474701986754968			
21	420	-0.248158940397351	0.0507549668874172	-0.951523178807947	-0.526622516556291	-0.144635761589404	-0.624900662251656				0.944953642384106	0.0317880794701987	0.301139072847682	2.95390728476821	-0.252185430463576	1.93403973509934				-0.250172185430464	-0.145271523178808	-0.87194701986755	0.567417218543046	-0.133509933774833	-0.20026490066225				0.656529801324503	-0.208529801324503	-0.677721854304636	-0.0370860927152318	-3.7364238410596	0.224370860927152				0.948026490066225	0.0674966887417219	0.229933774834437	-0.608211920529802	-1.06807947019868	1.34251655629139				0.479788079470199	-0.126834437086093	-0.852238410596026	3.10039735099338	-6.28238410596027	0.0852980132450323			
22	440	-0.248158940397351	0.0667549668874172	-0.935523178807947	-2.20662251655629	-0.984635761589404	-1.46490066225166				0.960953642384106	0.0477880794701987	0.317139072847682	4.63390728476821	0.867814569536424	2.77403973509934				-0.234172185430464	-0.161271523178808	-0.88794701986755	0.567417218543046	0.426490066225167	-1.60026490066225				0.640529801324503	-0.224529801324503	-0.677721854304636	4.72291390728477	-7.9364238410596	-0.615629139072848				0.948026490066225	0.0674966887417219	0.229933774834437	1.0717880794702	-1.62807947019868	2.18251655629139				0.463788079470199	-0.142834437086093	-0.852238410596026	1.70039735099338	-7.12238410596027	-0.474701986754968			
23	460	-0.232158940397351	0.0507549668874172	-0.935523178807947	-1.64662251655629	-1.5446357615894	-1.18490066225166				0.960953642384106	0.0477880794701987	0.317139072847682	3.51390728476821	-4.17218543046358	2.21403973509934				-0.218172185430464	-0.145271523178808	-0.88794701986755	0.287417218543046	-0.693509933774834	-2.16026490066225				0.640529801324503	-0.208529801324503	-0.693721854304636	10.0429139072848	-19.1364238410596	-0.335629139072848				0.948026490066225	0.0674966887417219	0.213933774834437	0.791788079470198	-0.788079470198675	2.18251655629139				0.463788079470199	-0.142834437086093	-0.868238410596026	1.70039735099338	-14.1223841059603	-0.194701986754968			
24	480	-0.232158940397351	0.0507549668874172	-0.935523178807947	-1.08662251655629	-0.984635761589404	-0.624900662251656				0.944953642384106	0.0317880794701987	0.301139072847682	4.07390728476821	-8.65218543046358	1.37403973509934				-0.202172185430464	-0.129271523178808	-0.87194701986755	0.287417218543046	-0.973509933774833	-3.28026490066225				0.624529801324503	-0.240529801324503	-0.757721854304636	5.28291390728477	-19.9764238410596	0.784370860927152				0.932026490066225	0.0514966887417219	0.245933774834437	3.3117880794702	-0.228079470198675	2.74251655629139				0.447788079470199	-0.158834437086093	-0.852238410596026	1.70039735099338	-13.5623841059603	0.0852980132450323			
25	500	-0.248158940397351	0.0507549668874172	-0.935523178807947	-1.64662251655629	-1.2646357615894	-0.344900662251656				0.896953642384106	0.0317880794701987	0.317139072847682	2.95390728476821	-8.09218543046358	1.09403973509934				-0.234172185430464	-0.129271523178808	-0.87194701986755	0.847417218543046	-1.53350993377483	-3.00026490066225				0.656529801324503	-0.320529801324503	-0.725721854304636	-0.597086092715232	-23.3364238410596	0.784370860927152				0.932026490066225	0.0514966887417219	0.165933774834437	1.3517880794702	-6.10807947019868	1.90251655629139				0.415788079470199	-0.126834437086093	-0.852238410596026	-0.539602649006623	-15.8023841059603	1.48529801324503			
26	520	-0.264158940397351	0.0507549668874172	-0.935523178807947	-1.08662251655629	-2.6646357615894	-0.0649006622516557				0.944953642384106	0.0317880794701987	0.269139072847682	2.67390728476821	-3.05218543046358	1.09403973509934				-0.250172185430464	-0.129271523178808	-0.88794701986755	-0.272582781456954	-1.25350993377483	-4.12026490066225				0.624529801324503	-0.288529801324503	-0.773721854304636	-6.19708609271523	-31.4564238410596	-3.41562913907285				0.916026490066225	0.0674966887417219	0.197933774834437	-2.5682119205298	-0.508079470198675	0.782516556291392				0.415788079470199	-0.110834437086093	-0.852238410596026	-0.259602649006623	-13.5623841059603	3.72529801324503			
27	540	-0.264158940397351	0.0667549668874172	-0.967523178807947	-2.76662251655629	-1.2646357615894	0.495099337748344				1.02495364238411	0.0317880794701987	0.237139072847682	-4.04609271523179	-4.17218543046358	-1.98596026490066				-0.250172185430464	-0.177271523178808	-0.88794701986755	2.80741721854305	-0.133509933774833	-4.12026490066225				0.592529801324503	-0.272529801324503	-0.789721854304636	-4.51708609271523	-34.2564238410596	-5.09562913907285				0.932026490066225	0.0674966887417219	0.229933774834437	-0.608211920529802	3.97192052980133	0.222516556291392				0.399788079470199	-0.142834437086093	-0.820238410596026	-7.53960264900662	-7.96238410596027	5.40529801324503			
28	560	-0.248158940397351	0.0667549668874172	-0.935523178807947	-3.88662251655629	0.135364238410596	2.17509933774834				1.16895364238411	0.0317880794701987	0.301139072847682	-7.40609271523179	-36.6521854304636	-4.78596026490066				-0.234172185430464	-0.177271523178808	-0.87194701986755	5.04741721854305	0.426490066225167	-5.80026490066225				0.592529801324503	-0.240529801324503	-0.821721854304636	-12.6370860927152	-36.2164238410596	-7.61562913907285				0.964026490066225	0.0354966887417219	0.149933774834437	-0.0482119205298018	3.69192052980133	-1.45748344370861				0.399788079470199	-0.174834437086093	-0.852238410596026	-6.97960264900662	-5.72238410596027	4.84529801324503			
29	580	-0.248158940397351	0.0507549668874172	-0.919523178807947	-4.44662251655629	-0.424635761589404	3.29509933774834				0.880953642384106	0.0637880794701987	0.301139072847682	1.27390728476821	-69.9721854304636	-3.66596026490066				-0.234172185430464	-0.145271523178808	-0.82394701986755	4.76741721854305	-2.65350993377483	-5.52026490066225				0.608529801324503	-0.224529801324503	-0.805721854304636	-21.0370860927152	-41.2564238410596	-11.5356291390728				0.948026490066225	0.0514966887417219	0.181933774834437	-0.888211920529802	5.93192052980133	0.782516556291392				0.447788079470199	-0.190834437086093	-0.868238410596026	7.58039735099338	-13.0023841059603	13.245298013245			
30	600	-0.280158940397351	0.0667549668874172	-0.919523178807947	-7.52662251655629	-1.5446357615894	2.45509933774835				0.816953642384106	0.0637880794701987	0.189139072847682	6.87390728476821	-32.7321854304636	1.09403973509934				-0.282172185430464	-0.129271523178808	-0.87194701986755	-2.51258278145695	-2.09350993377483	-1.60026490066225				0.544529801324503	-0.224529801324503	-0.773721854304636	-33.9170860927152	-46.8564238410596	-16.5756291390728				0.916026490066225	0.0834966887417219	0.165933774834437	-2.8482119205298	6.21192052980133	1.90251655629139				0.383788079470199	-0.190834437086093	-0.868238410596026	0.300397350993377	-9.64238410596027	20.525298013245			
31	620	-0.280158940397351	0.0667549668874172	-0.967523178807947	1.15337748344371	0.135364238410596	0.495099337748344				0.960953642384106	0.111788079470199	0.269139072847682	8.27390728476821	1.98781456953642	1.93403973509934				-0.282172185430464	-0.193271523178808	-0.91994701986755	-1.95258278145695	0.706490066225167	0.0797350993377501				0.496529801324503	-0.208529801324503	-0.757721854304636	-38.1170860927152	-45.1764238410596	-18.8156291390729				0.916026490066225	0.0994966887417219	0.197933774834437	-3.4082119205298	7.89192052980133	0.782516556291392				0.367788079470199	-0.142834437086093	-0.868238410596026	-6.69960264900662	-8.80238410596027	22.765298013245			
32	640	-0.264158940397351	0.0827549668874172	-0.951523178807947	0.873377483443709	1.8153642384106	-0.0649006622516557				0.992953642384106	0.0797880794701987	0.221139072847682	6.31390728476821	-0.532185430463576	6.13403973509934				-0.250172185430464	-0.193271523178808	-0.88794701986755	1.12741721854305	0.426490066225167	0.63973509933775				0.496529801324503	-0.160529801324503	-0.757721854304636	-36.9970860927152	-40.1364238410596	-18.8156291390729				0.948026490066225	0.0834966887417219	0.197933774834437	-3.6882119205298	10.9719205298013	-0.897483443708608				0.399788079470199	-0.0948344370860927	-0.868238410596026	4.50039735099338	-12.7223841059603	24.165298013245			
33	660	-0.280158940397351	0.0987549668874172	-0.919523178807947	-3.32662251655629	2.0953642384106	-0.0649006622516557				0.960953642384106	0.0637880794701987	0.221139072847682	2.11390728476821	-3.33218543046358	5.01403973509934				-0.234172185430464	-0.145271523178808	-0.85594701986755	-2.51258278145695	-2.37350993377483	0.63973509933775				0.496529801324503	-0.160529801324503	-0.725721854304636	-29.4370860927152	-34.5364238410596	-15.4556291390728				0.980026490066225	0.0834966887417219	0.197933774834437	-2.5682119205298	11.5319205298013	-0.617483443708608				0.367788079470199	-0.142834437086093	-0.852238410596026	14.8603973509934	-10.2023841059603	25.845298013245			
34	680	-0.264158940397351	0.0987549668874172	-0.919523178807947	-1.36662251655629	0.695364238410596	-0.904900662251656				0.944953642384106	0.0637880794701987	0.205139072847682	8.83390728476821	1.42781456953642	4.73403973509934				-0.266172185430464	-0.161271523178808	-0.83994701986755	-3.07258278145695	-1.25350993377483	3.43973509933775				0.480529801324503	-0.144529801324503	-0.725721854304636	-22.1570860927152	-23.6164238410596	-12.6556291390728				0.980026490066225	0.0834966887417219	0.181933774834437	-2.5682119205298	8.45192052980133	0.782516556291392				0.383788079470199	-0.158834437086093	-0.836238410596026	13.4603973509934	-7.68238410596027	24.445298013245			
35	700	-0.280158940397351	0.0987549668874172	-0.951523178807947	-1.64662251655629	0.135364238410596	-1.18490066225166				0.944953642384106	0.0317880794701987	0.205139072847682	3.51390728476821	14.5878145695364	4.45403973509934				-0.266172185430464	-0.209271523178808	-0.85594701986755	-0.552582781456954	0.146490066225167	9.03973509933775				0.448529801324503	-0.176529801324503	-0.741721854304636	-13.7570860927152	-14.9364238410596	-6.77562913907285				0.948026490066225	0.0674966887417219	0.181933774834437	-2.8482119205298	9.01192052980133	2.74251655629139				0.367788079470199	-0.174834437086093	-0.820238410596026	7.86039735099338	-3.48238410596027	25.845298013245			
36	720	-0.264158940397351	0.114754966887417	-0.935523178807947	-1.36662251655629	0.975364238410596	0.215099337748344				0.976953642384106	0.0477880794701987	0.237139072847682	0.433907284768212	24.9478145695364	1.65403973509934				-0.250172185430464	-0.241271523178808	-0.85594701986755	-2.23258278145695	-0.133509933774833	13.5197350993378				0.432529801324503	-0.176529801324503	-0.757721854304636	-8.99708609271523	-4.8564238410596	-1.17562913907285				0.916026490066225	0.0674966887417219	0.229933774834437	-2.0082119205298	9.57192052980133	3.58251655629139				0.367788079470199	-0.174834437086093	-0.804238410596027	6.18039735099338	0.997615894039735	28.085298013245			
37	740	-0.264158940397351	0.0667549668874172	-0.951523178807947	0.0333774834437086	1.8153642384106	-0.344900662251656				0.992953642384106	0.0477880794701987	0.221139072847682	-2.92609271523179	26.3478145695364	1.93403973509934				-0.266172185430464	-0.177271523178808	-0.88794701986755	-13.992582781457	0.426490066225167	13.7997350993378				0.432529801324503	-0.160529801324503	-0.757721854304636	-8.15708609271523	7.7435761589404	2.18437086092715				0.948026490066225	0.0514966887417219	0.245933774834437	-2.5682119205298	10.9719205298013	2.18251655629139				0.367788079470199	-0.206834437086093	-0.788238410596027	4.22039735099338	6.31761589403974	28.925298013245			
38	760	-0.264158940397351	0.0507549668874172	-0.935523178807947	0.313377483443709	2.0953642384106	-2.58490066225166				0.992953642384106	0.0317880794701987	0.237139072847682	-2.92609271523179	31.1078145695364	3.61403973509934				-0.282172185430464	-0.0492715231788079	-0.90394701986755	-19.312582781457	3.22649006622517	9.31973509933775				0.480529801324503	-0.176529801324503	-0.757721854304636	-2.55708609271523	16.7035761589404	4.98437086092715				0.964026490066225	0.0194966887417219	0.277933774834437	-4.8082119205298	14.3319205298013	2.18251655629139				0.415788079470199	-0.222834437086093	-0.788238410596027	1.14039735099338	11.6376158940397	25.845298013245			
39	780	-0.280158940397351	0.0827549668874172	-0.951523178807947	-1.92662251655629	2.9353642384106	-1.74490066225166				0.960953642384106	-0.000211920529801304	0.317139072847682	-4.32609271523179	35.5878145695364	2.49403973509934				-0.234172185430464	-0.00127152317880793	-0.88794701986755	-6.43258278145695	4.90649006622517	2.87973509933775				0.496529801324503	-0.176529801324503	-0.773721854304636	-1.15708609271523	26.5035761589404	8.34437086092715				0.948026490066225	0.0354966887417219	0.261933774834437	-10.4082119205298	15.1719205298013	1.62251655629139				0.463788079470199	-0.222834437086093	-0.788238410596027	-4.73960264900662	17.2376158940397	22.485298013245			
40	800	-0.264158940397351	0.0827549668874172	-0.935523178807947	-4.72662251655629	2.6553642384106	-0.624900662251656				0.928953642384106	0.0317880794701987	0.365139072847682	-9.36609271523179	37.5478145695364	-0.30596026490066				-0.250172185430464	0.0307284768211921	-0.90394701986755	-1.11258278145695	2.66649006622517	-0.48026490066225				0.528529801324503	-0.176529801324503	-0.789721854304636	-0.597086092715232	32.6635761589404	10.0243708609272				0.932026490066225	0.0354966887417219	0.245933774834437	-11.5282119205298	14.6119205298013	1.34251655629139				0.463788079470199	-0.190834437086093	-0.820238410596026	-8.93960264900662	22.5576158940397	22.765298013245			
41	820	-0.232158940397351	0.0667549668874172	-0.951523178807947	-2.76662251655629	3.4953642384106	1.33509933774834				0.992953642384106	0.0957880794701987	0.381139072847682	-6.84609271523179	25.5078145695364	-0.86596026490066				-0.266172185430464	0.0147284768211921	-0.88794701986755	1.68741721854305	1.82649006622517	-4.40026490066225				0.528529801324503	-0.160529801324503	-0.757721854304636	-0.0370860927152318	27.6235761589404	10.5843708609272				0.900026490066225	0.0514966887417219	0.261933774834437	-13.4882119205298	14.6119205298013	1.90251655629139				0.447788079470199	-0.190834437086093	-0.820238410596026	-6.13960264900662	23.3976158940397	23.045298013245			
42	840	-0.248158940397351	0.0827549668874172	-0.919523178807947	1.15337748344371	3.4953642384106	1.61509933774834				0.944953642384106	0.0957880794701987	0.237139072847682	-2.08609271523179	19.0678145695364	0.81403973509934				-0.282172185430464	-0.0332715231788079	-0.90394701986755	5.88741721854305	3.78649006622517	-7.48026490066225				0.576529801324503	-0.144529801324503	-0.821721854304636	1.36291390728477	17.8235761589404	10.5843708609272				0.900026490066225	0.0354966887417219	0.277933774834437	-16.5682119205298	16.5719205298013	1.06251655629139				0.447788079470199	-0.174834437086093	-0.820238410596026	-4.17960264900662	22.2776158940397	23.045298013245			
43	860	-0.248158940397351	0.0827549668874172	-0.903523178807947	0.0333774834437086	1.8153642384106	1.89509933774834				0.944953642384106	0.0477880794701987	0.253139072847682	-4.88609271523179	29.1478145695364	-1.70596026490066				-0.250172185430464	-0.0652715231788079	-0.85594701986755	14.287417218543	2.66649006622517	-9.44026490066225				0.688529801324503	-0.144529801324503	-0.837721854304636	-9.27708609271523	9.1435761589404	9.18437086092715				0.932026490066225	0.0674966887417219	0.293933774834437	-17.1282119205298	13.4919205298013	0.502516556291392				0.447788079470199	-0.206834437086093	-0.820238410596026	0.0203973509933773	14.4376158940397	24.725298013245			
44	880	-0.248158940397351	0.0827549668874172	-0.919523178807947	-0.246622516556291	0.695364238410596	1.89509933774834				0.928953642384106	0.0317880794701987	0.349139072847682	-6.00609271523179	28.8678145695364	-4.22596026490066				-0.250172185430464	-0.129271523178808	-0.85594701986755	15.687417218543	-0.133509933774833	-9.16026490066225				0.688529801324503	-0.112529801324503	-0.821721854304636	-17.3970860927152	4.6635761589404	7.50437086092715				0.948026490066225	0.115496688741722	0.325933774834437	-15.1682119205298	11.5319205298013	-0.617483443708608				0.447788079470199	-0.190834437086093	-0.820238410596026	-7.81960264900662	11.3576158940397	27.805298013245			
45	900	-0.264158940397351	0.0827549668874172	-0.951523178807947	-1.08662251655629	-0.424635761589404	1.33509933774834				0.928953642384106	0.0317880794701987	0.381139072847682	-11.8860927152318	24.3878145695364	-3.10596026490066				-0.218172185430464	-0.241271523178808	-0.83994701986755	16.807417218543	1.26649006622517	-5.24026490066225				0.672529801324503	-0.112529801324503	-0.789721854304636	-20.1970860927152	2.7035761589404	7.50437086092715				0.948026490066225	0.115496688741722	0.309933774834437	-11.2482119205298	10.4119205298013	-0.897483443708608				0.447788079470199	-0.190834437086093	-0.836238410596026	-8.65960264900662	8.55761589403974	30.325298013245			
46	920	-0.296158940397351	0.0827549668874172	-0.951523178807947	-1.92662251655629	0.415364238410596	0.215099337748344				0.992953642384106	0.0317880794701987	0.381139072847682	-15.5260927152318	15.9878145695364	-2.26596026490066				-0.218172185430464	-0.353271523178808	-0.83994701986755	11.207417218543	2.10649006622517	1.75973509933775				0.672529801324503	-0.128529801324503	-0.789721854304636	-17.1170860927152	-2.3364238410596	9.18437086092715				0.980026490066225	0.0834966887417219	0.325933774834437	-7.3282119205298	9.85192052980133	-2.01748344370861				0.463788079470199	-0.190834437086093	-0.836238410596026	-4.45960264900662	7.71761589403974	26.965298013245			
47	940	-0.312158940397351	0.0667549668874172	-0.935523178807947	-4.16662251655629	2.9353642384106	-0.0649006622516557				1.00895364238411	0.0317880794701987	0.333139072847682	-19.4460927152318	9.54781456953642	-2.26596026490066				-0.250172185430464	-0.321271523178808	-0.87194701986755	-1.11258278145695	2.38649006622517	6.23973509933775				0.688529801324503	-0.160529801324503	-0.789721854304636	-15.4370860927152	-3.4564238410596	12.2643708609272				0.996026490066225	0.0514966887417219	0.357933774834437	-4.8082119205298	10.1319205298013	-0.897483443708608				0	0	0	0	0	0			
48	960	0	0	0	0	0	0				0	0	0	0	0	0				0	0	0	0	0	0				0.656529801324503	-0.176529801324503	-0.805721854304636	-11.5170860927152	-3.7364238410596	11.7043708609272				0	0	0	0	0	0				0.527788079470199	-0.254834437086093	-0.868238410596026	-1.37960264900662	2.95761589403974	21.925298013245			
49	980	-0.232158940397351	0.0987549668874172	-0.967523178807947	-5.84662251655629	6.5753642384106	1.89509933774834				0.960953642384106	0.0317880794701987	0.429139072847682	-21.9660927152318	3.10781456953642	-1.42596026490066				-0.202172185430464	-0.177271523178808	-0.87194701986755	-5.59258278145695	6.02649006622517	7.91973509933775				0.656529801324503	-0.128529801324503	-0.805721854304636	-13.1970860927152	-7.9364238410596	12.5443708609272				0.980026490066225	0.00349668874172187	0.373933774834437	-5.9282119205298	5.93192052980133	-1.45748344370861				0.527788079470199	-0.302834437086093	-0.884238410596026	-1.93960264900662	0.717615894039735	21.925298013245			
50	1000	-0.216158940397351	0.0827549668874172	-0.967523178807947	-6.96662251655629	5.4553642384106	2.73509933774834				0.960953642384106	0.0317880794701987	0.397139072847682	-11.3260927152318	-7.25218543046358	3.33403973509934				-0.218172185430464	-0.145271523178808	-0.85594701986755	-8.95258278145695	0.986490066225167	10.1597350993378				0.672529801324503	-0.128529801324503	-0.805721854304636	-12.0770860927152	-17.4564238410596	13.6643708609272				0.964026490066225	0.0194966887417219	0.341933774834437	-9.2882119205298	1.17192052980133	-0.0574834437086077				0.511788079470199	-0.302834437086093	-0.884238410596026	-6.13960264900662	-2.36238410596027	23.885298013245			
51	1020	-0.216158940397351	0.0507549668874172	-0.951523178807947	-4.44662251655629	4.6153642384106	4.13509933774834				0.976953642384106	0.0157880794701987	0.365139072847682	-4.04609271523179	-13.1321854304636	4.17403973509934				-0.202172185430464	-0.177271523178808	-0.87194701986755	-6.43258278145695	2.66649006622517	11.2797350993378				0.704529801324503	-0.176529801324503	-0.789721854304636	-7.03708609271523	-29.2164238410596	11.9843708609272				0.948026490066225	0.0194966887417219	0.309933774834437	-7.0482119205298	-3.30807947019868	2.46251655629139				0.479788079470199	-0.270834437086093	-0.916238410596027	-9.77960264900662	-3.20238410596026	28.925298013245			
52	1040	-0.216158940397351	0.0667549668874172	-0.967523178807947	-2.76662251655629	4.0553642384106	5.53509933774834				0.960953642384106	-0.000211920529801304	0.317139072847682	-0.966092715231788	-24.6121854304636	4.17403973509934				-0.218172185430464	-0.145271523178808	-0.87194701986755	-12.032582781457	-0.693509933774834	10.9997350993378				0.672529801324503	-0.160529801324503	-0.885721854304636	-7.87708609271523	-42.3764238410596	6.94437086092715				0.932026490066225	0.0194966887417219	0.309933774834437	-3.6882119205298	-9.46807947019868	1.62251655629139				0.479788079470199	-0.286834437086093	-0.916238410596027	2.54039735099338	-10.2023841059603	36.485298013245			
53	1060	-0.216158940397351	0.0667549668874172	-0.967523178807947	-8.64662251655629	4.6153642384106	7.49509933774834				0.880953642384106	-0.0162119205298013	0.285139072847682	-6.00609271523179	-28.5321854304636	4.17403973509934				-0.202172185430464	-0.0972715231788079	-0.83994701986755	-13.432582781457	1.54649006622517	10.4397350993378				0.656529801324503	-0.0965298013245033	-0.869721854304636	-20.7570860927152	-59.7364238410596	2.46437086092715				0.932026490066225	0.0354966887417219	0.277933774834437	-6.4882119205298	-10.3080794701987	-0.0574834437086077				0.431788079470199	-0.302834437086093	-0.900238410596026	11.2203973509934	-36.5223841059603	40.405298013245			
54	1080	-0.168158940397351	0.0347549668874172	-0.935523178807947	-13.1266225165563	-0.984635761589404	8.05509933774835				0.864953642384106	-0.0322119205298013	0.333139072847682	-11.6060927152318	-23.2121854304636	3.33403973509934				-0.170172185430464	-0.0652715231788079	-0.82394701986755	-8.95258278145695	-6.01350993377483	8.75973509933775				0.608529801324503	-0.0325298013245033	-0.869721854304636	-19.3570860927152	-74.5764238410596	-5.37562913907285				0.932026490066225	0.0354966887417219	0.261933774834437	-4.5282119205298	-21.7880794701987	2.18251655629139				0.399788079470199	-0.286834437086093	-0.916238410596027	-0.539602649006623	-43.5223841059603	47.405298013245			
55	1100	-0.248158940397351	0.0507549668874172	-0.919523178807947	-8.08662251655629	-0.704635761589404	6.65509933774834				0.896953642384106	0.0157880794701987	0.269139072847682	-4.88609271523179	-18.4521854304636	5.29403973509934				-0.250172185430464	-0.0332715231788079	-0.88794701986755	-10.632582781457	-4.89350993377483	5.67973509933775				0.528529801324503	-0.144529801324503	-0.869721854304636	-2.27708609271523	-81.0164238410596	-14.3356291390729				0.900026490066225	0.0354966887417219	0.197933774834437	-2.2882119205298	-25.4280794701987	4.42251655629139				0.367788079470199	-0.222834437086093	-0.948238410596026	-9.49960264900662	-45.7623841059603	59.165298013245			
56	1120	-0.264158940397351	0.0667549668874172	-0.919523178807947	-10.8866225165563	-0.144635761589404	6.09509933774834				0.960953642384106	0.0797880794701987	0.253139072847682	2.11390728476821	-1.37218543046358	6.41403973509934				-0.282172185430464	-0.0492715231788079	-0.93594701986755	-6.43258278145695	-5.73350993377484	-1.04026490066225				0.400529801324503	-0.128529801324503	-0.949721854304636	-13.1970860927152	-98.3764238410596	-18.5356291390728				0.884026490066225	0.0514966887417219	0.181933774834437	-2.5682119205298	-14.7880794701987	6.10251655629139				0.303788079470199	-0.174834437086093	-0.932238410596026	-6.41960264900662	-49.4023841059603	64.765298013245			
57	1140	-0.280158940397351	0.114754966887417	-0.935523178807947	-14.8066225165563	0.695364238410596	5.53509933774834				1.04095364238411	0.0637880794701987	0.253139072847682	1.55390728476821	-10.3321854304636	7.81403973509934				-0.330172185430464	-0.0172715231788079	-0.91994701986755	-2.79258278145695	-4.33350993377483	-4.96026490066225				0.464529801324503	-0.128529801324503	-0.933721854304636	-35.0370860927152	-114.33642384106	-13.7756291390728				0.948026490066225	0.0834966887417219	0.245933774834437	1.6317880794702	-8.06807947019868	8.06251655629139				0.255788079470199	-0.174834437086093	-0.916238410596027	6.46039735099338	-51.3623841059603	55.805298013245			
58	1160	-0.328158940397351	0.130754966887417	-0.919523178807947	-15.6466225165563	3.4953642384106	6.09509933774834				1.05695364238411	0.0157880794701987	0.253139072847682	6.87390728476821	-22.9321854304636	5.01403973509934				-0.314172185430464	-0.0652715231788079	-0.87194701986755	5.04741721854305	-0.133509933774833	-5.80026490066225				0.464529801324503	-0.176529801324503	-0.997721854304636	-44.5570860927152	-126.93642384106	-15.1756291390728				1.01202649006623	0.0514966887417219	0.197933774834437	4.4317880794702	-6.10807947019868	7.78251655629139				0.255788079470199	-0.254834437086093	-0.996238410596026	19.9003973509934	-52.2023841059603	52.165298013245			
59	1180	-0.344158940397351	0.146754966887417	-0.919523178807947	-9.76662251655629	6.5753642384106	6.93509933774835				1.04095364238411	0.0477880794701987	0.317139072847682	13.8739072847682	-20.9721854304636	4.45403973509934				-0.346172185430464	-0.113271523178808	-0.88794701986755	5.88741721854305	-0.133509933774833	-3.84026490066225				0.384529801324503	-0.112529801324503	-0.997721854304636	-42.0370860927152	-115.73642384106	-28.0556291390728				1.06002649006623	0.0514966887417219	0.213933774834437	0.231788079470198	-1.90807947019868	4.98251655629139				0.255788079470199	-0.286834437086093	-1.06023841059603	36.9803973509934	-44.9223841059603	55.245298013245			
60	1200	-0.296158940397351	0.178754966887417	-0.967523178807947	-14.2466225165563	8.2553642384106	9.17509933774834				1.05695364238411	0.0957880794701987	0.317139072847682	14.4339072847682	-21.8121854304636	6.69403973509934				-0.298172185430464	-0.161271523178808	-0.91994701986755	5.88741721854305	-0.413509933774833	-2.16026490066225				0.320529801324503	-0.0485298013245033	-1.09372185430464	-40.3570860927152	-116.29642384106	-26.9356291390729				1.06002649006623	0.0674966887417219	0.213933774834437	-2.8482119205298	-2.46807947019868	1.62251655629139				0.367788079470199	-0.254834437086093	-1.06023841059603	39.7803973509934	-50.5223841059603	61.405298013245			
61	1220	-0.216158940397351	0.210754966887417	-0.967523178807947	-20.4066225165563	9.9353642384106	15.0550993377483				0.976953642384106	0.0957880794701987	0.237139072847682	9.67390728476821	-26.5721854304636	6.69403973509934				-0.186172185430464	-0.113271523178808	-0.85594701986755	12.327417218543	0.706490066225167	-1.60026490066225				0.288529801324503	-0.0325298013245033	-1.06172185430464	-24.1170860927152	-126.37642384106	-20.2156291390728				1.09202649006623	0.0674966887417219	0.149933774834437	0.791788079470198	-11.1480794701987	1.34251655629139				0.303788079470199	-0.398834437086093	-1.07623841059603	50.4203973509934	-86.0823841059603	71.485298013245			
62	1240	-0.232158940397351	0.178754966887417	-0.935523178807947	-28.2466225165563	9.9353642384106	21.2150993377483				0.880953642384106	0.0637880794701987	0.141139072847682	-6.84609271523179	-20.4121854304636	7.81403973509934				-0.234172185430464	-0.0652715231788079	-0.87194701986755	7.28741721854305	0.986490066225167	-1.60026490066225				0.144529801324503	-0.0965298013245033	-1.09372185430464	-23.5570860927152	-146.53642384106	-24.4156291390728				1.14002649006623	-0.0285033112582781	0.0539337748344371	-0.608211920529802	-20.3880794701987	4.14251655629139				0.255788079470199	-0.446834437086093	-0.964238410596026	8.42039735099338	-92.2423841059603	89.125298013245			
63	1260	-0.280158940397351	0.0827549668874172	-0.903523178807947	-28.8066225165563	3.7753642384106	21.7750993377483				0.864953642384106	0.0157880794701987	0.0931390728476822	-6.28609271523179	9.26781456953642	4.73403973509934				-0.298172185430464	-0.0812715231788079	-0.91994701986755	9.24741721854305	2.10649006622517	-1.04026490066225				-0.0154701986754967	-0.128529801324503	-1.15772185430464	-26.9170860927152	-156.33642384106	-30.0156291390729				1.09202649006623	-0.0285033112582781	0.00593377483443711	-1.7282119205298	-24.3080794701987	5.82251655629139				0.0477880794701987	-0.350834437086093	-0.996238410596026	-2.21960264900662	-87.4823841059603	106.485298013245			
64	1280	-0.360158940397351	0.114754966887417	-1.01552317880795	-26.2866225165563	6.0153642384106	18.1350993377483				1.08895364238411	-0.0162119205298013	0.157139072847682	4.35390728476821	36.1478145695364	6.69403973509934				-0.346172185430464	-0.129271523178808	-0.91994701986755	15.967417218543	4.62649006622517	-0.76026490066225				-0.111470198675497	-0.144529801324503	-1.02972185430464	-49.5970860927152	-159.41642384106	-26.3756291390728				1.02802649006623	0.0354966887417219	0.0859337748344371	2.1917880794702	-20.3880794701987	4.98251655629139				-0.000211920529801336	-0.286834437086093	-0.964238410596026	-24.0596026490066	-92.8023841059603	110.405298013245			
65	1300	-0.408158940397351	0.194754966887417	-1.07952317880795	-42.8066225165563	0.975364238410596	18.6950993377483				1.07295364238411	-0.0322119205298013	0.189139072847682	-2.64609271523179	43.7078145695364	6.41403973509934				-0.394172185430464	-0.193271523178808	-0.93594701986755	17.647417218543	8.26649006622517	-2.72026490066225				-0.0954701986754967	-0.0805298013245033	-0.917721854304636	-61.9170860927152	-164.45642384106	-22.4556291390729				0.996026490066225	0.0194966887417219	0.117933774834437	-6.2082119205298	-13.3880794701987	2.74251655629139				-0.0162119205298013	-0.206834437086093	-0.980238410596026	-20.9796026490066	-112.40238410596	112.085298013245			
66	1320	-0.504158940397351	0.226754966887417	-1.25552317880795	-64.6466225165563	10.4953642384106	15.0550993377483				0.992953642384106	0.0157880794701987	0.509139072847682	-21.6860927152318	81.2278145695364	7.81403973509934				-0.426172185430464	-0.241271523178808	-1.09594701986755	12.607417218543	19.4664900662252	-1.88026490066225				-0.143470198675497	0.0474701986754967	-0.949721854304636	-54.0770860927152	-146.53642384106	-19.0956291390728				1.09202649006623	-0.0445033112582781	0.149933774834437	-8.1682119205298	-5.82807947019868	-0.897483443708608				-0.160211920529801	-0.318834437086093	-0.964238410596026	10.3803973509934	-103.72238410596	115.725298013245			
67	1340	-0.408158940397351	0.290754966887417	-0.759523178807947	-66.0466225165563	70.9753642384106	12.2550993377483				1.21695364238411	-0.0802119205298013	0.637139072847682	-22.5260927152318	77.8678145695364	14.8140397350993				-0.426172185430464	-0.193271523178808	-1.20794701986755	28.567417218543	42.9864900662252	0.91973509933775				-0.175470198675497	0.0474701986754967	-0.949721854304636	-17.1170860927152	-104.53642384106	-6.49562913907285				1.30002649006623	0.0354966887417219	0.533933774834437	-7.6082119205298	3.97192052980133	-5.09748344370861				-0.0962119205298013	-0.542834437086093	-0.980238410596026	7.86039735099338	-58.6423841059603	101.165298013245			
68	1360	-0.328158940397351	0.482754966887417	-1.20752317880795	9.55337748344371	45.7753642384106	10.5750993377483				1.40895364238411	0.0797880794701987	0.621139072847682	-16.6460927152318	63.5878145695364	5.85403973509934				-0.426172185430464	-0.321271523178808	-0.87194701986755	-22.672582781457	41.3064900662252	2.59973509933775				-0.0154701986754967	0.207470198675497	-1.04572185430464	11.4429139072848	-55.8164238410596	7.78437086092715				1.26802649006623	-0.0285033112582781	0.789933774834437	10.8717880794702	4.81192052980133	6.94251655629139				0.111788079470199	-0.494834437086093	-1.06023841059603	-4.17960264900662	-37.3623841059603	87.165298013245			
69	1380	-0.520158940397351	0.00275496688741723	-1.17552317880795	-6.40662251655629	59.7753642384106	29.3350993377483				1.40895364238411	-0.112211920529801	0.893139072847682	7.71390728476821	52.3878145695364	7.81403973509934				-0.618172185430464	-0.193271523178808	-1.19194701986755	-15.392582781457	51.6664900662252	-1.32026490066225				0.176529801324503	0.303470198675497	-1.12572185430464	57.9229139072848	-17.1764238410596	33.5443708609272				1.28402649006623	-0.124503311258278	0.933933774834437	3.8717880794702	12.0919205298013	5.82251655629139				0.127788079470199	-0.702834437086093	-0.964238410596026	11.7803973509934	-30.9223841059603	32.285298013245			
70	1400	-0.440158940397351	0.0667549668874172	-1.15952317880795	15.7133774834437	62.2953642384106	31.8550993377483				1.52095364238411	-0.0962119205298013	0.989139072847682	-3.48609271523179	34.1878145695364	-9.54596026490066				-0.314172185430464	-0.0812715231788079	-1.06394701986755	-17.632582781457	61.1864900662252	0.91973509933775				0.368529801324503	0.287470198675497	-1.44572185430464	94.8829139072848	14.4635761589404	36.0643708609272				1.34802649006623	0.0354966887417219	0.885933774834437	-31.1282119205298	6.49192052980132	1.90251655629139				0.287788079470199	-0.686834437086093	-1.06023841059603	-6.13960264900662	6.59761589403974	15.485298013245			
71	1420	-0.024158940397351	0.434754966887417	-1.03152317880795	-3.88662251655629	72.3753642384106	36.6150993377484				1.32895364238411	-0.000211920529801304	0.861139072847682	-11.3260927152318	-0.532185430463576	-24.6659602649007				-0.0581721854304636	-0.0972715231788079	-1.12794701986755	-10.352582781457	77.4264900662252	-1.32026490066225				0.560529801324503	0.143470198675497	-1.66972185430464	90.1229139072848	17.2635761589404	29.9043708609272				1.36402649006623	0.163496688741722	0.741933774834437	-24.4082119205298	0.331920529801325	2.46251655629139				0.271788079470199	-0.670834437086093	-1.10823841059603	1.70039735099338	20.5976158940397	-3.27470198675497			
72	1440	0.215841059602649	0.338754966887417	-1.19152317880795	22.7133774834437	83.5753642384106	34.9350993377483				1.28095364238411	-0.0962119205298013	0.893139072847682	21.1539072847682	-4.45218543046358	-25.2259602649007				-0.0421721854304636	-0.209271523178808	-0.99994701986755	-10.912582781457	85.5464900662252	-3.00026490066225				0.576529801324503	-0.0805298013245033	-1.57372185430464	23.4829139072848	-2.8964238410596	27.1043708609272				1.31602649006623	0.163496688741722	0.709933774834437	3.0317880794702	-4.42807947019868	6.38251655629139				0.159788079470199	-0.590834437086093	-0.996238410596026	-16.7796026490066	38.5176158940397	8.20529801324503			
73	1460	0.247841059602649	0.274754966887417	-1.09552317880795	40.9133774834437	94.2153642384106	30.1750993377483				1.24895364238411	-0.0162119205298013	0.781139072847682	51.1139072847682	-62.4121854304636	-14.5859602649007				0.0378278145695364	-0.241271523178808	-1.04794701986755	-27.992582781457	93.1064900662252	-4.96026490066225				0.320529801324503	-0.000529801324503289	-1.30172185430464	-55.7570860927152	-10.1764238410596	19.8243708609272				1.20402649006623	0.211496688741722	0.517933774834437	-3.9682119205298	-24.8680794701987	8.90251655629139				0.0157880794701987	-0.622834437086093	-0.948238410596026	-22.3796026490066	38.7976158940397	3.16529801324503			
74	1480	0.279841059602649	0.210754966887417	-1.11152317880795	40.6333774834437	105.975364238411	23.1750993377483				1.20095364238411	0.223788079470199	0.525139072847682	22.2739072847682	-82.2921854304636	3.05403973509934				0.149827814569536	-0.0972715231788079	-1.09594701986755	-24.072582781457	99.5464900662252	-8.60026490066225				0.000529801324503301	0.207470198675497	-1.23772185430464	-74.2370860927152	-0.9364238410596	26.2643708609272				1.18802649006623	0.227496688741722	0.469933774834437	-1.4482119205298	-19.2680794701987	5.82251655629139				0.0477880794701987	-0.590834437086093	-0.996238410596026	-24.6196026490066	44.6776158940397	-2.99470198675497			
75	1500	0.343841059602649	0.130754966887417	-1.07952317880795	24.9533774834437	118.015364238411	15.3350993377483				1.24895364238411	-0.0802119205298013	0.637139072847682	-12.4460927152318	-77.2521854304636	12.8540397350993				0.133827814569536	-0.113271523178808	-1.11194701986755	-12.312582781457	111.026490066225	-16.1602649006623				-0.159470198675497	0.143470198675497	-1.14172185430464	-38.3970860927152	34.9035761589404	44.1843708609272				1.14002649006623	0.0674966887417219	0.421933774834437	14.5117880794702	-15.0680794701987	4.70251655629139				0.0637880794701987	-0.414834437086093	-1.10823841059603	-24.8996026490066	41.8776158940397	-5.23470198675497			
76	1520	0.311841059602649	0.194754966887417	-1.03152317880795	6.75337748344371	128.935364238411	13.0950993377483				1.21695364238411	-0.160211920529801	0.653139072847682	-32.3260927152318	-61.8521854304636	8.65403973509934				0.245827814569536	-0.0652715231788079	-0.95194701986755	-8.95258278145695	112.706490066225	-20.3602649006623				-0.175470198675497	0.0634701986754967	-1.06172185430464	-2.27708609271523	52.8235761589404	44.4643708609272				1.12402649006623	-0.0605033112582781	0.421933774834437	25.4317880794702	2.85192052980133	6.66251655629139				-0.0162119205298013	-0.350834437086093	-1.06023841059603	-29.3796026490066	54.1976158940397	-8.87470198675497			
77	1540	0.279841059602649	0.194754966887417	-1.01552317880795	-11.1666225165563	131.175364238411	15.3350993377483				1.23295364238411	-0.0322119205298013	0.605139072847682	-22.8060927152318	-77.5321854304636	2.21403973509934				0.277827814569536	-0.113271523178808	-0.96794701986755	13.727417218543	116.066490066225	-21.2002649006623				-0.0634701986754967	0.0154701986754967	-0.997721854304636	19.0029139072848	74.6635761589404	42.2243708609272				1.17202649006623	-0.156503311258278	0.373933774834437	26.8317880794702	17.1319205298013	4.14251655629139				0.0317880794701987	-0.398834437086093	-0.948238410596026	-15.6596026490066	76.3176158940397	-12.794701986755			
78	1560	0.263841059602649	0.274754966887417	-0.999523178807947	-20.4066225165563	130.895364238411	17.0150993377483				1.20095364238411	0.127788079470199	0.301139072847682	-5.72609271523179	-80.6121854304636	-3.94596026490066				0.277827814569536	-0.209271523178808	-0.93594701986755	17.087417218543	124.466490066225	-13.9202649006623				-0.0154701986754967	-0.0645298013245033	-1.04572185430464	28.2429139072848	82.2235761589404	44.1843708609272				1.12402649006623	-0.156503311258278	0.293933774834437	13.9517880794702	6.49192052980132	-3.41748344370861				0.0317880794701987	-0.430834437086093	-0.932238410596026	-22.3796026490066	81.3576158940397	-22.314701986755			
79	1580	0.295841059602649	0.322754966887417	-0.967523178807947	-1.92662251655629	132.855364238411	16.7350993377483				1.12095364238411	-0.0322119205298013	0.269139072847682	-8.80609271523179	-76.4121854304636	4.17403973509934				0.309827814569536	-0.257271523178808	-0.85594701986755	5.32741721854305	135.386490066225	-10.0002649006623				-0.0154701986754967	-0.0645298013245033	-0.997721854304636	33.8429139072848	98.4635761589404	42.5043708609272				0.980026490066225	-0.0125033112582781	0.229933774834437	-1.4482119205298	-0.508079470198675	-6.77748344370861				0.0477880794701987	-0.382834437086093	-0.916238410596027	-5.01960264900662	73.7976158940397	-38.834701986755			
80	1600	0.327841059602649	0.242754966887417	-0.887523178807947	11.5133774834437	132.015364238411	15.8950993377483				1.08895364238411	-0.0642119205298013	0.237139072847682	-16.9260927152318	-76.6921854304636	-0.86596026490066				0.373827814569536	-0.145271523178808	-0.79194701986755	-5.87258278145695	141.826490066225	-8.88026490066225				0.0485298013245033	0.0314701986754967	-0.853721854304636	24.8829139072848	107.70357615894	18.9843708609272				0.916026490066225	0.00349668874172187	0.165933774834437	4.1517880794702	10.4119205298013	-2.01748344370861				0.0477880794701987	-0.366834437086093	-0.788238410596027	-2.21960264900662	81.6376158940397	-44.994701986755			
81	1620	0.343841059602649	0.178754966887417	-0.823523178807947	11.5133774834437	130.335364238411	13.0950993377483				0.928953642384106	0.0797880794701987	0.109139072847682	10.2339072847682	-83.4121854304636	-8.42596026490066				0.309827814569536	0.0147284768211921	-0.79194701986755	-2.79258278145695	140.986490066225	-10.5602649006623				0.0965298013245033	0.0314701986754967	-0.741721854304636	25.7229139072848	108.54357615894	-0.615629139072848				0.964026490066225	-0.0765033112582781	0.133933774834437	-1.7282119205298	17.9719205298013	-3.13748344370861				0.159788079470199	-0.270834437086093	-0.756238410596026	-2.49960264900662	91.9976158940397	-46.394701986755			
82	1640	0.407841059602649	0.130754966887417	-0.743523178807947	17.9533774834437	124.735364238411	7.77509933774834				0.800953642384106	0.127788079470199	-0.00286092715231785	42.4339072847682	-86.2121854304636	-7.02596026490066				0.277827814569536	0.0627284768211921	-0.72794701986755	7.00741721854305	137.626490066225	-8.60026490066225				0.112529801324503	0.0314701986754967	-0.629721854304636	39.4429139072848	109.94357615894	-3.97562913907285				0.884026490066225	-0.0125033112582781	0.149933774834437	-19.9282119205298	13.2119205298013	-8.45748344370861				0.239788079470199	-0.222834437086093	-0.676238410596026	10.6603973509934	103.19761589404	-50.874701986755			
83	1660	0.455841059602649	0.0827549668874172	-0.727523178807947	15.7133774834437	117.455364238411	3.85509933774834				0.736953642384106	-0.0162119205298013	-0.114860927152318	47.1939072847682	-89.0121854304636	1.09403973509934				0.245827814569536	-0.00127152317880793	-0.64794701986755	11.207417218543	135.386490066225	-10.0002649006623				0.112529801324503	0.0474701986754967	-0.693721854304636	61.5629139072848	113.58357615894	-5.37562913907285				0.756026490066225	0.115496688741722	0.181933774834437	-29.7282119205298	1.45192052980132	-6.21748344370861				0.255788079470199	-0.110834437086093	-0.692238410596026	-1.37960264900662	99.2776158940397	-64.874701986755			
84	1680	0.359841059602649	0.146754966887417	-0.695523178807947	6.47337748344371	115.775364238411	1.61509933774834				0.704953642384106	0.0317880794701987	-0.0508609271523178	10.5139072847682	-48.4121854304636	0.53403973509934				0.277827814569536	-0.0972715231788079	-0.64794701986755	4.20741721854305	132.306490066225	-10.0002649006623				0.176529801324503	0.0634701986754967	-0.677721854304636	62.6829139072848	131.22357615894	-8.17562913907285				0.564026490066225	0.179496688741722	0.197933774834437	-23.2882119205298	-23.4680794701987	-2.57748344370861				0.175788079470199	0.0171655629139073	-0.708238410596026	-10.0596026490066	89.1976158940397	-72.434701986755			
85	1700	0.359841059602649	0.162754966887417	-0.631523178807947	5.91337748344371	119.135364238411	-0.344900662251656				0.688953642384106	0.207788079470199	0.0771390728476822	14.9939072847682	-69.1321854304636	-4.50596026490066				0.293827814569536	-0.0812715231788079	-0.67994701986755	-4.75258278145695	127.266490066225	-11.1202649006623				0.240529801324503	0.111470198675497	-0.565721854304636	70.8029139072848	135.42357615894	-5.93562913907285				0.500026490066225	0.179496688741722	0.101933774834437	-18.8082119205298	-37.4680794701987	5.54251655629139				0.143788079470199	-0.142834437086093	-0.548238410596027	1.70039735099338	75.7576158940397	-51.994701986755			
86	1720	0.311841059602649	0.242754966887417	-0.631523178807947	17.3933774834437	121.095364238411	-3.70490066225166				0.560953642384106	0.175788079470199	-0.114860927152318	44.6739072847682	-89.5721854304636	1.09403973509934				0.261827814569536	-0.0812715231788079	-0.71194701986755	-6.99258278145695	129.506490066225	-10.2802649006622				0.208529801324503	-0.000529801324503289	-0.389721854304636	73.8829139072848	108.26357615894	-7.33562913907285				0.532026490066225	0.163496688741722	-0.0100662251655629	-4.5282119205298	-30.4680794701987	7.78251655629139				0.159788079470199	-0.206834437086093	-0.532238410596027	-9.49960264900662	69.8776158940397	-35.474701986755			
87	1740	0.327841059602649	0.306754966887417	-0.615523178807947	28.5933774834437	113.535364238411	-5.94490066225166				0.528953642384106	0.159788079470199	-0.0508609271523178	55.3139072847682	-64.6521854304636	-0.30596026490066				0.325827814569536	-0.0812715231788079	-0.72794701986755	-13.712582781457	121.946490066225	-5.52026490066225				0.240529801324503	-0.160529801324503	-0.613721854304636	83.1229139072848	87.5435761589404	-19.3756291390728				0.532026490066225	0.0994966887417219	0.0219337748344371	7.5117880794702	-27.9480794701987	4.42251655629139				0.223788079470199	-0.0628344370860927	-0.580238410596026	-22.3796026490066	60.9176158940397	-36.034701986755			
88	1760	0.391841059602649	0.322754966887417	-0.695523178807947	32.5133774834437	106.535364238411	-3.14490066225166				0.480953642384106	0.127788079470199	-0.114860927152318	57.8339072847682	-73.0521854304636	4.45403973509934				0.453827814569536	0.0627284768211921	-0.67994701986755	-12.312582781457	121.666490066225	-15.0402649006623				0.256529801324503	-0.144529801324503	-0.661721854304636	71.9229139072848	94.2635761589404	-20.4956291390729				0.580026490066225	0.0834966887417219	0.0859337748344371	1.3517880794702	-31.8680794701987	2.74251655629139				0.159788079470199	0.0651655629139073	-0.564238410596026	-32.7396026490066	50.5576158940397	-41.914701986755			
89	1780	0.439841059602649	0.242754966887417	-0.631523178807947	27.4733774834437	100.095364238411	0.495099337748344				0.496953642384106	-0.000211920529801304	-0.162860927152318	41.3139072847682	-65.2121854304636	11.7340397350993				0.501827814569536	0.174728476821192	-0.71194701986755	13.167417218543	139.306490066225	-26.8002649006623				0.224529801324503	-0.144529801324503	-0.533721854304636	47.8429139072848	92.3035761589404	-12.0956291390728				0.596026490066225	0.0514966887417219	0.0219337748344371	8.3517880794702	-38.5880794701987	4.98251655629139				0.143788079470199	0.0491655629139073	-0.612238410596026	-37.2196026490066	47.1976158940397	-45.274701986755			
90	1800	0.471841059602649	0.178754966887417	-0.583523178807947	42.8733774834437	96.7353642384106	2.45509933774835				0.624953642384106	-0.0642119205298013	0.0611390728476822	8.27390728476821	-24.3321854304636	6.13403973509934				0.501827814569536	0.158728476821192	-0.59994701986755	20.727417218543	120.266490066225	-32.1202649006623				0.144529801324503	-0.192529801324503	-0.533721854304636	47.2829139072848	62.6235761589404	-14.6156291390728				0.580026490066225	-0.0445033112582781	0.0219337748344371	22.6317880794702	-37.4680794701987	8.34251655629139				0.159788079470199	-0.0468344370860927	-0.660238410596027	-4.73960264900662	32.9176158940397	-37.994701986755			
91	1820	0.471841059602649	0.178754966887417	-0.599523178807947	52.3933774834437	86.3753642384106	-2.02490066225166				0.688953642384106	0.0317880794701987	0.109139072847682	12.1939072847682	-45.0521854304636	-0.0259602649006601				0.597827814569536	0.0467284768211921	-0.63194701986755	0.00741721854304636	102.066490066225	-20.3602649006623				0.192529801324503	-0.144529801324503	-0.629721854304636	51.4829139072848	54.7835761589404	-17.6956291390729				0.564026490066225	-0.0445033112582781	0.0379337748344371	16.4717880794702	-22.9080794701987	5.54251655629139				0.239788079470199	-0.174834437086093	-0.628238410596026	-2.49960264900662	30.1176158940397	-26.234701986755			
92	1840	0.631841059602649	0.0507549668874172	-0.615523178807947	44.5533774834437	77.6953642384106	-5.38490066225166				0.656953642384106	-0.0162119205298013	-0.146860927152318	24.2339072847682	-66.6121854304636	-2.82596026490066				0.549827814569536	-0.0492715231788079	-0.51994701986755	-2.23258278145695	98.1464900662252	-17.5602649006623				0.272529801324503	-0.176529801324503	-0.677721854304636	65.4829139072848	53.3835761589404	-3.13562913907285				0.692026490066225	-0.0125033112582781	0.0699337748344371	18.1517880794702	-14.5080794701987	5.82251655629139				0.367788079470199	-0.174834437086093	-0.644238410596026	-22.0996026490066	31.2376158940397	-25.114701986755			
93	1860	0.679841059602649	0.0187549668874172	-0.599523178807947	27.4733774834437	68.1753642384106	-7.62490066225166				0.576953642384106	-0.0642119205298013	-0.258860927152318	31.2339072847682	-72.2121854304636	2.21403973509934				0.565827814569536	-0.177271523178808	-0.27994701986755	-9.23258278145695	81.0664900662252	-13.9202649006623				0.288529801324503	-0.272529801324503	-0.661721854304636	70.8029139072848	44.1435761589404	0.504370860927152				0.836026490066225	-0.0285033112582781	0.00593377483443711	13.6717880794702	-33.5480794701987	10.3025165562914				0.399788079470199	-0.174834437086093	-0.612238410596026	-36.6596026490066	32.9176158940397	-22.874701986755			
94	1880	0.615841059602649	0.114754966887417	-0.503523178807947	12.0733774834437	60.8953642384106	-2.58490066225166				0.496953642384106	0.0637880794701987	-0.258860927152318	23.3939072847682	-22.9321854304636	-5.90596026490066				0.709827814569536	-0.129271523178808	-0.42394701986755	-15.952582781457	69.5864900662252	-12.2402649006623				0.336529801324503	-0.320529801324503	-0.645721854304636	53.4429139072848	35.4635761589404	-9.01562913907285				0.740026490066225	-0.0125033112582781	0.0539337748344371	10.5917880794702	-39.4280794701987	11.1425165562914				0.367788079470199	-0.158834437086093	-0.724238410596026	-40.0196026490066	26.4776158940397	-22.034701986755			
95	1900	0.679841059602649	0.162754966887417	-0.551523178807947	10.6733774834437	49.4153642384106	-0.344900662251656				0.864953642384106	-0.0322119205298013	0.237139072847682	11.9139072847682	29.9878145695364	-7.30596026490066				0.789827814569536	-0.0492715231788079	-0.42394701986755	-28.272582781457	62.5864900662252	-5.80026490066225				0.384529801324503	-0.304529801324503	-0.709721854304636	38.8829139072848	33.2235761589404	-7.33562913907285				0.676026490066225	-0.0125033112582781	0.117933774834437	3.8717880794702	-31.5880794701987	6.66251655629139				0.303788079470199	-0.0788344370860927	-0.724238410596026	-23.4996026490066	16.9576158940397	-18.954701986755			
96	1920	0.775841059602649	0.0667549668874172	-0.599523178807947	22.1533774834437	39.8953642384106	-4.82490066225166				0.896953642384106	-0.0482119205298013	0.141139072847682	9.39390728476821	-40.0121854304636	-1.42596026490066				0.773827814569536	-0.0172715231788079	-0.43994701986755	-36.952582781457	54.1864900662252	-4.40026490066225				0.400529801324503	-0.272529801324503	-0.709721854304636	34.1229139072848	34.9035761589404	5.26437086092715				0.740026490066225	-0.0925033112582781	0.117933774834437	11.7117880794702	-29.3480794701987	3.58251655629139				0.335788079470199	-0.0628344370860927	-0.772238410596026	-19.0196026490066	14.4376158940397	-12.794701986755			
97	1940	0.679841059602649	0.0507549668874172	-0.583523178807947	18.7933774834437	32.8953642384106	-3.42490066225166				0.624953642384106	0.0317880794701987	-0.194860927152318	-0.126092715231788	-48.4121854304636	-6.46596026490066				0.853827814569536	-0.0172715231788079	-0.42394701986755	-22.392582781457	41.5864900662252	-4.96026490066225				0.416529801324503	-0.288529801324503	-0.677721854304636	36.9229139072848	27.6235761589404	6.66437086092715				0.788026490066225	0.00349668874172187	0.0699337748344371	4.9917880794702	-24.8680794701987	3.86251655629139				0.431788079470199	-0.126834437086093	-0.788238410596027	-3.89960264900662	7.71761589403974	-6.07470198675497			
98	1960	0.679841059602649	0.0667549668874172	-0.535523178807947	9.55337748344371	28.6953642384106	-3.42490066225166				0.768953642384106	0.0317880794701987	-0.162860927152318	-2.36609271523179	14.0278145695364	-5.90596026490066				0	0	0	0	0	0				0.480529801324503	-0.320529801324503	-0.757721854304636	32.7229139072848	20.6235761589404	2.18437086092715				0.820026490066225	0.0354966887417219	0.0539337748344371	1.9117880794702	-13.1080794701987	1.62251655629139				0	0	0	0	0	0			
99	1980	0	0	0	0	0	0				0	0	0	0	0	0				0	0	0	0	0	0				0.496529801324503	-0.352529801324503	-0.773721854304636	19.2829139072848	20.6235761589404	3.30437086092715				0.868026490066225	-0.0605033112582781	0.117933774834437	3.5917880794702	-10.3080794701987	-0.617483443708608				0.463788079470199	-0.142834437086093	-0.756238410596026	-13.4196026490066	4.07761589403974	-1.31470198675497			
100	2000	0.791841059602649	-0.109245033112583	-0.583523178807947	-3.04662251655629	15.2553642384106	0.495099337748344				0.800953642384106	-0.000211920529801304	-0.0668609271523178	-6.84609271523179	-37.7721854304636	4.17403973509934				0.805827814569536	-0.0972715231788079	-0.40794701986755	-15.672582781457	21.4264900662252	-3.00026490066225				0.480529801324503	-0.336529801324503	-0.709721854304636	7.80291390728477	19.5035761589404	2.74437086092715				0.868026490066225	0.00349668874172187	0.0699337748344371	-4.2482119205298	-7.78807947019868	0.502516556291392				0.495788079470199	-0.110834437086093	-0.788238410596027	-1.93960264900662	9.11761589403974	0.645298013245032			
101	2020	0.695841059602649	-0.0612450331125828	-0.583523178807947	-8.36662251655629	11.0553642384106	2.17509933774834				0.768953642384106	-0.000211920529801304	-0.130860927152318	-16.0860927152318	-9.49218543046358	2.49403973509934				0.757827814569536	-0.129271523178808	-0.39194701986755	-19.872582781457	14.4264900662252	-1.32026490066225				0.480529801324503	-0.288529801324503	-0.693721854304636	-1.99708609271523	11.1035761589404	1.90437086092715				0.852026490066225	0.00349668874172187	0.0859337748344371	-6.2082119205298	-1.90807947019868	1.34251655629139				0.447788079470199	-0.0948344370860927	-0.772238410596026	9.26039735099338	1.27761589403974	-0.194701986754968			
102	2040	0.743841059602649	0.0187549668874172	-0.583523178807947	-16.4866225165563	11.3353642384106	1.61509933774834				0.928953642384106	0.0637880794701987	-0.0188609271523178	-15.8060927152318	1.70781456953642	-1.42596026490066				0.757827814569536	-0.0652715231788079	-0.37594701986755	-17.912582781457	9.66649006622517	-2.44026490066225				0.464529801324503	-0.272529801324503	-0.709721854304636	-3.67708609271523	4.6635761589404	2.74437086092715				0.868026490066225	0.0194966887417219	0.0859337748344371	-11.5282119205298	0.611920529801325	-0.0574834437086077				0.415788079470199	-0.126834437086093	-0.708238410596026	7.86039735099338	0.157615894039735	-2.99470198675497			
103	2060	0.807841059602649	0.0667549668874172	-0.519523178807947	-3.88662251655629	11.3353642384106	3.57509933774835				1.00895364238411	0.0157880794701987	-0.162860927152318	-1.24609271523179	-10.3321854304636	1.37403973509934				0.821827814569536	-0.00127152317880793	-0.40794701986755	-6.15258278145695	4.34649006622517	-1.60026490066225				0.512529801324503	-0.256529801324503	-0.693721854304636	-0.597086092715232	5.2235761589404	2.46437086092715				0.916026490066225	-0.0445033112582781	0.101933774834437	-7.6082119205298	4.25192052980133	1.62251655629139				0.431788079470199	-0.110834437086093	-0.804238410596027	-0.259602649006623	12.4776158940397	-6.63470198675497			
104	2080	0.791841059602649	-0.0292450331125828	-0.519523178807947	-2.48662251655629	9.6553642384106	10.2950993377483				0.848953642384106	-0.0802119205298013	-0.178860927152318	9.39390728476821	-12.8521854304636	2.49403973509934				0.837827814569536	-0.0332715231788079	-0.48794701986755	1.40741721854305	0.146490066225167	-2.16026490066225				0.576529801324503	-0.320529801324503	-0.677721854304636	4.44291390728477	9.4235761589404	-0.335629139072848				0.916026490066225	-0.0285033112582781	0.0539337748344371	-4.5282119205298	5.09192052980133	3.30251655629139				0.415788079470199	-0.0628344370860927	-0.852238410596026	8.98039735099338	14.4376158940397	-8.03470198675497			
105	2100	0.759841059602649	-0.0452450331125828	-0.535523178807947	0.593377483443709	4.0553642384106	6.09509933774834				0.880953642384106	0.0477880794701987	-0.0508609271523178	0.153907284768212	10.9478145695364	-1.98596026490066				0.837827814569536	-0.0172715231788079	-0.56794701986755	2.24741721854305	1.54649006622517	-4.96026490066225				0.608529801324503	-0.336529801324503	-0.693721854304636	5.00291390728477	12.5035761589404	-3.41562913907285				0.932026490066225	0.00349668874172187	0.0859337748344371	2.1917880794702	15.1719205298013	3.86251655629139				0.367788079470199	-0.0468344370860927	-0.820238410596026	13.1803973509934	14.4376158940397	-15.874701986755			
106	2120	0.775841059602649	0.0827549668874172	-0.519523178807947	-8.64662251655629	-2.6646357615894	1.89509933774834				0.992953642384106	0.143788079470199	-0.0988609271523179	-0.126092715231788	-1.09218543046358	-2.26596026490066				0.837827814569536	0.0307284768211921	-0.55194701986755	4.20741721854305	8.26649006622517	-4.96026490066225				0.624529801324503	-0.272529801324503	-0.693721854304636	5.28291390728477	9.4235761589404	-7.61562913907285				0.932026490066225	0.0354966887417219	0.0859337748344371	5.8317880794702	14.8919205298013	3.02251655629139				0.399788079470199	-0.0948344370860927	-0.804238410596027	14.3003973509934	13.5976158940397	-15.874701986755			
107	2140	0.743841059602649	0.114754966887417	-0.583523178807947	-13.4066225165563	-7.1446357615894	3.01509933774834				0.848953642384106	0.0157880794701987	-0.322860927152318	16.3939072847682	-10.0521854304636	3.05403973509934				0.805827814569536	-0.0332715231788079	-0.50394701986755	17.087417218543	6.30649006622517	-4.68026490066225				0.608529801324503	-0.224529801324503	-0.661721854304636	5.00291390728477	12.5035761589404	-12.3756291390728				0.948026490066225	0.0194966887417219	0.0539337748344371	12.2717880794702	12.0919205298013	0.782516556291392				0.399788079470199	-0.142834437086093	-0.852238410596026	10.1003973509934	7.43761589403974	-10.834701986755			
108	2160	0.743841059602649	0.162754966887417	-0.535523178807947	3.95337748344371	-3.2246357615894	3.57509933774835				0.864953642384106	0.0157880794701987	-0.130860927152318	8.83390728476821	15.1478145695364	1.37403973509934				0.709827814569536	-0.0972715231788079	-0.47194701986755	22.407417218543	0.146490066225167	-8.04026490066225				0.592529801324503	-0.256529801324503	-0.661721854304636	9.20291390728477	8.5835761589404	-14.8956291390728				0.916026490066225	0.0194966887417219	0.117933774834437	12.2717880794702	12.0919205298013	-0.337483443708608				0.447788079470199	-0.0788344370860927	-0.868238410596026	3.38039735099338	6.03761589403974	-14.194701986755			
109	2180	0.791841059602649	0.130754966887417	-0.599523178807947	12.3533774834437	-2.9446357615894	1.05509933774834				1.04095364238411	0.0317880794701987	-0.0828609271523179	8.55390728476821	10.6678145695364	7.25403973509934				0.773827814569536	-0.0492715231788079	-0.51994701986755	13.727417218543	5.74649006622517	-3.56026490066225				0.592529801324503	-0.304529801324503	-0.725721854304636	17.6029139072848	4.9435761589404	-16.2956291390729				0.964026490066225	-0.0285033112582781	0.117933774834437	14.5117880794702	11.2519205298013	2.46251655629139				0.495788079470199	0.0171655629139073	-0.884238410596026	9.26039735099338	4.35761589403974	-21.754701986755			
110	2200	0.743841059602649	0.0827549668874172	-0.615523178807947	15.1533774834437	-6.3046357615894	-4.54490066225166				0.960953642384106	-0.0642119205298013	-0.226860927152318	13.3139072847682	-7.53218543046358	8.37403973509934				0.885827814569536	-0.0332715231788079	-0.48794701986755	7.56741721854305	6.58649006622517	-3.28026490066225				0.576529801324503	-0.304529801324503	-0.709721854304636	14.2429139072848	-0.9364238410596	-19.9356291390729				0.964026490066225	-0.0445033112582781	0.0699337748344371	21.7917880794702	12.6519205298013	4.70251655629139				0.479788079470199	-0.0948344370860927	-0.852238410596026	23.8203973509934	-1.24238410596026	-25.674701986755			
111	2220	0.727841059602649	0.0827549668874172	-0.583523178807947	11.2333774834437	-8.54463576158941	-7.06490066225166				0.864953642384106	0.0157880794701987	-0.226860927152318	20.3139072847682	8.98781456953643	-0.585960264900661				0.837827814569536	-0.0172715231788079	-0.50394701986755	7.00741721854305	2.38649006622517	-5.24026490066225				0.592529801324503	-0.288529801324503	-0.725721854304636	8.36291390728477	-3.7364238410596	-24.6956291390729				0.996026490066225	0.00349668874172187	0.117933774834437	24.5917880794702	19.3719205298013	3.86251655629139				0.463788079470199	-0.206834437086093	-0.788238410596027	31.1003973509934	-5.44238410596027	-24.554701986755			
112	2240	0.727841059602649	0.0827549668874172	-0.615523178807947	7.03337748344371	-7.7046357615894	-6.22490066225166				1.00895364238411	-0.0322119205298013	-0.146860927152318	19.7539072847682	14.0278145695364	3.61403973509934				0.821827814569536	-0.0492715231788079	-0.56794701986755	21.8474172185431	-7.97350993377484	-7.48026490066225				0.576529801324503	-0.288529801324503	-0.693721854304636	13.4029139072848	2.9835761589404	-24.6956291390729				1.02802649006623	-0.0445033112582781	0.197933774834437	24.8717880794702	10.6919205298013	3.86251655629139				0.511788079470199	-0.174834437086093	-0.820238410596026	9.26039735099338	-1.24238410596026	-26.514701986755			
113	2260	0.759841059602649	0.0507549668874172	-0.631523178807947	6.75337748344371	-7.4246357615894	-3.42490066225166				1.04095364238411	-0.0482119205298013	-0.146860927152318	7.99390728476821	3.38781456953642	6.13403973509934				0.821827814569536	-0.0812715231788079	-0.55194701986755	18.767417218543	-14.6935099337748	-6.64026490066225				0.544529801324503	-0.336529801324503	-0.693721854304636	24.0429139072848	3.8235761589404	-22.7356291390728				0.980026490066225	-0.0605033112582781	0.101933774834437	18.4317880794702	-2.74807947019868	5.82251655629139				0.559788079470199	-0.110834437086093	-0.852238410596026	9.54039735099338	1.83761589403974	-29.314701986755			
114	2280	0.791841059602649	0.0187549668874172	-0.599523178807947	5.91337748344371	-4.9046357615894	-5.10490066225166				0.928953642384106	0.0797880794701987	-0.194860927152318	6.31390728476821	-5.29218543046358	3.05403973509934				0.741827814569536	-0.0172715231788079	-0.50394701986755	4.20741721854305	-14.9735099337748	-1.04026490066225				0.528529801324503	-0.304529801324503	-0.741721854304636	15.9229139072848	-3.4564238410596	-24.1356291390729				0.948026490066225	0.0194966887417219	0.0859337748344371	17.5917880794702	7.05192052980133	5.82251655629139				0.495788079470199	-0.142834437086093	-0.820238410596026	24.3803973509934	-2.92238410596027	-29.034701986755			
115	2300	0.695841059602649	0.130754966887417	-0.631523178807947	3.11337748344371	-3.5046357615894	-3.70490066225166				0.960953642384106	0.0957880794701987	-0.258860927152318	28.4339072847682	1.98781456953642	0.53403973509934				0.661827814569536	-0.0172715231788079	-0.50394701986755	-5.87258278145695	-9.09350993377483	2.03973509933775				0.592529801324503	-0.240529801324503	-0.741721854304636	12.0029139072848	-5.6964238410596	-28.3356291390729				0.916026490066225	0.0354966887417219	0.197933774834437	24.8717880794702	11.8119205298013	6.94251655629139				0.479788079470199	-0.190834437086093	-0.820238410596026	28.8603973509934	-5.72238410596027	-24.834701986755			
116	2320	0.679841059602649	0.114754966887417	-0.647523178807947	8.71337748344371	-1.5446357615894	-2.86490066225166				1.05695364238411	-0.0322119205298013	-0.178860927152318	25.0739072847682	13.4678145695364	1.37403973509934				0.805827814569536	0.0147284768211921	-0.53594701986755	-4.19258278145695	-2.93350993377483	2.31973509933775				0.640529801324503	-0.272529801324503	-0.677721854304636	19.8429139072848	2.9835761589404	-30.8556291390729				0.980026490066225	-0.0285033112582781	0.149933774834437	24.5917880794702	5.93192052980133	6.66251655629139				0.479788079470199	-0.158834437086093	-0.804238410596027	20.1803973509934	-2.08238410596027	-22.874701986755			
117	2340	0.759841059602649	0.0667549668874172	-0.647523178807947	22.7133774834437	-1.8246357615894	-5.10490066225166				1.04095364238411	0.0477880794701987	-0.0508609271523178	9.11390728476821	17.1078145695364	2.49403973509934				0.901827814569536	0.0307284768211921	-0.51994701986755	0.00741721854304636	2.66649006622517	3.71973509933775				0.624529801324503	-0.352529801324503	-0.661721854304636	21.5229139072848	8.5835761589404	-27.2156291390728				0.980026490066225	0.0194966887417219	0.0859337748344371	21.7917880794702	8.17192052980133	5.82251655629139				0.511788079470199	-0.110834437086093	-0.788238410596027	17.9403973509934	-4.32238410596027	-20.634701986755			
118	2360	0.759841059602649	0.00275496688741723	-0.535523178807947	23.5533774834437	-0.424635761589404	-4.26490066225166				0.864953642384106	0.0637880794701987	-0.162860927152318	21.7139072847682	-10.3321854304636	3.33403973509934				0.821827814569536	0.0467284768211921	-0.50394701986755	8.40741721854305	3.22649006622517	1.19973509933775				0.576529801324503	-0.288529801324503	-0.709721854304636	13.9629139072848	5.5035761589404	-22.1756291390729				0.948026490066225	0.0514966887417219	0.181933774834437	20.3917880794702	10.4119205298013	5.82251655629139				0.495788079470199	-0.174834437086093	-0.756238410596026	26.3403973509934	-6.56238410596027	-20.914701986755			
119	2380	0.759841059602649	0.0187549668874172	-0.567523178807947	10.1133774834437	-2.9446357615894	-2.86490066225166				0.928953642384106	0.0477880794701987	-0.194860927152318	26.4739072847682	4.22781456953642	3.61403973509934				0.773827814569536	0.0147284768211921	-0.50394701986755	20.1674172185431	-3.21350993377483	-0.76026490066225				0.560529801324503	-0.224529801324503	-0.741721854304636	13.9629139072848	4.6635761589404	-23.5756291390728				0.964026490066225	-0.0445033112582781	0.213933774834437	25.1517880794702	3.13192052980133	6.94251655629139				0.495788079470199	-0.206834437086093	-0.740238410596026	18.5003973509934	-1.52238410596026	-15.874701986755			
120	2400	0.743841059602649	0.00275496688741723	-0.599523178807947	7.31337748344371	-1.8246357615894	-1.46490066225166				1.08895364238411	-0.192211920529801	-0.0668609271523178	14.9939072847682	13.1878145695364	10.3340397350993				0.837827814569536	-0.0652715231788079	-0.55194701986755	9.52741721854305	-3.49350993377483	-2.16026490066225				0.544529801324503	-0.288529801324503	-0.677721854304636	23.2029139072848	14.4635761589404	-26.6556291390729				0.980026490066225	-0.124503311258278	0.149933774834437	24.5917880794702	3.13192052980133	6.10251655629139				0.527788079470199	-0.190834437086093	-0.772238410596026	10.9403973509934	5.47761589403974	-16.994701986755			
121	2420	0.775841059602649	0.00275496688741723	-0.615523178807947	8.71337748344371	-2.1046357615894	-0.0649006622516557				0.992953642384106	0.0157880794701987	-0.0668609271523178	5.19390728476821	-4.45218543046358	1.93403973509934				0.821827814569536	-0.0332715231788079	-0.47194701986755	5.88741721854305	-2.93350993377483	-1.60026490066225				0.608529801324503	-0.336529801324503	-0.661721854304636	24.6029139072848	14.1835761589404	-29.1756291390729				0.932026490066225	-0.0445033112582781	0.149933774834437	18.7117880794702	6.77192052980133	5.82251655629139				0.527788079470199	-0.0308344370860927	-0.788238410596027	11.5003973509934	4.35761589403974	-26.794701986755			
122	2440	0.775841059602649	0.0667549668874172	-0.599523178807947	7.31337748344371	-0.424635761589404	-1.18490066225166				0.912953642384106	0.0157880794701987	-0.210860927152318	13.0339072847682	-1.37218543046358	2.21403973509934				0.805827814569536	0.0147284768211921	-0.40794701986755	7.28741721854305	-1.53350993377483	-1.88026490066225				0.640529801324503	-0.272529801324503	-0.709721854304636	15.3629139072848	6.3435761589404	-31.1356291390729				0.900026490066225	0.0514966887417219	0.149933774834437	15.6317880794702	9.85192052980133	6.10251655629139				0.495788079470199	-0.0788344370860927	-0.772238410596026	29.7003973509934	3.79761589403974	-34.914701986755			
123	2460	0.759841059602649	0.0667549668874172	-0.567523178807947	5.63337748344371	-3.5046357615894	-2.02490066225166				0.944953642384106	0.0477880794701987	-0.178860927152318	25.3539072847682	11.7878145695364	3.05403973509934				0.789827814569536	-0.0172715231788079	-0.39194701986755	15.127417218543	-2.09350993377483	-1.88026490066225				0.640529801324503	-0.176529801324503	-0.661721854304636	9.76291390728477	6.0635761589404	-37.2956291390729				0.932026490066225	0.0674966887417219	0.133933774834437	22.0717880794702	13.2119205298013	5.26251655629139				0.463788079470199	-0.158834437086093	-0.772238410596026	37.8203973509934	2.11761589403974	-28.754701986755			
124	2480	0.727841059602649	0.0827549668874172	-0.503523178807947	9.83337748344371	-3.2246357615894	-0.624900662251656				0.928953642384106	0.0477880794701987	-0.0188609271523178	31.7939072847682	14.5878145695364	10.6140397350993				0.757827814569536	-0.0652715231788079	-0.45594701986755	20.1674172185431	1.82649006622517	-1.32026490066225				0.656529801324503	-0.192529801324503	-0.581721854304636	16.7629139072848	11.9435761589404	-36.4556291390729				0.948026490066225	0.0194966887417219	0.181933774834437	27.6717880794702	13.7719205298013	7.50251655629139				0.495788079470199	-0.0948344370860927	-0.836238410596026	23.2603973509934	-0.402384105960265	-30.434701986755			
125	2500	0.711841059602649	0.0507549668874172	-0.567523178807947	16.2733774834437	-1.5446357615894	0.215099337748344				0.928953642384106	-0.0642119205298013	-0.0988609271523179	27.0339072847682	1.98781456953642	13.6940397350993				0.805827814569536	-0.0492715231788079	-0.50394701986755	16.807417218543	5.74649006622517	-1.88026490066225				0.672529801324503	-0.240529801324503	-0.581721854304636	26.8429139072848	13.6235761589404	-33.6556291390729				0.964026490066225	0.00349668874172187	0.197933774834437	29.6317880794702	9.57192052980133	9.18251655629139				0.511788079470199	-0.0628344370860927	-0.788238410596027	21.8603973509934	-2.36238410596027	-36.034701986755			
126	2520	0.807841059602649	0.0347549668874172	-0.583523178807947	12.6333774834437	-4.3446357615894	-2.30490066225166				0.960953642384106	-0.0322119205298013	-0.162860927152318	14.9939072847682	5.06781456953642	8.65403973509934				0.853827814569536	-0.0332715231788079	-0.51994701986755	16.5274172185431	4.62649006622517	-4.40026490066225				0.640529801324503	-0.240529801324503	-0.629721854304636	31.3229139072848	11.3835761589404	-32.8156291390729				0.980026490066225	-0.0285033112582781	0.133933774834437	31.0317880794702	7.05192052980133	10.8625165562914				0.495788079470199	-0.126834437086093	-0.788238410596027	27.1803973509934	0.157615894039735	-37.154701986755			
127	2540	0.775841059602649	0.0507549668874172	-0.615523178807947	8.71337748344371	-6.8646357615894	-7.06490066225166				1.00895364238411	-0.0802119205298013	-0.226860927152318	14.4339072847682	6.18781456953642	9.49403973509934				0.885827814569536	-0.0652715231788079	-0.50394701986755	20.727417218543	0.986490066225167	-3.56026490066225				0.608529801324503	-0.288529801324503	-0.757721854304636	26.0029139072848	22.8635761589404	-36.7356291390728				0.964026490066225	-0.0765033112582781	0.165933774834437	33.5517880794702	2.01192052980133	12.8225165562914				0.527788079470199	-0.238834437086093	-0.772238410596026	39.5003973509934	-3.76238410596027	-32.674701986755			
128	2560	0.711841059602649	0.0827549668874172	-0.631523178807947	7.87337748344371	-7.7046357615894	-6.78490066225166				1.02495364238411	-0.0482119205298013	-0.114860927152318	17.7939072847682	18.7878145695364	13.1340397350993				0.805827814569536	-0.0812715231788079	-0.50394701986755	24.3674172185431	-6.01350993377483	-3.56026490066225				0.688529801324503	-0.400529801324503	-0.629721854304636	40.5629139072848	40.5035761589404	-47.0956291390729				0.932026490066225	-0.0925033112582781	0.213933774834437	32.7117880794702	3.97192052980133	11.7025165562914				0.543788079470199	-0.302834437086093	-0.756238410596026	26.9003973509934	-7.40238410596027	-30.154701986755			
129	2580	0.711841059602649	0.0827549668874172	-0.663523178807947	17.1133774834437	-4.3446357615894	-7.06490066225166				1.04095364238411	-0.0802119205298013	-0.0348609271523178	26.4739072847682	26.3478145695364	17.0540397350993				0.773827814569536	-0.0652715231788079	-0.53594701986755	21.567417218543	-5.17350993377483	-1.04026490066225				0.688529801324503	-0.288529801324503	-0.565721854304636	35.8029139072848	23.4235761589404	-44.5756291390729				0.948026490066225	-0.0605033112582781	0.261933774834437	29.0717880794702	14.6119205298013	8.90251655629139				0.591788079470199	-0.238834437086093	-0.756238410596026	22.9803973509934	-1.80238410596026	-30.434701986755			
130	2600	0.695841059602649	0.00275496688741723	-0.631523178807947	19.9133774834437	-3.5046357615894	-6.78490066225166				1.05695364238411	-0.160211920529801	-0.0348609271523178	18.3539072847682	7.58781456953643	14.8140397350993				0.837827814569536	-0.0972715231788079	-0.55194701986755	10.927417218543	-0.973509933774833	1.75973509933775				0.704529801324503	-0.320529801324503	-0.645721854304636	26.0029139072848	16.1435761589404	-24.6956291390729				0.980026490066225	-0.0765033112582781	0.261933774834437	26.2717880794702	9.01192052980133	10.0225165562914				0.623788079470199	-0.302834437086093	-0.724238410596026	30.5403973509934	-0.682384105960265	-27.634701986755			
131	2620	0.711841059602649	-0.0132450331125828	-0.663523178807947	15.4333774834437	-3.2246357615894	-8.74490066225166				0.944953642384106	-0.0322119205298013	-0.178860927152318	5.75390728476821	-21.8121854304636	6.69403973509934				0.869827814569536	-0.113271523178808	-0.50394701986755	2.24741721854305	-0.413509933774833	1.75973509933775				0.736529801324503	-0.464529801324503	-0.693721854304636	19.5629139072848	8.5835761589404	-0.615629139072848				1.06002649006623	-0.124503311258278	0.245933774834437	24.0317880794702	-4.14807947019868	11.9825165562914				0.655788079470199	-0.446834437086093	-0.740238410596026	30.2603973509934	-7.12238410596027	-17.834701986755			
132	2640	0.743841059602649	0.0187549668874172	-0.679523178807947	5.63337748344371	-2.1046357615894	-8.74490066225166				0.944953642384106	-0.0322119205298013	-0.258860927152318	4.35390728476821	-3.33218543046358	2.21403973509934				0.693827814569536	-0.0972715231788079	-0.47194701986755	4.76741721854305	-2.65350993377483	-0.76026490066225				0.736529801324503	-0.448529801324503	-0.773721854304636	16.4829139072848	5.2235761589404	8.06437086092715				1.07602649006623	-0.108503311258278	0.229933774834437	9.7517880794702	-8.34807947019868	9.18251655629139				0.703788079470199	-0.462834437086093	-0.756238410596026	-0.259602649006623	-9.36238410596027	-11.674701986755			
133	2660	0.711841059602649	0.0667549668874172	-0.679523178807947	6.75337748344371	1.5353642384106	-4.26490066225166				1.15295364238411	-0.144211920529801	-0.146860927152318	16.9539072847682	2.54781456953642	7.25403973509934				0.741827814569536	-0.0172715231788079	-0.47194701986755	5.04741721854305	-8.81350993377484	3.15973509933775				0.736529801324503	-0.448529801324503	-0.837721854304636	-1.43708609271523	13.3435761589404	5.26437086092715				1.02802649006623	-0.220503311258278	0.197933774834437	2.4717880794702	-10.8680794701987	9.46251655629139				0.655788079470199	-0.238834437086093	-0.836238410596026	-17.6196026490066	-6.00238410596027	-13.354701986755			
134	2680	0.679841059602649	0.0187549668874172	-0.663523178807947	10.3933774834437	5.4553642384106	-1.18490066225166				1.00895364238411	-0.128211920529801	-0.178860927152318	16.3939072847682	-14.5321854304636	-3.66596026490066				0.837827814569536	-0.0492715231788079	-0.48794701986755	0.287417218543046	2.10649006622517	6.51973509933775				0.688529801324503	-0.432529801324503	-0.677721854304636	1.92291390728477	3.5435761589404	-7.05562913907285				1.04402649006623	-0.140503311258278	0.117933774834437	-4.5282119205298	-5.82807947019868	6.66251655629139				0.527788079470199	-0.0788344370860927	-0.932238410596026	-1.93960264900662	-8.80238410596027	-18.114701986755			
135	2700	0.711841059602649	-0.0452450331125828	-0.663523178807947	8.43337748344371	4.6153642384106	-3.42490066225166				0.896953642384106	-0.0642119205298013	-0.114860927152318	4.07390728476821	-19.5721854304636	-8.42596026490066				0.789827814569536	-0.0332715231788079	-0.48794701986755	-7.55258278145695	6.58649006622517	4.83973509933775				0.640529801324503	-0.256529801324503	-0.661721854304636	-14.0370860927152	-12.4164238410596	1.62437086092715				0.964026490066225	0.0354966887417219	0.0859337748344371	-9.0082119205298	-5.82807947019868	3.86251655629139				0.415788079470199	-0.142834437086093	-0.836238410596026	23.8203973509934	-18.0423841059603	-18.954701986755			
136	2720	0.695841059602649	-0.0612450331125828	-0.695523178807947	-0.526622516556291	4.6153642384106	-1.46490066225166				0.976953642384106	0.0157880794701987	-0.178860927152318	-6.84609271523179	-14.5321854304636	-1.42596026490066				0.789827814569536	-0.0332715231788079	-0.47194701986755	-11.192582781457	8.82649006622517	2.03973509933775				0.672529801324503	-0.240529801324503	-0.661721854304636	-5.63708609271523	-15.7764238410596	7.50437086092715				0.932026490066225	-0.0125033112582781	0.117933774834437	-0.608211920529802	-10.5880794701987	6.38251655629139				0.383788079470199	-0.286834437086093	-0.756238410596026	12.6203973509934	-11.3223841059603	-7.75470198675497			
137	2740	0.727841059602649	0.00275496688741723	-0.599523178807947	-0.246622516556291	6.5753642384106	0.495099337748344				0.944953642384106	-0.0162119205298013	-0.178860927152318	-5.72609271523179	-3.89218543046358	2.49403973509934				0.773827814569536	-0.0492715231788079	-0.47194701986755	-7.83258278145695	8.54649006622517	0.63973509933775				0.624529801324503	-0.368529801324503	-0.645721854304636	3.04291390728477	-8.2164238410596	8.62437086092715				0.948026490066225	-0.108503311258278	0.101933774834437	-2.0082119205298	-8.34807947019868	3.86251655629139				0.447788079470199	-0.302834437086093	-0.772238410596026	-11.1796026490066	-6.00238410596027	1.76529801324503			
138	2760	0.743841059602649	-0.0132450331125828	-0.583523178807947	-1.64662251655629	7.9753642384106	5.25509933774834				0.912953642384106	-0.0642119205298013	-0.178860927152318	3.51390728476821	-1.93218543046358	1.09403973509934				0.757827814569536	-0.00127152317880793	-0.47194701986755	-6.15258278145695	11.3464900662252	0.35973509933775				0.624529801324503	-0.368529801324503	-0.645721854304636	3.88291390728477	-5.4164238410596	8.62437086092715				0.932026490066225	-0.108503311258278	0.165933774834437	-4.2482119205298	-4.42807947019868	-0.897483443708608				0.463788079470199	-0.222834437086093	-0.724238410596026	-15.6596026490066	-0.402384105960265	3.16529801324503			
139	2780	0.743841059602649	0.00275496688741723	-0.551523178807947	-0.806622516556291	7.9753642384106	5.81509933774834				0.960953642384106	-0.112211920529801	-0.114860927152318	-1.80609271523179	3.94781456953642	3.61403973509934				0.821827814569536	0.0147284768211921	-0.50394701986755	-5.31258278145695	10.2264900662252	-1.04026490066225				0.656529801324503	-0.304529801324503	-0.581721854304636	-3.95708609271523	-6.5364238410596	5.54437086092715				0.900026490066225	-0.124503311258278	0.197933774834437	-7.6082119205298	-4.70807947019868	0.222516556291392				0.495788079470199	-0.190834437086093	-0.756238410596026	-12.0196026490066	3.51761589403974	1.48529801324503			
140	2800	0.743841059602649	-0.0292450331125828	-0.567523178807947	-1.64662251655629	6.5753642384106	3.01509933774834				0.976953642384106	-0.0962119205298013	-0.0508609271523178	-9.08609271523179	5.34781456953642	1.09403973509934				0.869827814569536	-0.0332715231788079	-0.43994701986755	-2.23258278145695	11.9064900662252	-3.84026490066225				0.672529801324503	-0.336529801324503	-0.533721854304636	-1.71708609271523	-3.4564238410596	8.90437086092715				0.932026490066225	-0.124503311258278	0.149933774834437	-6.2082119205298	-6.94807947019868	0.782516556291392				0.511788079470199	-0.222834437086093	-0.756238410596026	1.70039735099338	-1.24238410596026	-1.59470198675497			
141	2820	0.743841059602649	-0.0132450331125828	-0.583523178807947	-3.88662251655629	3.7753642384106	1.61509933774834				0.864953642384106	-0.0962119205298013	-0.0508609271523178	-4.60609271523179	11.7878145695364	1.65403973509934				0.837827814569536	-0.0972715231788079	-0.40794701986755	5.32741721854305	10.5064900662252	-5.80026490066225				0.656529801324503	-0.368529801324503	-0.565721854304636	4.16291390728477	1.8635761589404	16.7443708609272				0.948026490066225	-0.108503311258278	0.149933774834437	-5.6482119205298	-12.5480794701987	-0.0574834437086077				0.479788079470199	-0.222834437086093	-0.788238410596027	-5.57960264900662	-4.32238410596027	-3.55470198675497			
142	2840	0.791841059602649	0.0507549668874172	-0.567523178807947	-9.20662251655629	2.9353642384106	1.89509933774834				0.960953642384106	-0.112211920529801	-0.0508609271523178	1.27390728476821	22.7078145695364	-0.585960264900661				0.821827814569536	-0.0972715231788079	-0.42394701986755	8.12741721854305	7.14649006622517	-6.36026490066225				0.672529801324503	-0.352529801324503	-0.629721854304636	4.44291390728477	2.7035761589404	21.5043708609272				0.884026490066225	-0.0765033112582781	0.213933774834437	-8.1682119205298	-8.34807947019868	-1.17748344370861				0.463788079470199	-0.222834437086093	-0.820238410596026	-4.45960264900662	-6.00238410596027	0.365298013245032			
143	2860	0.759841059602649	0.0507549668874172	-0.615523178807947	-5.84662251655629	1.8153642384106	1.61509933774834				1.04095364238411	-0.0802119205298013	-0.0988609271523179	-9.92609271523179	17.3878145695364	-1.70596026490066				0.805827814569536	-0.129271523178808	-0.45594701986755	4.76741721854305	2.94649006622517	-3.00026490066225				0.688529801324503	-0.320529801324503	-0.613721854304636	-3.67708609271523	1.0235761589404	19.5443708609272				0.900026490066225	-0.0925033112582781	0.165933774834437	-6.2082119205298	-3.30807947019868	-0.897483443708608				0.479788079470199	-0.206834437086093	-0.804238410596027	-5.01960264900662	-6.00238410596027	5.40529801324503			
144	2880	0.727841059602649	0.0347549668874172	-0.615523178807947	-5.00662251655629	0.695364238410596	0.215099337748344				0.896953642384106	-0.0322119205298013	-0.130860927152318	-2.64609271523179	1.98781456953642	-4.78596026490066				0.757827814569536	-0.129271523178808	-0.45594701986755	-4.47258278145695	-0.133509933774833	-1.04026490066225				0.704529801324503	-0.352529801324503	-0.581721854304636	-8.71708609271523	-2.0564238410596	19.8243708609272				0.948026490066225	-0.0605033112582781	0.117933774834437	-7.0482119205298	-1.34807947019868	-2.01748344370861				0.495788079470199	-0.158834437086093	-0.804238410596027	-4.17960264900662	-7.96238410596027	3.44529801324503			
145	2900	0.727841059602649	0.0667549668874172	-0.599523178807947	-3.32662251655629	-0.704635761589404	-0.624900662251656				0.832953642384106	-0.000211920529801304	-0.242860927152318	2.67390728476821	1.70781456953642	-6.74596026490066				0.741827814569536	-0.0972715231788079	-0.47194701986755	-11.192582781457	0.146490066225167	1.19973509933775				0.704529801324503	-0.352529801324503	-0.613721854304636	-3.67708609271523	-5.1364238410596	22.6243708609272				0.964026490066225	-0.0605033112582781	0.133933774834437	-9.2882119205298	-1.90807947019868	-3.13748344370861				0.447788079470199	-0.158834437086093	-0.820238410596026	-0.539602649006623	-11.3223841059603	-1.87470198675497			
146	2920	0.743841059602649	0.0347549668874172	-0.583523178807947	-4.44662251655629	-2.3846357615894	-0.344900662251656				0.976953642384106	-0.0642119205298013	-0.194860927152318	1.83390728476821	6.46781456953642	-3.38596026490066				0.773827814569536	-0.0492715231788079	-0.43994701986755	-8.67258278145695	2.66649006622517	3.15973509933775				0.672529801324503	-0.320529801324503	-0.645721854304636	-5.91708609271523	-7.6564238410596	22.3443708609272				0.932026490066225	-0.0605033112582781	0.149933774834437	-7.8882119205298	-2.74807947019868	-3.97748344370861				0.415788079470199	-0.142834437086093	-0.772238410596026	1.42039735099338	-9.92238410596027	-2.43470198675497			
147	2940	0.727841059602649	0.0187549668874172	-0.599523178807947	-2.48662251655629	-1.5446357615894	-0.344900662251656				1.04095364238411	-0.0482119205298013	-0.0828609271523179	-0.966092715231788	8.42781456953642	-3.66596026490066				0.821827814569536	-0.0332715231788079	-0.48794701986755	-4.75258278145695	1.82649006622517	5.67973509933775				0.688529801324503	-0.336529801324503	-0.629721854304636	-19.3570860927152	-9.3364238410596	17.0243708609272				0.916026490066225	-0.0765033112582781	0.117933774834437	-1.7282119205298	-0.788079470198675	-3.13748344370861				0.431788079470199	-0.206834437086093	-0.772238410596026	1.98039735099338	-10.2023841059603	0.0852980132450323			
148	2960	0.727841059602649	-0.0132450331125828	-0.647523178807947	-0.246622516556291	-1.2646357615894	-1.18490066225166				0.960953642384106	-0.0642119205298013	-0.0828609271523179	0.993907284768212	2.54781456953642	-2.26596026490066				0.853827814569536	-0.0492715231788079	-0.53594701986755	-2.51258278145695	4.34649006622517	3.99973509933775				0.688529801324503	-0.336529801324503	-0.629721854304636	-19.0770860927152	-9.8964238410596	11.7043708609272				0.932026490066225	-0.0765033112582781	0.181933774834437	-0.608211920529802	1.73192052980133	-4.53748344370861				0	0	0	0	0	0			
149	2980	0	0	0	0	0	0				0.912953642384106	-0.0802119205298013	-0.0828609271523179	-1.80609271523179	13.1878145695364	-2.54596026490066				0.837827814569536	-0.0332715231788079	-0.55194701986755	-4.47258278145695	3.78649006622517	1.47973509933775				0	0	0	0	0	0				0	0	0	0	0	0				0	0	0	0	0	0			
150	3000	0.759841059602649	-0.0132450331125828	-0.567523178807947	-0.526622516556291	-0.704635761589404	-2.30490066225166				1.00895364238411	-0.0482119205298013	-0.0508609271523178	-0.126092715231788	14.0278145695364	-0.585960264900661				0.837827814569536	-0.0332715231788079	-0.53594701986755	4.20741721854305	0.146490066225167	-1.32026490066225				0.624529801324503	-0.240529801324503	-0.613721854304636	-20.1970860927152	-9.3364238410596	1.06437086092715				0.932026490066225	-0.0605033112582781	0.181933774834437	1.0717880794702	2.57192052980133	-7.61748344370861				0.479788079470199	-0.158834437086093	-0.772238410596026	-6.13960264900662	-3.20238410596026	-0.194701986754968			
151	3020	0.759841059602649	0.0187549668874172	-0.567523178807947	-2.48662251655629	-1.5446357615894	-1.18490066225166				1.00895364238411	-0.0322119205298013	-0.146860927152318	0.993907284768212	0.867814569536424	-1.42596026490066				0.821827814569536	-0.0332715231788079	-0.51994701986755	4.20741721854305	-3.49350993377483	-0.76026490066225				0.624529801324503	-0.208529801324503	-0.549721854304636	-20.4770860927152	-9.3364238410596	-4.25562913907285				0.948026490066225	-0.0125033112582781	0.181933774834437	-2.8482119205298	-1.06807947019868	-6.21748344370861				0.495788079470199	-0.126834437086093	-0.836238410596026	-11.1796026490066	-2.64238410596027	-3.27470198675497			
152	3040	0.727841059602649	0.00275496688741723	-0.535523178807947	2.83337748344371	1.5353642384106	0.775099337748344				0.928953642384106	-0.112211920529801	-0.162860927152318	-0.406092715231788	-0.812185430463576	1.37403973509934				0.789827814569536	-0.0492715231788079	-0.51994701986755	4.20741721854305	-2.93350993377483	-1.60026490066225				0.640529801324503	-0.224529801324503	-0.565721854304636	-4.51708609271523	-3.4564238410596	3.86437086092715				0.980026490066225	-0.0605033112582781	0.165933774834437	1.9117880794702	-4.98807947019868	-2.29748344370861				0.495788079470199	-0.110834437086093	-0.868238410596026	-2.49960264900662	0.717615894039735	-10.274701986755			
153	3060	0.727841059602649	-0.0452450331125828	-0.631523178807947	1.71337748344371	0.975364238410596	1.61509933774834				0.944953642384106	-0.0962119205298013	-0.146860927152318	-6.28609271523179	-1.37218543046358	1.09403973509934				0.821827814569536	-0.0652715231788079	-0.48794701986755	1.68741721854305	-4.33350993377483	-3.00026490066225				0.656529801324503	-0.288529801324503	-0.613721854304636	13.9629139072848	-0.3764238410596	10.5843708609272				0.980026490066225	-0.0765033112582781	0.181933774834437	1.6317880794702	-6.10807947019868	-0.0574834437086077				0.495788079470199	-0.206834437086093	-0.868238410596026	5.34039735099338	1.27761589403974	-9.43470198675497			
154	3080	0.743841059602649	-0.0452450331125828	-0.679523178807947	-8.08662251655629	-0.704635761589404	-0.0649006622516557				1.02495364238411	-0.0162119205298013	-0.114860927152318	0.713907284768212	-4.17218543046358	1.65403973509934				0.821827814569536	-0.0652715231788079	-0.47194701986755	3.08741721854305	-7.41350993377483	-3.84026490066225				0.656529801324503	-0.320529801324503	-0.645721854304636	8.64291390728477	-1.2164238410596	4.70437086092715				0.964026490066225	-0.0605033112582781	0.133933774834437	-1.7282119205298	-6.38807947019868	0.222516556291392				0.463788079470199	-0.318834437086093	-0.788238410596027	11.2203973509934	-3.20238410596026	1.48529801324503			
155	3100	0.743841059602649	0.0347549668874172	-0.679523178807947	-6.40662251655629	-1.5446357615894	-3.14490066225166				0.992953642384106	-0.0642119205298013	-0.0508609271523178	-2.08609271523179	1.14781456953642	1.93403973509934				0.773827814569536	-0.0972715231788079	-0.48794701986755	7.56741721854305	-4.61350993377483	-4.68026490066225				0.608529801324503	-0.368529801324503	-0.661721854304636	-2.55708609271523	2.7035761589404	1.34437086092715				0.932026490066225	-0.0765033112582781	0.133933774834437	1.0717880794702	-4.98807947019868	0.222516556291392				0.463788079470199	-0.238834437086093	-0.756238410596026	-15.3796026490066	-0.682384105960265	11.285298013245			
156	3120	0.711841059602649	0.0667549668874172	-0.663523178807947	1.15337748344371	1.8153642384106	-2.58490066225166				0.992953642384106	-0.128211920529801	-0.00286092715231785	-2.64609271523179	12.0678145695364	3.05403973509934				0.789827814569536	-0.0972715231788079	-0.50394701986755	1.96741721854305	1.82649006622517	-4.40026490066225				0.592529801324503	-0.352529801324503	-0.661721854304636	1.92291390728477	3.8235761589404	3.86437086092715				0.964026490066225	-0.140503311258278	0.165933774834437	-2.0082119205298	-10.3080794701987	-1.45748344370861				0.495788079470199	-0.158834437086093	-0.772238410596026	-15.9396026490066	2.11761589403974	7.64529801324503			
157	3140	0.711841059602649	0.00275496688741723	-0.615523178807947	4.51337748344371	3.4953642384106	-2.02490066225166				1.05695364238411	-0.0962119205298013	-0.0508609271523178	-2.92609271523179	5.34781456953642	-0.0259602649006601				0.805827814569536	-0.0812715231788079	-0.55194701986755	-9.51258278145695	4.34649006622517	-3.56026490066225				0.624529801324503	-0.336529801324503	-0.661721854304636	0.522913907284768	1.8635761589404	4.14437086092715				0.964026490066225	-0.108503311258278	0.181933774834437	-6.4882119205298	-8.06807947019868	-2.01748344370861				0.543788079470199	-0.142834437086093	-0.804238410596027	1.70039735099338	3.51761589403974	0.645298013245032			
158	3160	0.727841059602649	-0.0132450331125828	-0.583523178807947	1.99337748344371	3.4953642384106	-0.0649006622516557				0.912953642384106	0.0317880794701987	-0.114860927152318	0.153907284768212	-8.65218543046358	-5.62596026490066				0.789827814569536	-0.0492715231788079	-0.45594701986755	-13.992582781457	-0.693509933774834	-3.28026490066225				0.672529801324503	-0.288529801324503	-0.645721854304636	-9.27708609271523	-3.7364238410596	1.90437086092715				0.964026490066225	0.0194966887417219	0.117933774834437	-10.6882119205298	-8.06807947019868	-1.73748344370861				0.495788079470199	-0.206834437086093	-0.772238410596026	14.0203973509934	4.91761589403974	-3.27470198675497			
159	3180	0.759841059602649	0.00275496688741723	-0.551523178807947	0.593377483443709	3.7753642384106	-0.624900662251656				0.944953642384106	-0.0482119205298013	-0.178860927152318	3.51390728476821	-0.252185430463576	-4.78596026490066				0.773827814569536	-0.0492715231788079	-0.45594701986755	-10.352582781457	-2.93350993377483	-0.48026490066225				0.672529801324503	-0.256529801324503	-0.645721854304636	-6.19708609271523	-4.0164238410596	4.42437086092715				0.996026490066225	-0.0285033112582781	0.165933774834437	-3.6882119205298	-10.3080794701987	-0.337483443708608				0.447788079470199	-0.190834437086093	-0.788238410596027	-0.819602649006623	9.95761589403974	-2.71470198675497			
160	3200	0.759841059602649	0.0187549668874172	-0.583523178807947	-6.12662251655629	2.6553642384106	-0.344900662251656				0.992953642384106	-0.0802119205298013	-0.0988609271523179	-1.52609271523179	-5.01218543046358	-1.70596026490066				0.853827814569536	-0.0652715231788079	-0.47194701986755	-7.83258278145695	-6.29350993377483	-1.04026490066225				0.672529801324503	-0.288529801324503	-0.629721854304636	5.00291390728477	-0.9364238410596	7.50437086092715				0.948026490066225	-0.0605033112582781	0.197933774834437	-4.5282119205298	-12.8280794701987	0.222516556291392				0.495788079470199	-0.158834437086093	-0.852238410596026	-16.4996026490066	12.7576158940397	-3.27470198675497			
161	3220	0.775841059602649	0.0187549668874172	-0.567523178807947	-6.68662251655629	2.6553642384106	-0.904900662251656				1.02495364238411	-0.0322119205298013	-0.0988609271523179	-8.52609271523179	-13.6921854304636	-1.98596026490066				0.853827814569536	-0.0492715231788079	-0.47194701986755	-6.99258278145695	-7.69350993377483	-0.76026490066225				0.688529801324503	-0.304529801324503	-0.645721854304636	3.32291390728477	-0.6564238410596	5.82437086092715				0.932026490066225	-0.0445033112582781	0.165933774834437	-5.6482119205298	-11.9880794701987	-0.617483443708608				0.527788079470199	-0.142834437086093	-0.884238410596026	-1.65960264900662	2.11761589403974	-2.15470198675497			
162	3240	0.743841059602649	0.0187549668874172	-0.567523178807947	-6.68662251655629	2.3753642384106	-0.344900662251656				0.944953642384106	0.0157880794701987	-0.0668609271523178	-4.04609271523179	-15.9321854304636	-4.22596026490066				0.789827814569536	-0.00127152317880793	-0.42394701986755	-5.87258278145695	-8.25350993377483	-1.04026490066225				0.672529801324503	-0.288529801324503	-0.613721854304636	-4.51708609271523	-6.8164238410596	1.90437086092715				0.916026490066225	0.00349668874172187	0.0699337748344371	-7.6082119205298	-4.14807947019868	-1.73748344370861				0.495788079470199	-0.126834437086093	-0.804238410596027	-0.539602649006623	-4.32238410596027	-1.87470198675497			
163	3260	0.759841059602649	0.0347549668874172	-0.551523178807947	-5.56662251655629	0.975364238410596	0.215099337748344				0.896953642384106	-0.000211920529801304	-0.0988609271523179	-2.36609271523179	-9.49218543046358	-1.98596026490066				0.789827814569536	0.0147284768211921	-0.43994701986755	-5.87258278145695	-4.61350993377483	-1.32026490066225				0.688529801324503	-0.288529801324503	-0.613721854304636	-4.51708609271523	-8.7764238410596	3.02437086092715				0.980026490066225	-0.0445033112582781	0.133933774834437	1.0717880794702	2.57192052980133	-1.45748344370861				0.447788079470199	-0.126834437086093	-0.804238410596027	-0.539602649006623	-11.0423841059603	-4.95470198675497			
164	3280	0.791841059602649	0.0347549668874172	-0.583523178807947	-3.60662251655629	2.0953642384106	-0.344900662251656				0.976953642384106	-0.0642119205298013	-0.0828609271523179	-5.16609271523179	5.62781456953642	0.53403973509934				0.853827814569536	-0.00127152317880793	-0.47194701986755	-7.27258278145696	-2.09350993377483	-2.44026490066225				0.672529801324503	-0.304529801324503	-0.693721854304636	5.28291390728477	-3.7364238410596	5.26437086092715				1.04402649006623	-0.0445033112582781	0.149933774834437	-1.4482119205298	-13.6680794701987	-3.13748344370861				0.463788079470199	-0.158834437086093	-0.804238410596027	0.0203973509933773	-5.44238410596027	-7.19470198675497			
165	3300	0.791841059602649	0.0667549668874172	-0.567523178807947	-6.40662251655629	2.6553642384106	-2.02490066225166				1.05695364238411	-0.000211920529801304	-0.114860927152318	-4.04609271523179	5.06781456953642	-2.26596026490066				0.821827814569536	0.0147284768211921	-0.47194701986755	1.40741721854305	-0.693509933774834	-3.84026490066225				0.624529801324503	-0.320529801324503	-0.677721854304636	1.64291390728477	-1.2164238410596	3.02437086092715				0.932026490066225	-0.0125033112582781	0.101933774834437	0.791788079470198	-5.54807947019868	-1.17748344370861				0.479788079470199	-0.190834437086093	-0.804238410596027	-1.93960264900662	-0.402384105960265	-4.11470198675497			
166	3320	0.759841059602649	0.0827549668874172	-0.567523178807947	1.43337748344371	3.7753642384106	-2.86490066225166				1.00895364238411	-0.0642119205298013	-0.0668609271523178	7.99390728476821	4.22781456953642	0.25403973509934				0.805827814569536	0.0147284768211921	-0.50394701986755	7.28741721854305	1.82649006622517	-4.40026490066225				0.592529801324503	-0.304529801324503	-0.645721854304636	-7.03708609271523	-0.9364238410596	-2.85562913907285				0.916026490066225	-0.0605033112582781	0.117933774834437	3.8717880794702	1.45192052980132	-0.337483443708608				0.447788079470199	-0.158834437086093	-0.804238410596027	-2.49960264900662	3.23761589403974	-2.15470198675497			
167	3340	0.759841059602649	0.0667549668874172	-0.535523178807947	7.59337748344371	4.6153642384106	-5.94490066225166				0.976953642384106	-0.0802119205298013	-0.0828609271523179	5.19390728476821	-9.21218543046358	-0.0259602649006601				0.853827814569536	-0.0332715231788079	-0.50394701986755	8.40741721854305	1.26649006622517	-4.96026490066225				0.560529801324503	-0.304529801324503	-0.613721854304636	-4.23708609271523	2.1435761589404	-0.615629139072848				0.964026490066225	-0.0765033112582781	0.101933774834437	2.4717880794702	-1.90807947019868	-1.45748344370861				0.479788079470199	-0.126834437086093	-0.836238410596026	-5.01960264900662	7.43761589403974	-6.35470198675497			
168	3360	0.759841059602649	0.0347549668874172	-0.583523178807947	-0.246622516556291	2.3753642384106	-5.10490066225166				0.928953642384106	-0.0162119205298013	-0.194860927152318	-1.80609271523179	-14.8121854304636	-1.98596026490066				0.805827814569536	-0.0332715231788079	-0.45594701986755	1.12741721854305	2.10649006622517	-6.36026490066225				0.640529801324503	-0.352529801324503	-0.645721854304636	7.24291390728477	3.2635761589404	3.30437086092715				0.964026490066225	-0.0605033112582781	0.101933774834437	0.231788079470198	-0.228079470198675	-1.73748344370861				0.495788079470199	-0.158834437086093	-0.852238410596026	1.42039735099338	2.67761589403974	-9.71470198675497			
169	3380	0.759841059602649	0.0347549668874172	-0.599523178807947	-3.04662251655629	3.2153642384106	-3.70490066225166				0.928953642384106	-0.0162119205298013	-0.0828609271523179	-5.16609271523179	3.10781456953642	-3.38596026490066				0.773827814569536	-0.0332715231788079	-0.40794701986755	-1.11258278145695	0.706490066225167	-5.52026490066225				0.688529801324503	-0.336529801324503	-0.693721854304636	7.80291390728477	-0.3764238410596	0.784370860927152				0.964026490066225	-0.0285033112582781	0.0859337748344371	0.791788079470198	0.891920529801325	-1.73748344370861				0.495788079470199	-0.206834437086093	-0.804238410596027	3.94039735099338	3.79761589403974	-4.95470198675497			
170	3400	0.791841059602649	0.0187549668874172	-0.599523178807947	-2.48662251655629	4.0553642384106	-3.42490066225166				0.976953642384106	-0.000211920529801304	-0.00286092715231785	1.27390728476821	19.3478145695364	-2.54596026490066				0.821827814569536	-0.0492715231788079	-0.43994701986755	-0.272582781456954	0.146490066225167	-4.12026490066225				0.624529801324503	-0.320529801324503	-0.693721854304636	-2.83708609271523	-3.4564238410596	-3.97562913907285				0.980026490066225	-0.0445033112582781	0.0859337748344371	2.7517880794702	-1.90807947019868	-2.57748344370861				0.431788079470199	-0.222834437086093	-0.756238410596026	-1.65960264900662	4.07761589403974	2.60529801324503			
171	3420	0.791841059602649	0.0347549668874172	-0.567523178807947	-4.16662251655629	1.8153642384106	-3.14490066225166				0.976953642384106	-0.0162119205298013	-0.0988609271523179	7.15390728476821	13.7478145695364	-4.22596026490066				0.805827814569536	-0.0172715231788079	-0.48794701986755	1.12741721854305	-1.81350993377483	-3.00026490066225				0.592529801324503	-0.304529801324503	-0.645721854304636	-5.63708609271523	-2.0564238410596	-6.77562913907285				0.916026490066225	-0.0125033112582781	0.181933774834437	-0.0482119205298018	0.331920529801325	-5.37748344370861				0.463788079470199	-0.142834437086093	-0.788238410596027	-12.5796026490066	3.23761589403974	3.16529801324503			
172	3440	0.711841059602649	0.0827549668874172	-0.567523178807947	-5.00662251655629	-0.144635761589404	-1.74490066225166				0.880953642384106	0.0157880794701987	-0.0668609271523178	7.71390728476821	12.0678145695364	-4.50596026490066				0.789827814569536	0.0147284768211921	-0.48794701986755	2.80741721854305	-1.25350993377483	-2.16026490066225				0.624529801324503	-0.256529801324503	-0.613721854304636	-4.79708609271523	-0.9364238410596	-4.81562913907285				0.852026490066225	0.0194966887417219	0.133933774834437	-2.0082119205298	-3.02807947019868	-5.37748344370861				0.527788079470199	-0.0148344370860927	-0.804238410596027	-8.65960264900662	0.157615894039735	-3.27470198675497			
173	3460	0.695841059602649	0.0507549668874172	-0.583523178807947	0.873377483443709	0.975364238410596	-0.0649006622516557				0.944953642384106	-0.000211920529801304	-0.0828609271523179	1.27390728476821	6.46781456953642	-4.50596026490066				0.805827814569536	0.0147284768211921	-0.48794701986755	3.08741721854305	-2.65350993377483	-1.88026490066225				0.656529801324503	-0.240529801324503	-0.613721854304636	-4.23708609271523	-1.2164238410596	-2.85562913907285				0.948026490066225	-0.0125033112582781	0.133933774834437	3.5917880794702	1.73192052980133	-4.53748344370861				0.527788079470199	-0.0788344370860927	-0.740238410596026	7.02039735099338	-3.76238410596027	-6.91470198675497			
174	3480	0.759841059602649	0.0187549668874172	-0.599523178807947	0.873377483443709	2.9353642384106	-1.46490066225166				1.04095364238411	-0.0322119205298013	-0.0988609271523179	-0.686092715231788	-2.49218543046358	-3.94596026490066				0.821827814569536	-0.0492715231788079	-0.48794701986755	5.60741721854305	-3.77350993377483	-3.00026490066225				0.640529801324503	-0.272529801324503	-0.629721854304636	2.20291390728477	-1.2164238410596	-1.17562913907285				0.980026490066225	-0.0125033112582781	0.149933774834437	1.9117880794702	1.45192052980132	-3.97748344370861				0.511788079470199	-0.174834437086093	-0.788238410596027	7.58039735099338	-2.08238410596027	-7.47470198675497			
175	3500	0.775841059602649	0.0507549668874172	-0.599523178807947	-1.36662251655629	0.975364238410596	-2.58490066225166				0.992953642384106	0.0157880794701987	-0.162860927152318	-1.24609271523179	-0.252185430463576	-2.54596026490066				0.821827814569536	-0.0492715231788079	-0.50394701986755	3.92741721854305	-4.33350993377483	-3.84026490066225				0.640529801324503	-0.320529801324503	-0.661721854304636	4.44291390728477	2.4235761589404	0.504370860927152				0.980026490066225	-0.0285033112582781	0.133933774834437	1.0717880794702	8.17192052980133	-2.85748344370861				0.511788079470199	-0.222834437086093	-0.756238410596026	0.0203973509933773	-0.402384105960265	-5.79470198675497			
176	3520	0.759841059602649	0.0667549668874172	-0.535523178807947	-6.12662251655629	-1.8246357615894	-1.74490066225166				0.992953642384106	-0.000211920529801304	-0.178860927152318	2.67390728476821	22.7078145695364	-1.70596026490066				0.805827814569536	-0.0172715231788079	-0.51994701986755	0.847417218543046	-3.21350993377483	-3.28026490066225				0.624529801324503	-0.336529801324503	-0.677721854304636	-1.99708609271523	2.9835761589404	-0.335629139072848				0.948026490066225	-0.0285033112582781	0.133933774834437	0.231788079470198	6.77192052980133	-3.41748344370861				0.495788079470199	-0.174834437086093	-0.724238410596026	-11.7396026490066	2.67761589403974	-1.87470198675497			
177	3540	0.743841059602649	0.0827549668874172	-0.551523178807947	-0.246622516556291	-1.2646357615894	-0.624900662251656				0.960953642384106	-0.0322119205298013	-0.0508609271523178	-0.406092715231788	19.0678145695364	-3.10596026490066				0.773827814569536	0.0147284768211921	-0.53594701986755	0.287417218543046	-1.81350993377483	-2.72026490066225				0.592529801324503	-0.272529801324503	-0.693721854304636	-5.07708609271523	-0.0964238410596001	1.06437086092715				0.996026490066225	-0.0445033112582781	0.0859337748344371	0.791788079470198	-5.82807947019868	-3.69748344370861				0.495788079470199	-0.0948344370860927	-0.820238410596026	-10.0596026490066	5.47761589403974	-3.83470198675497			
178	3560	0.743841059602649	0.0187549668874172	-0.631523178807947	-0.806622516556291	-1.8246357615894	1.05509933774834				1.00895364238411	-0.0642119205298013	0.141139072847682	-9.92609271523179	3.10781456953642	-3.66596026490066				0.789827814569536	-0.0172715231788079	-0.50394701986755	-0.552582781456954	-1.25350993377483	-1.60026490066225				0.624529801324503	-0.336529801324503	-0.709721854304636	-0.0370860927152318	0.7435761589404	2.18437086092715				0.948026490066225	-0.0445033112582781	0.133933774834437	-1.4482119205298	-4.42807947019868	-5.37748344370861				0.495788079470199	-0.0948344370860927	-0.852238410596026	6.18039735099338	-2.08238410596027	-7.75470198675497			
