No	Time	12-AccX	12-AccY	12-AccZ	12-GyroX	12-GyroY	12-GyroZ	13-AccX	13-AccY	13-AccZ	13-GyroX	13-GyroY	13-GyroZ	14-AccX	14-AccY	14-AccZ	14-GyroX	14-GyroY	14-GyroZ	15-AccX	15-AccY	15-AccZ	15-GyroX	15-GyroY	15-GyroZ	16-AccX	16-AccY	16-AccZ	16-GyroX	16-GyroY	16-GyroZ	17-AccX	17-AccY	17-AccZ	17-GyroX	17-GyroY	17-GyroZ
0	0	0	0	0	0	0	0				0	0	0	0	0	0				0	0	0	0	0	0				0.688529801324503	-0.272529801324503	-0.629721854304636	-7.87708609271523	1.5835761589404	-7.33562913907285				0.964026490066225	0.0834966887417219	0.0539337748344371	1.6317880794702	13.7719205298013	-1.45748344370861				0.623788079470199	-0.0308344370860927	-0.724238410596026	4.22039735099338	12.7576158940397	4.00529801324503			
1	20	-0.264158940397351	0.130754966887417	-0.919523178807947	0.313377483443709	0.135364238410596	-1.46490066225166				0.960953642384106	0.0797880794701987	0.285139072847682	-1.24609271523179	21.3078145695364	1.93403973509934				-0.250172185430464	-0.145271523178808	-0.88794701986755	0.567417218543046	0.706490066225167	0.0797350993377501				0.704529801324503	-0.272529801324503	-0.629721854304636	-8.71708609271523	2.4235761589404	-6.49562913907285				0.980026490066225	0.0834966887417219	0.0539337748344371	0.791788079470198	14.8919205298013	-1.73748344370861				0.639788079470199	-0.0468344370860927	-0.708238410596026	5.62039735099338	10.7976158940397	3.72529801324503			
2	40	-0.264158940397351	0.130754966887417	-0.935523178807947	-0.246622516556291	0.135364238410596	-0.904900662251656				0.976953642384106	0.0957880794701987	0.333139072847682	-3.20609271523179	21.8678145695364	2.49403973509934				-0.234172185430464	-0.145271523178808	-0.87194701986755	-0.832582781456954	-0.413509933774833	0.0797350993377501				0.720529801324503	-0.256529801324503	-0.629721854304636	-8.43708609271523	4.1035761589404	-5.65562913907285				0.996026490066225	0.0674966887417219	0.0699337748344371	1.3517880794702	12.9319205298013	-2.01748344370861				0.655788079470199	-0.0308344370860927	-0.724238410596026	3.38039735099338	8.55761589403974	2.88529801324503			
3	60	-0.264158940397351	0.114754966887417	-0.935523178807947	0.0333774834437086	0.135364238410596	-1.18490066225166				0.976953642384106	0.0797880794701987	0.349139072847682	-3.76609271523179	14.8678145695364	1.93403973509934				-0.250172185430464	-0.145271523178808	-0.87194701986755	0.567417218543046	0.706490066225167	-0.48026490066225				0.720529801324503	-0.240529801324503	-0.613721854304636	-8.43708609271523	5.2235761589404	-5.09562913907285				0.996026490066225	0.0674966887417219	0.0859337748344371	3.0317880794702	11.8119205298013	-1.73748344370861				0.687788079470199	-0.0788344370860927	-0.708238410596026	1.70039735099338	9.67761589403974	3.16529801324503			
4	80	-0.280158940397351	0.130754966887417	-0.935523178807947	-0.246622516556291	0.975364238410596	-1.18490066225166				0.976953642384106	0.0797880794701987	0.333139072847682	-2.92609271523179	7.86781456953642	0.81403973509934				-0.234172185430464	-0.145271523178808	-0.88794701986755	1.68741721854305	1.26649006622517	-1.04026490066225				0.736529801324503	-0.240529801324503	-0.613721854304636	-6.19708609271523	3.8235761589404	-3.13562913907285				0.996026490066225	0.0834966887417219	0.0699337748344371	-0.888211920529802	8.17192052980133	-1.17748344370861				0.687788079470199	-0.0468344370860927	-0.724238410596026	0.300397350993377	7.99761589403974	2.04529801324503			
5	100	-0.264158940397351	0.130754966887417	-0.951523178807947	-1.08662251655629	1.8153642384106	-1.18490066225166				0.960953642384106	0.0637880794701987	0.317139072847682	0.433907284768212	5.34781456953642	1.65403973509934				-0.234172185430464	-0.129271523178808	-0.88794701986755	2.80741721854305	2.10649006622517	-1.04026490066225				0.720529801324503	-0.240529801324503	-0.613721854304636	-5.91708609271523	3.5435761589404	-2.85562913907285				0.980026490066225	0.0834966887417219	0.101933774834437	-0.0482119205298018	7.61192052980133	-1.73748344370861				0.703788079470199	-0.0468344370860927	-0.724238410596026	4.50039735099338	4.63761589403974	2.04529801324503			
6	120	-0.264158940397351	0.114754966887417	-0.951523178807947	-0.806622516556291	2.3753642384106	-1.18490066225166				0.960953642384106	0.0637880794701987	0.333139072847682	1.55390728476821	5.06781456953642	1.65403973509934				-0.234172185430464	-0.145271523178808	-0.88794701986755	3.08741721854305	2.38649006622517	-1.60026490066225				0.720529801324503	-0.224529801324503	-0.597721854304636	-8.43708609271523	3.2635761589404	-3.41562913907285				0.964026490066225	0.0674966887417219	0.117933774834437	-0.0482119205298018	7.61192052980133	-1.45748344370861				0.687788079470199	-0.0628344370860927	-0.708238410596026	6.18039735099338	2.11761589403974	1.76529801324503			
7	140	-0.264158940397351	0.114754966887417	-0.935523178807947	-1.64662251655629	3.2153642384106	-1.18490066225166				0.960953642384106	0.0637880794701987	0.349139072847682	-0.406092715231788	4.78781456953642	0.53403973509934				-0.234172185430464	-0.161271523178808	-0.88794701986755	1.96741721854305	2.66649006622517	-0.76026490066225				0.720529801324503	-0.224529801324503	-0.597721854304636	-7.03708609271523	2.9835761589404	-2.85562913907285				0.964026490066225	0.0834966887417219	0.101933774834437	-0.608211920529802	6.49192052980132	-0.0574834437086077				0.671788079470199	-0.0628344370860927	-0.708238410596026	4.22039735099338	2.67761589403974	2.04529801324503			
8	160	-0.248158940397351	0.114754966887417	-0.935523178807947	-1.36662251655629	3.2153642384106	-1.46490066225166				0.944953642384106	0.0637880794701987	0.365139072847682	0.153907284768212	2.54781456953642	0.81403973509934				-0.218172185430464	-0.177271523178808	-0.87194701986755	0.567417218543046	2.66649006622517	-1.60026490066225				0.736529801324503	-0.224529801324503	-0.613721854304636	-6.47708609271523	0.1835761589404	-2.57562913907285				0.964026490066225	0.0994966887417219	0.101933774834437	0.231788079470198	6.21192052980133	-0.0574834437086077				0.671788079470199	-0.0628344370860927	-0.692238410596026	5.34039735099338	0.437615894039735	2.32529801324503			
9	180	-0.248158940397351	0.114754966887417	-0.935523178807947	-1.64662251655629	2.3753642384106	-1.74490066225166				0.944953642384106	0.0637880794701987	0.349139072847682	2.39390728476821	1.14781456953642	1.93403973509934				-0.202172185430464	-0.177271523178808	-0.87194701986755	4.20741721854305	2.94649006622517	-1.88026490066225				0.720529801324503	-0.224529801324503	-0.581721854304636	-6.75708609271523	-1.2164238410596	-1.45562913907285				0.948026490066225	0.0834966887417219	0.117933774834437	1.0717880794702	6.21192052980133	-0.0574834437086077				0.671788079470199	-0.0628344370860927	-0.692238410596026	5.34039735099338	-2.08238410596027	2.32529801324503			
10	200	-0.248158940397351	0.114754966887417	-0.935523178807947	-1.64662251655629	1.5353642384106	-1.74490066225166				0.928953642384106	0.0477880794701987	0.333139072847682	2.39390728476821	-0.252185430463576	1.93403973509934				-0.186172185430464	-0.161271523178808	-0.87194701986755	1.96741721854305	1.54649006622517	-1.32026490066225				0.720529801324503	-0.224529801324503	-0.597721854304636	-4.23708609271523	-0.0964238410596001	-1.17562913907285				0.948026490066225	0.0834966887417219	0.101933774834437	0.231788079470198	2.57192052980133	0.782516556291392				0.639788079470199	-0.0628344370860927	-0.676238410596026	5.34039735099338	-2.64238410596027	0.365298013245032			
11	220	-0.248158940397351	0.114754966887417	-0.919523178807947	-1.92662251655629	1.8153642384106	-1.46490066225166				0.912953642384106	0.0477880794701987	0.349139072847682	1.27390728476821	2.54781456953642	1.09403973509934				-0.186172185430464	-0.161271523178808	-0.87194701986755	0.287417218543046	-0.693509933774834	-0.76026490066225				0.720529801324503	-0.224529801324503	-0.581721854304636	-3.11708609271523	-0.6564238410596	0.224370860927152				0.932026490066225	0.0834966887417219	0.133933774834437	1.3517880794702	4.53192052980133	-0.0574834437086077				0.655788079470199	-0.0788344370860927	-0.660238410596027	5.34039735099338	-2.64238410596027	-0.194701986754968			
12	240	-0.232158940397351	0.114754966887417	-0.935523178807947	-1.36662251655629	0.415364238410596	-0.904900662251656				0.912953642384106	0.0637880794701987	0.349139072847682	0.713907284768212	3.66781456953642	1.37403973509934				-0.202172185430464	-0.161271523178808	-0.87194701986755	0.847417218543046	-0.133509933774833	-0.20026490066225				0.720529801324503	-0.208529801324503	-0.581721854304636	-1.99708609271523	0.7435761589404	1.06437086092715				0.932026490066225	0.0674966887417219	0.117933774834437	0.511788079470198	3.41192052980132	-0.337483443708608				0.655788079470199	-0.0788344370860927	-0.660238410596027	5.06039735099338	-1.52238410596026	-0.194701986754968			
13	260	-0.232158940397351	0.114754966887417	-0.919523178807947	-1.08662251655629	-0.144635761589404	-1.46490066225166				0.928953642384106	0.0637880794701987	0.365139072847682	0.993907284768212	4.78781456953642	2.21403973509934				-0.218172185430464	-0.177271523178808	-0.88794701986755	0.00741721854304636	0.146490066225167	-0.20026490066225				0.720529801324503	-0.224529801324503	-0.581721854304636	-1.43708609271523	0.7435761589404	3.02437086092715				0.932026490066225	0.0674966887417219	0.117933774834437	2.1917880794702	4.25192052980133	0.502516556291392				0.655788079470199	-0.0948344370860927	-0.660238410596027	3.10039735099338	-1.24238410596026	0.365298013245032			
14	280	-0.232158940397351	0.114754966887417	-0.935523178807947	-1.36662251655629	-0.144635761589404	-0.624900662251656				0.944953642384106	0.0637880794701987	0.365139072847682	0.993907284768212	3.10781456953642	1.37403973509934				-0.218172185430464	-0.161271523178808	-0.88794701986755	1.12741721854305	0.146490066225167	-0.48026490066225				0.720529801324503	-0.240529801324503	-0.581721854304636	-1.99708609271523	-0.0964238410596001	2.18437086092715				0.948026490066225	0.0674966887417219	0.117933774834437	0.231788079470198	4.53192052980133	0.222516556291392				0.655788079470199	-0.0948344370860927	-0.660238410596027	2.54039735099338	-1.80238410596026	-1.59470198675497			
15	300	-0.248158940397351	0.114754966887417	-0.919523178807947	-1.08662251655629	-0.984635761589404	-0.624900662251656				0.944953642384106	0.0637880794701987	0.349139072847682	1.55390728476821	0.867814569536424	0.81403973509934				-0.202172185430464	-0.161271523178808	-0.87194701986755	0.567417218543046	-0.413509933774833	-0.20026490066225				0.720529801324503	-0.224529801324503	-0.597721854304636	-2.27708609271523	-1.2164238410596	1.90437086092715				0.948026490066225	0.0674966887417219	0.117933774834437	-1.7282119205298	2.85192052980133	-0.897483443708608				0.671788079470199	-0.0948344370860927	-0.676238410596026	0.860397350993377	-0.962384105960265	-1.59470198675497			
16	320	-0.264158940397351	0.130754966887417	-0.935523178807947	-0.526622516556291	-0.424635761589404	-1.46490066225166				0.944953642384106	0.0637880794701987	0.365139072847682	0.433907284768212	0.0278145695364242	0.25403973509934				-0.218172185430464	-0.161271523178808	-0.88794701986755	0.00741721854304636	0.146490066225167	0.63973509933775				0.736529801324503	-0.224529801324503	-0.597721854304636	-3.11708609271523	-1.4964238410596	2.74437086092715				0.964026490066225	0.0834966887417219	0.117933774834437	-1.7282119205298	1.45192052980132	-1.45748344370861				0.671788079470199	-0.0788344370860927	-0.676238410596026	0.300397350993377	-0.402384105960265	-1.31470198675497			
17	340	-0.264158940397351	0.130754966887417	-0.935523178807947	-0.526622516556291	-0.144635761589404	-1.18490066225166				0.928953642384106	0.0637880794701987	0.365139072847682	0.713907284768212	0.307814569536424	0.25403973509934				-0.202172185430464	-0.161271523178808	-0.88794701986755	-0.272582781456954	-2.09350993377483	0.0797350993377501				0.736529801324503	-0.224529801324503	-0.613721854304636	-4.23708609271523	-1.7764238410596	3.30437086092715				0.964026490066225	0.0834966887417219	0.117933774834437	-1.4482119205298	0.331920529801325	-1.45748344370861				0.655788079470199	-0.0788344370860927	-0.676238410596026	-0.539602649006623	-0.402384105960265	-1.03470198675497			
18	360	-0.248158940397351	0.130754966887417	-0.935523178807947	0.313377483443709	-0.424635761589404	-0.0649006622516557				0.944953642384106	0.0637880794701987	0.365139072847682	1.27390728476821	0.0278145695364242	-0.0259602649006601				-0.218172185430464	-0.161271523178808	-0.88794701986755	0.287417218543046	-0.413509933774833	0.0797350993377501				0.720529801324503	-0.224529801324503	-0.613721854304636	-3.39708609271523	-2.6164238410596	3.30437086092715				0.964026490066225	0.0834966887417219	0.101933774834437	-1.1682119205298	0.0519205298013249	-0.897483443708608				0.655788079470199	-0.0628344370860927	-0.692238410596026	-0.539602649006623	-1.80238410596026	-1.59470198675497			
19	380	-0.248158940397351	0.130754966887417	-0.935523178807947	0.873377483443709	-0.704635761589404	0.215099337748344				0.928953642384106	0.0637880794701987	0.349139072847682	1.83390728476821	0.0278145695364242	-0.30596026490066				-0.202172185430464	-0.161271523178808	-0.88794701986755	-0.552582781456954	0.706490066225167	0.0797350993377501				0.720529801324503	-0.224529801324503	-0.613721854304636	-3.95708609271523	-3.1764238410596	3.58437086092715				0.964026490066225	0.0834966887417219	0.117933774834437	-2.0082119205298	-0.508079470198675	-1.17748344370861				0.655788079470199	-0.0628344370860927	-0.692238410596026	-1.37960264900662	-2.08238410596027	-1.59470198675497			
20	400	-0.248158940397351	0.130754966887417	-0.935523178807947	0.873377483443709	-0.144635761589404	-0.904900662251656				0.944953642384106	0.0637880794701987	0.365139072847682	0.993907284768212	0.0278145695364242	-0.585960264900661				-0.218172185430464	-0.161271523178808	-0.88794701986755	0.847417218543046	0.706490066225167	0.0797350993377501				0.720529801324503	-0.224529801324503	-0.613721854304636	-3.39708609271523	-5.1364238410596	3.02437086092715				0.964026490066225	0.0834966887417219	0.117933774834437	-1.1682119205298	0.611920529801325	-0.897483443708608				0.655788079470199	-0.0628344370860927	-0.708238410596026	-0.259602649006623	-3.20238410596026	-1.31470198675497			
21	420	-0.248158940397351	0.130754966887417	-0.935523178807947	0.593377483443709	-0.144635761589404	-0.0649006622516557				0.928953642384106	0.0477880794701987	0.365139072847682	1.55390728476821	-0.532185430463576	-0.585960264900661				-0.202172185430464	-0.161271523178808	-0.87194701986755	0.567417218543046	-0.133509933774833	-0.20026490066225				0.720529801324503	-0.224529801324503	-0.645721854304636	-4.23708609271523	-6.8164238410596	3.02437086092715				0.964026490066225	0.0834966887417219	0.101933774834437	-0.888211920529802	2.01192052980133	-1.73748344370861				0.655788079470199	-0.0788344370860927	-0.708238410596026	1.70039735099338	-3.20238410596026	-1.87470198675497			
22	440	-0.248158940397351	0.130754966887417	-0.935523178807947	1.71337748344371	-0.424635761589404	-0.344900662251656				0.944953642384106	0.0637880794701987	0.349139072847682	0.153907284768212	-0.532185430463576	-1.70596026490066				-0.218172185430464	-0.161271523178808	-0.87194701986755	-1.95258278145695	-1.81350993377483	-0.20026490066225				0.720529801324503	-0.224529801324503	-0.629721854304636	-6.47708609271523	-8.4964238410596	3.58437086092715				0.964026490066225	0.0834966887417219	0.0859337748344371	-1.7282119205298	1.73192052980133	-1.17748344370861				0.655788079470199	-0.0628344370860927	-0.660238410596027	0.580397350993377	-3.76238410596027	-0.474701986754968			
23	460	-0.248158940397351	0.130754966887417	-0.935523178807947	0.873377483443709	-0.704635761589404	-1.46490066225166				0.944953642384106	0.0637880794701987	0.365139072847682	-1.24609271523179	0.587814569536424	-1.70596026490066				-0.218172185430464	-0.161271523178808	-0.88794701986755	-1.11258278145695	-0.413509933774833	-0.48026490066225				0.688529801324503	-0.240529801324503	-0.629721854304636	-7.03708609271523	-10.7364238410596	3.86437086092715				0.964026490066225	0.0834966887417219	0.0859337748344371	-2.0082119205298	-0.228079470198675	-0.897483443708608				0.655788079470199	-0.0788344370860927	-0.708238410596026	-0.259602649006623	-4.60238410596027	0.365298013245032			
24	480	-0.248158940397351	0.114754966887417	-0.935523178807947	1.15337748344371	-1.2646357615894	-0.904900662251656				0.928953642384106	0.0637880794701987	0.349139072847682	-0.406092715231788	-0.812185430463576	-1.42596026490066				-0.218172185430464	-0.161271523178808	-0.87194701986755	-0.272582781456954	-0.133509933774833	-0.20026490066225				0.688529801324503	-0.240529801324503	-0.661721854304636	-7.87708609271523	-11.5764238410596	3.86437086092715				0.948026490066225	0.0834966887417219	0.117933774834437	0.511788079470198	3.41192052980132	-2.29748344370861				0.655788079470199	-0.0628344370860927	-0.708238410596026	-0.259602649006623	-5.72238410596027	1.48529801324503			
25	500	-0.248158940397351	0.114754966887417	-0.935523178807947	1.15337748344371	-0.704635761589404	-0.344900662251656				0.944953642384106	0.0637880794701987	0.333139072847682	-2.64609271523179	0.587814569536424	-1.98596026490066				-0.218172185430464	-0.161271523178808	-0.88794701986755	-2.23258278145695	-1.25350993377483	0.63973509933775				0.688529801324503	-0.224529801324503	-0.645721854304636	-10.3970860927152	-12.6964238410596	5.26437086092715				0.948026490066225	0.0834966887417219	0.101933774834437	-2.0082119205298	2.29192052980133	-1.45748344370861				0.655788079470199	-0.0628344370860927	-0.692238410596026	0.860397350993377	-6.28238410596027	2.60529801324503			
26	520	-0.264158940397351	0.114754966887417	-0.935523178807947	0.593377483443709	-0.984635761589404	-0.344900662251656				0.944953642384106	0.0797880794701987	0.333139072847682	-4.32609271523179	0.307814569536424	-2.54596026490066				-0.218172185430464	-0.161271523178808	-0.88794701986755	-0.832582781456954	-0.413509933774833	0.0797350993377501				0.672529801324503	-0.240529801324503	-0.645721854304636	-12.9170860927152	-13.5364238410596	4.98437086092715				0.964026490066225	0.0834966887417219	0.0859337748344371	-5.9282119205298	2.01192052980133	-1.17748344370861				0.655788079470199	-0.0628344370860927	-0.708238410596026	1.70039735099338	-6.00238410596027	3.72529801324503			
27	540	-0.264158940397351	0.114754966887417	-0.935523178807947	0.313377483443709	-0.984635761589404	-1.46490066225166				0.944953642384106	0.0797880794701987	0.333139072847682	-4.04609271523179	1.14781456953642	-2.54596026490066				-0.218172185430464	-0.145271523178808	-0.87194701986755	-1.39258278145695	-1.25350993377483	0.35973509933775				0.656529801324503	-0.224529801324503	-0.645721854304636	-13.1970860927152	-12.6964238410596	5.54437086092715				0.964026490066225	0.0834966887417219	0.0859337748344371	-6.4882119205298	2.57192052980133	-1.73748344370861				0.639788079470199	-0.0948344370860927	-0.708238410596026	0.580397350993377	-4.32238410596027	5.68529801324503			
28	560	-0.264158940397351	0.114754966887417	-0.935523178807947	0.593377483443709	-0.704635761589404	-0.344900662251656				0.944953642384106	0.0637880794701987	0.349139072847682	-2.64609271523179	2.26781456953642	-0.86596026490066				-0.218172185430464	-0.145271523178808	-0.87194701986755	-1.11258278145695	-0.413509933774833	0.35973509933775				0.656529801324503	-0.224529801324503	-0.645721854304636	-15.1570860927152	-11.2964238410596	6.10437086092715				0.964026490066225	0.0834966887417219	0.0859337748344371	-5.9282119205298	1.73192052980133	-0.897483443708608				0.639788079470199	-0.0788344370860927	-0.708238410596026	-0.819602649006623	-4.88238410596027	7.08529801324503			
29	580	-0.264158940397351	0.114754966887417	-0.935523178807947	-0.246622516556291	-1.2646357615894	0.495099337748344				0.944953642384106	0.0637880794701987	0.333139072847682	-2.36609271523179	-2.49218543046358	-2.54596026490066				-0.218172185430464	-0.145271523178808	-0.87194701986755	-1.67258278145695	-0.413509933774833	1.19973509933775				0.640529801324503	-0.208529801324503	-0.661721854304636	-14.3170860927152	-9.8964238410596	6.66437086092715				0.964026490066225	0.0834966887417219	0.101933774834437	-3.6882119205298	2.29192052980133	-0.0574834437086077				0.639788079470199	-0.0788344370860927	-0.724238410596026	-2.49960264900662	-2.92238410596027	9.60529801324503			
30	600	-0.264158940397351	0.114754966887417	-0.935523178807947	-0.526622516556291	0.135364238410596	0.215099337748344				0.944953642384106	0.0797880794701987	0.333139072847682	-5.16609271523179	-1.93218543046358	-2.54596026490066				-0.234172185430464	-0.161271523178808	-0.88794701986755	-1.11258278145695	0.146490066225167	0.91973509933775				0.640529801324503	-0.208529801324503	-0.661721854304636	-12.0770860927152	-8.7764238410596	6.66437086092715				0.980026490066225	0.0834966887417219	0.0699337748344371	-5.9282119205298	2.01192052980133	0.502516556291392				0.639788079470199	-0.0628344370860927	-0.724238410596026	-1.09960264900662	-4.04238410596027	10.445298013245			
31	620	-0.264158940397351	0.114754966887417	-0.935523178807947	-0.246622516556291	0.975364238410596	-0.624900662251656				0.976953642384106	0.0797880794701987	0.317139072847682	-2.08609271523179	-1.09218543046358	-1.14596026490066				-0.234172185430464	-0.145271523178808	-0.90394701986755	-0.832582781456954	0.146490066225167	0.0797350993377501				0.640529801324503	-0.224529801324503	-0.661721854304636	-8.15708609271523	-6.8164238410596	5.54437086092715				0.980026490066225	0.0834966887417219	0.0859337748344371	-6.4882119205298	2.57192052980133	0.782516556291392				0.639788079470199	-0.0628344370860927	-0.740238410596026	0.580397350993377	-0.122384105960265	12.405298013245			
32	640	-0.280158940397351	0.114754966887417	-0.935523178807947	-1.36662251655629	1.5353642384106	-0.624900662251656				0.960953642384106	0.0957880794701987	0.317139072847682	-0.126092715231788	-3.61218543046358	-0.30596026490066				-0.234172185430464	-0.129271523178808	-0.88794701986755	-0.552582781456954	-0.413509933774833	0.0797350993377501				0.640529801324503	-0.224529801324503	-0.661721854304636	-7.31708609271523	-3.4564238410596	3.58437086092715				0.964026490066225	0.0674966887417219	0.0699337748344371	-7.6082119205298	3.13192052980133	0.782516556291392				0.623788079470199	-0.0788344370860927	-0.724238410596026	1.70039735099338	0.997615894039735	12.125298013245			
33	660	-0.280158940397351	0.146754966887417	-0.919523178807947	-1.92662251655629	0.975364238410596	-0.344900662251656				0.960953642384106	0.111788079470199	0.301139072847682	0.713907284768212	-6.41218543046358	-1.14596026490066				-0.250172185430464	-0.129271523178808	-0.87194701986755	-0.832582781456954	0.706490066225167	1.47973509933775				0.640529801324503	-0.224529801324503	-0.677721854304636	-7.31708609271523	-1.4964238410596	3.02437086092715				0.980026490066225	0.0834966887417219	0.0539337748344371	-7.3282119205298	3.69192052980133	-0.0574834437086077				0.607788079470199	-0.0788344370860927	-0.724238410596026	0.860397350993377	1.83761589403974	12.965298013245			
34	680	-0.264158940397351	0.130754966887417	-0.919523178807947	-1.36662251655629	1.5353642384106	0.215099337748344				0.944953642384106	0.0957880794701987	0.317139072847682	0.153907284768212	-8.65218543046358	-1.98596026490066				-0.250172185430464	-0.129271523178808	-0.87194701986755	1.96741721854305	1.26649006622517	1.75973509933775				0.624529801324503	-0.224529801324503	-0.661721854304636	-6.19708609271523	2.1435761589404	3.02437086092715				0.964026490066225	0.0834966887417219	0.0699337748344371	-7.3282119205298	2.57192052980133	-0.0574834437086077				0.591788079470199	-0.0788344370860927	-0.724238410596026	-0.819602649006623	2.67761589403974	13.805298013245			
35	700	-0.264158940397351	0.114754966887417	-0.919523178807947	-2.48662251655629	2.0953642384106	-0.0649006622516557				0.944953642384106	0.0957880794701987	0.285139072847682	-3.20609271523179	-6.97218543046358	-1.42596026490066				-0.250172185430464	-0.145271523178808	-0.87194701986755	3.08741721854305	2.38649006622517	1.47973509933775				0.640529801324503	-0.224529801324503	-0.661721854304636	-4.23708609271523	5.7835761589404	3.86437086092715				0.964026490066225	0.0994966887417219	0.0859337748344371	-5.9282119205298	2.85192052980133	0.222516556291392				0.575788079470199	-0.0788344370860927	-0.708238410596026	-2.49960264900662	3.79761589403974	15.205298013245			
36	720	-0.264158940397351	0.130754966887417	-0.919523178807947	-3.60662251655629	2.3753642384106	-0.904900662251656				0.960953642384106	0.0957880794701987	0.269139072847682	-0.406092715231788	-2.77218543046358	0.53403973509934				-0.250172185430464	-0.145271523178808	-0.88794701986755	2.80741721854305	1.82649006622517	2.03973509933775				0.624529801324503	-0.224529801324503	-0.645721854304636	-1.99708609271523	9.7035761589404	3.58437086092715				0.948026490066225	0.0834966887417219	0.0379337748344371	-6.7682119205298	0.0519205298013249	-0.617483443708608				0.575788079470199	-0.0788344370860927	-0.708238410596026	-5.85960264900662	6.87761589403974	15.205298013245			
37	740	-0.264158940397351	0.130754966887417	-0.935523178807947	-4.44662251655629	1.8153642384106	0.495099337748344				0.944953642384106	0.0797880794701987	0.253139072847682	4.91390728476821	-5.01218543046358	3.05403973509934				-0.234172185430464	-0.145271523178808	-0.87194701986755	1.12741721854305	3.22649006622517	0.91973509933775				0.608529801324503	-0.224529801324503	-0.661721854304636	-2.55708609271523	12.5035761589404	2.74437086092715				0.932026490066225	0.0674966887417219	0.0699337748344371	-5.6482119205298	3.97192052980133	-0.617483443708608				0.575788079470199	-0.0628344370860927	-0.724238410596026	-5.29960264900662	8.83761589403974	13.525298013245			
38	760	-0.264158940397351	0.114754966887417	-0.919523178807947	-6.96662251655629	1.8153642384106	0.775099337748344				0.944953642384106	0.0797880794701987	0.253139072847682	5.75390728476821	-6.97218543046358	3.33403973509934				-0.218172185430464	-0.129271523178808	-0.87194701986755	1.68741721854305	2.66649006622517	-0.20026490066225				0.624529801324503	-0.224529801324503	-0.661721854304636	-1.43708609271523	15.8635761589404	1.34437086092715				0.948026490066225	0.0674966887417219	0.0699337748344371	-6.7682119205298	2.57192052980133	-0.617483443708608				0.575788079470199	-0.0628344370860927	-0.724238410596026	-3.61960264900662	9.11761589403974	12.405298013245			
39	780	-0.264158940397351	0.130754966887417	-0.919523178807947	-7.80662251655629	0.975364238410596	-0.344900662251656				0.928953642384106	0.0637880794701987	0.253139072847682	1.27390728476821	-5.29218543046358	2.77403973509934				-0.234172185430464	-0.113271523178808	-0.87194701986755	3.36741721854305	0.986490066225167	-0.48026490066225				0.624529801324503	-0.224529801324503	-0.661721854304636	-0.317086092715232	16.1435761589404	-0.335629139072848				0.932026490066225	0.0674966887417219	0.0539337748344371	-4.8082119205298	3.97192052980133	-0.617483443708608				0.559788079470199	-0.0468344370860927	-0.724238410596026	-2.21960264900662	12.4776158940397	11.285298013245			
40	800	-0.264158940397351	0.130754966887417	-0.919523178807947	-8.92662251655629	1.8153642384106	0.495099337748344				0.928953642384106	0.0797880794701987	0.253139072847682	-2.64609271523179	-2.77218543046358	2.77403973509934				-0.234172185430464	-0.0972715231788079	-0.87194701986755	5.88741721854305	0.426490066225167	-1.60026490066225				0.624529801324503	-0.240529801324503	-0.661721854304636	0.522913907284768	16.1435761589404	-1.73562913907285				0.932026490066225	0.0674966887417219	0.0539337748344371	-5.9282119205298	6.77192052980133	-1.45748344370861				0.575788079470199	-0.0468344370860927	-0.740238410596026	-4.73960264900662	15.5576158940397	9.88529801324503			
41	820	-0.248158940397351	0.130754966887417	-0.935523178807947	-9.20662251655629	0.975364238410596	0.495099337748344				0.960953642384106	0.0957880794701987	0.237139072847682	-0.406092715231788	-1.65218543046358	2.77403973509934				-0.218172185430464	-0.129271523178808	-0.87194701986755	9.80741721854305	-0.133509933774833	-3.28026490066225				0.624529801324503	-0.240529801324503	-0.677721854304636	0.242913907284768	16.1435761589404	-2.01562913907285				0.948026490066225	0.0674966887417219	0.0379337748344371	-6.7682119205298	7.89192052980133	-1.17748344370861				0.575788079470199	-0.0628344370860927	-0.756238410596026	-3.61960264900662	11.0776158940397	6.52529801324503			
42	840	-0.248158940397351	0.130754966887417	-0.919523178807947	-11.1666225165563	-0.144635761589404	0.775099337748344				0.944953642384106	0.0637880794701987	0.253139072847682	4.35390728476821	-8.37218543046358	3.61403973509934				-0.218172185430464	-0.145271523178808	-0.85594701986755	12.047417218543	-0.693509933774834	-4.12026490066225				0.640529801324503	-0.288529801324503	-0.709721854304636	1.64291390728477	17.8235761589404	-1.17562913907285				0.948026490066225	0.0834966887417219	0.0219337748344371	-5.3682119205298	10.4119205298013	-1.73748344370861				0.543788079470199	-0.0948344370860927	-0.756238410596026	0.300397350993377	10.7976158940397	8.76529801324503			
43	860	-0.280158940397351	0.130754966887417	-0.919523178807947	-11.7266225165563	-1.2646357615894	1.89509933774834				0.960953642384106	0.0637880794701987	0.221139072847682	1.55390728476821	-24.8921854304636	1.65403973509934				-0.250172185430464	-0.161271523178808	-0.85594701986755	12.607417218543	-0.693509933774834	-4.12026490066225				0.624529801324503	-0.288529801324503	-0.709721854304636	-0.597086092715232	15.8635761589404	-0.615629139072848				0.980026490066225	0.0674966887417219	-0.0100662251655629	-2.8482119205298	10.6919205298013	-1.73748344370861				0.543788079470199	-0.0948344370860927	-0.772238410596026	-7.81960264900662	11.0776158940397	16.045298013245			
44	880	-0.280158940397351	0.130754966887417	-0.919523178807947	-12.8466225165563	-0.704635761589404	2.17509933774834				0.976953642384106	0.111788079470199	0.173139072847682	-2.36609271523179	-29.3721854304636	-0.86596026490066				-0.250172185430464	-0.177271523178808	-0.87194701986755	13.167417218543	-0.693509933774834	-3.56026490066225				0.624529801324503	-0.288529801324503	-0.709721854304636	-3.95708609271523	10.5435761589404	-1.17562913907285				0.980026490066225	0.0514966887417219	0.00593377483443711	-2.5682119205298	11.2519205298013	-1.45748344370861				0.543788079470199	-0.0628344370860927	-0.788238410596027	-8.37960264900662	16.6776158940397	21.085298013245			
45	900	-0.296158940397351	0.130754966887417	-0.919523178807947	-14.8066225165563	0.415364238410596	1.61509933774834				0.960953642384106	0.111788079470199	0.157139072847682	-0.406092715231788	-17.3321854304636	0.25403973509934				-0.266172185430464	-0.193271523178808	-0.88794701986755	17.3674172185431	-2.09350993377483	-4.96026490066225				0.624529801324503	-0.320529801324503	-0.741721854304636	-3.95708609271523	9.1435761589404	-2.29562913907285				0.980026490066225	0.0674966887417219	-0.0100662251655629	-3.6882119205298	10.1319205298013	-2.01748344370861				0.559788079470199	-0.0628344370860927	-0.788238410596027	-6.13960264900662	21.1576158940397	22.485298013245			
46	920	-0.264158940397351	0.146754966887417	-0.919523178807947	-15.3666225165563	-0.144635761589404	2.45509933774835				0.928953642384106	0.0797880794701987	0.141139072847682	6.87390728476821	-6.13218543046358	2.77403973509934				-0.250172185430464	-0.193271523178808	-0.85594701986755	17.3674172185431	0.146490066225167	-3.84026490066225				0.608529801324503	-0.320529801324503	-0.757721854304636	-7.03708609271523	9.9835761589404	-2.29562913907285				0.980026490066225	0.0514966887417219	-0.0100662251655629	-3.4082119205298	11.8119205298013	-2.57748344370861				0.543788079470199	-0.0628344370860927	-0.804238410596027	-2.21960264900662	19.4776158940397	23.045298013245			
47	940	0	0	0	0	0	0				0	0	0	0	0	0				0	0	0	0	0	0				0.576529801324503	-0.304529801324503	-0.757721854304636	-14.3170860927152	11.9435761589404	-4.25562913907285				0.964026490066225	0.0674966887417219	-0.0420662251655629	-1.7282119205298	14.8919205298013	-2.85748344370861				0.511788079470199	-0.0468344370860927	-0.804238410596027	-1.09960264900662	22.8376158940397	24.725298013245			
48	960	-0.312158940397351	0.146754966887417	-0.935523178807947	-8.64662251655629	5.4553642384106	4.13509933774834				0.944953642384106	0.111788079470199	0.189139072847682	1.83390728476821	3.10781456953642	-0.86596026490066				-0.298172185430464	-0.209271523178808	-0.48794701986755	-20.992582781457	20.0264900662252	0.35973509933775				0.576529801324503	-0.272529801324503	-0.725721854304636	-17.3970860927152	16.7035761589404	-7.33562913907285				0.980026490066225	0.0674966887417219	-0.0420662251655629	-0.888211920529802	19.3719205298013	-3.69748344370861				0.511788079470199	-0.0628344370860927	-0.772238410596026	-5.29960264900662	24.5176158940397	31.445298013245			
49	980	-0.296158940397351	0.194754966887417	-0.935523178807947	-10.6066225165563	7.9753642384106	6.37509933774834				0.944953642384106	0.0797880794701987	0.189139072847682	-3.20609271523179	14.8678145695364	1.37403973509934				-0.202172185430464	-0.145271523178808	-1.12794701986755	-100.792582781457	48.3064900662252	2.03973509933775				0.560529801324503	-0.272529801324503	-0.725721854304636	-10.9570860927152	23.7035761589404	-9.85562913907285				0.948026490066225	0.0834966887417219	-0.0580662251655629	0.511788079470198	21.8919205298013	-4.81748344370861				0.527788079470199	-0.0308344370860927	-0.772238410596026	-7.53960264900662	30.6776158940397	36.485298013245			
50	1000	-0.184158940397351	0.226754966887417	-0.935523178807947	-11.7266225165563	2.3753642384106	4.97509933774835				0.928953642384106	0.0637880794701987	0.205139072847682	-6.00609271523179	31.6678145695364	3.89403973509934				-0.170172185430464	-0.193271523178808	-1.04794701986755	-5.59258278145695	24.5064900662252	1.75973509933775				0.544529801324503	-0.272529801324503	-0.725721854304636	-7.87708609271523	27.9035761589404	-11.2556291390728				0.916026490066225	0.0674966887417219	-0.0100662251655629	1.9117880794702	27.7719205298013	-5.37748344370861				0.511788079470199	-0.0148344370860927	-0.772238410596026	-6.97960264900662	38.2376158940397	37.325298013245			
51	1020	-0.232158940397351	0.178754966887417	-0.983523178807947	-13.1266225165563	-4.6246357615894	1.33509933774834				0.944953642384106	0.0637880794701987	0.285139072847682	-10.4860927152318	45.3878145695364	8.09403973509934				-0.282172185430464	-0.161271523178808	-0.87194701986755	14.567417218543	11.9064900662252	3.43973509933775				0.576529801324503	-0.272529801324503	-0.709721854304636	-10.9570860927152	29.3035761589404	-14.6156291390728				0.916026490066225	0.0834966887417219	-0.0100662251655629	1.0717880794702	31.4119205298013	-6.49748344370861				0.543788079470199	-0.0148344370860927	-0.756238410596026	-1.37960264900662	37.9576158940397	35.925298013245			
52	1040	-0.264158940397351	0.226754966887417	-0.967523178807947	-24.8866225165563	1.2553642384106	3.57509933774835				0.928953642384106	0.127788079470199	0.269139072847682	-3.20609271523179	51.8278145695364	9.21403973509934				-0.330172185430464	-0.0172715231788079	-0.90394701986755	9.52741721854305	69.0264900662252	-4.12026490066225				0.592529801324503	-0.256529801324503	-0.725721854304636	-13.1970860927152	31.5435761589404	-16.8556291390729				0.900026490066225	0.0994966887417219	0.0219337748344371	-2.5682119205298	38.9719205298013	-8.17748344370861				0.559788079470199	-0.0148344370860927	-0.756238410596026	4.78039735099338	42.7176158940397	35.925298013245			
53	1060	-0.264158940397351	0.210754966887417	-1.03152317880795	-34.9666225165563	3.7753642384106	2.73509933774834				0.944953642384106	0.143788079470199	0.269139072847682	7.99390728476821	51.8278145695364	9.77403973509934				-0.0741721854304636	-0.0652715231788079	-0.93594701986755	63.5674172185431	67.9064900662252	-9.44026490066225				0.624529801324503	-0.240529801324503	-0.757721854304636	-11.2370860927152	33.2235761589404	-18.8156291390729				0.900026490066225	0.131496688741722	0.00593377483443711	0.791788079470198	44.0119205298013	-9.01748344370861				0.575788079470199	-0.0468344370860927	-0.740238410596026	12.3403973509934	44.6776158940397	36.485298013245			
54	1080	-0.312158940397351	0.210754966887417	-0.967523178807947	-17.3266225165563	6.5753642384106	6.65509933774834				0.928953642384106	0.159788079470199	0.157139072847682	21.7139072847682	36.4278145695364	13.1340397350993				0.117827814569536	-0.193271523178808	-0.95194701986755	93.5274172185431	11.6264900662252	-12.2402649006623				0.720529801324503	-0.224529801324503	-0.725721854304636	-22.9970860927152	25.6635761589404	-20.7756291390729				0.964026490066225	0.147496688741722	0.0219337748344371	4.1517880794702	47.3719205298013	-9.01748344370861				0.575788079470199	-0.0788344370860927	-0.724238410596026	14.0203973509934	47.4776158940397	37.885298013245			
55	1100	-0.408158940397351	0.162754966887417	-1.04752317880795	-20.1266225165563	11.0553642384106	10.0150993377483				0.912953642384106	0.0317880794701987	0.173139072847682	18.0739072847682	43.7078145695364	15.6540397350993				0.213827814569536	-0.353271523178808	-1.11194701986755	47.607417218543	-81.8935099337748	7.07973509933775				0.752529801324503	-0.224529801324503	-0.693721854304636	-33.6370860927152	8.5835761589404	-17.9756291390729				0.996026490066225	0.147496688741722	0.0699337748344371	9.1917880794702	43.4519205298013	-7.61748344370861				0.607788079470199	-0.0948344370860927	-0.708238410596026	9.82039735099338	48.8776158940397	41.805298013245			
56	1120	-0.328158940397351	0.210754966887417	-0.807523178807947	-12.8466225165563	13.0153642384106	8.89509933774834				0.896953642384106	-0.0322119205298013	0.317139072847682	-5.72609271523179	68.9078145695364	15.3740397350993				-0.538172185430464	-0.113271523178808	-0.85594701986755	68.327417218543	-49.4135099337748	7.35973509933775				0.752529801324503	-0.160529801324503	-0.677721854304636	-27.7570860927152	14.7435761589404	-17.9756291390729				0.932026490066225	0.131496688741722	0.117933774834437	13.3917880794702	40.9319205298013	-7.89748344370861				0.607788079470199	-0.126834437086093	-0.708238410596026	8.14039735099338	53.6376158940397	45.165298013245			
57	1140	-0.264158940397351	0.338754966887417	-0.871523178807947	-13.1266225165563	17.4953642384106	6.65509933774834				0.896953642384106	0.0157880794701987	0.493139072847682	-15.8060927152318	98.3078145695364	18.1740397350993				-0.154172185430464	-0.129271523178808	-0.99994701986755	43.967417218543	-28.1335099337748	-0.48026490066225				0.784529801324503	-0.176529801324503	-0.677721854304636	-15.1570860927152	16.7035761589404	-20.2156291390728				0.852026490066225	0.0994966887417219	0.181933774834437	19.2717880794702	46.5319205298013	-9.29748344370861				0.591788079470199	-0.142834437086093	-0.676238410596026	12.6203973509934	51.3976158940397	48.245298013245			
58	1160	-0.264158940397351	0.162754966887417	-1.03152317880795	-41.6866225165563	35.6953642384106	16.1750993377483				0.912953642384106	0.0957880794701987	0.509139072847682	1.27390728476821	95.7878145695364	22.6540397350993				-0.346172185430464	-0.209271523178808	-0.80794701986755	40.8874172185431	-18.0535099337748	-3.00026490066225				1.1365298013245	-0.176529801324503	-0.629721854304636	-47.0770860927152	-0.3764238410596	-25.5356291390728				0.900026490066225	0.131496688741722	0.261933774834437	26.5517880794702	55.2119205298013	-11.8174834437086				0.607788079470199	-0.158834437086093	-0.628238410596026	12.0603973509934	51.3976158940397	49.365298013245			
59	1180	-0.312158940397351	0.0827549668874172	-1.07952317880795	-45.8866225165563	29.2553642384106	23.1750993377483				0.912953642384106	0.0317880794701987	0.477139072847682	1.27390728476821	83.4678145695364	22.0940397350993				-0.202172185430464	-0.209271523178808	-0.91994701986755	28.0074172185431	3.50649006622517	-16.7202649006623				1.1525298013245	-0.0965298013245033	-0.469721854304636	-46.7970860927152	-0.0964238410596001	-15.1756291390728				1.01202649006623	0.227496688741722	0.357933774834437	35.2317880794702	61.3719205298013	-15.1774834437086				0.671788079470199	-0.158834437086093	-0.612238410596026	9.54039735099338	51.1176158940397	50.765298013245			
60	1200	-0.216158940397351	0.226754966887417	-0.967523178807947	-18.7266225165563	29.2553642384106	22.0550993377483				0.960953642384106	0.0957880794701987	0.589139072847682	-20.2860927152318	93.8278145695364	18.7340397350993				-0.250172185430464	-0.241271523178808	-0.98394701986755	29.6874172185431	9.94649006622517	-19.8002649006623				0.960529801324503	-0.0965298013245033	-0.437721854304636	26.2829139072848	44.4235761589404	-6.49562913907285				1.06002649006623	0.291496688741722	0.469933774834437	50.0717880794702	55.7719205298013	-18.8174834437086				0.671788079470199	-0.318834437086093	-0.564238410596026	19.3403973509934	56.1576158940397	52.725298013245			
61	1220	-0.072158940397351	0.306754966887417	-0.999523178807947	-38.6066225165563	28.6953642384106	17.5750993377483				0.944953642384106	0.159788079470199	0.781139072847682	-13.0060927152318	93.2678145695364	25.1740397350993				-0.250172185430464	-0.273271523178808	-0.93594701986755	26.8874172185431	22.8264900662252	-25.9602649006623				0.640529801324503	-0.160529801324503	-0.485721854304636	51.7629139072848	46.9435761589404	-8.45562913907285				0.964026490066225	0.147496688741722	0.453933774834437	65.1917880794702	47.6519205298013	-23.2974834437086				0.767788079470199	-0.430834437086093	-0.452238410596026	33.9003973509934	60.9176158940397	51.045298013245			
62	1240	-0.248158940397351	0.242754966887417	-0.951523178807947	-28.2466225165563	22.8153642384106	24.8550993377483				0.992953642384106	0.175788079470199	0.717139072847682	28.7139072847682	65.8278145695364	32.7340397350993				-0.250172185430464	-0.225271523178808	-0.90394701986755	19.8874172185431	35.1464900662252	-29.3202649006623				0.704529801324503	-0.160529801324503	-0.453721854304636	13.6829139072848	50.8635761589404	-21.3356291390729				0.884026490066225	0.0674966887417219	0.485933774834437	58.1917880794702	50.4519205298013	-24.4174834437086				0.895788079470199	-0.446834437086093	-0.452238410596026	-8.09960264900662	52.7976158940397	52.725298013245			
63	1260	-0.232158940397351	0.370754966887417	-1.01552317880795	-29.3666225165563	31.4953642384106	25.4150993377483				0.912953642384106	-0.0162119205298013	0.701139072847682	48.8739072847682	47.0678145695364	33.0140397350993				-0.266172185430464	-0.257271523178808	-0.82394701986755	21.287417218543	27.5864900662252	-23.4402649006623				0.832529801324503	-0.0965298013245033	-0.501721854304636	20.1229139072848	65.4235761589404	-28.8956291390729				0.916026490066225	0.115496688741722	0.517933774834437	52.0317880794702	54.6519205298013	-24.4174834437086				0.911788079470199	-0.382834437086093	-0.516238410596026	-10.8996026490066	49.4376158940397	46.005298013245			
64	1280	-0.168158940397351	0.418754966887417	-0.839523178807947	-22.3666225165563	31.7753642384106	22.8950993377483				0.784953642384106	-0.112211920529801	0.717139072847682	29.5539072847682	62.4678145695364	18.4540397350993				-0.234172185430464	-0.321271523178808	-0.93594701986755	17.087417218543	28.9864900662252	-23.4402649006623				0.832529801324503	-0.0485298013245033	-0.565721854304636	21.5229139072848	58.1435761589404	-31.1356291390729				1.01202649006623	0.0514966887417219	0.549933774834437	46.7117880794702	62.7719205298013	-27.7774834437086				0.959788079470199	-0.366834437086093	-0.420238410596026	30.5403973509934	45.5176158940397	22.205298013245			
65	1300	-0.216158940397351	0.402754966887417	-0.951523178807947	-17.3266225165563	38.7753642384106	20.6550993377483				0.944953642384106	0.0477880794701987	0.797139072847682	25.9139072847682	81.2278145695364	11.1740397350993				-0.234172185430464	-0.289271523178808	-0.87194701986755	18.487417218543	39.0664900662252	-27.9202649006623				1.0245298013245	-0.0325298013245033	-0.613721854304636	12.5629139072848	32.3835761589404	-29.1756291390729				1.02802649006623	0.131496688741722	0.501933774834437	28.2317880794702	40.0919205298013	-24.6974834437086				1.0077880794702	-0.350834437086093	-0.436238410596026	52.3803973509934	40.4776158940397	-11.114701986755			
66	1320	-0.248158940397351	0.386754966887417	-0.919523178807947	-16.7666225165563	41.2953642384106	16.1750993377483				0.976953642384106	0.0317880794701987	0.669139072847682	53.6339072847682	46.7878145695364	9.21403973509934				-0.218172185430464	-0.289271523178808	-0.87194701986755	4.76741721854305	21.9864900662252	-22.6002649006623				1.2005298013245	-0.0805298013245033	-0.613721854304636	10.8829139072848	5.2235761589404	-36.1756291390729				1.07602649006623	0.291496688741722	0.437933774834437	23.4717880794702	37.2919205298013	-25.2574834437086				1.0557880794702	-0.398834437086093	-0.468238410596026	56.8603973509934	23.1176158940397	-23.994701986755			
67	1340	-0.328158940397351	0.402754966887417	-0.855523178807947	-13.1266225165563	43.8153642384106	10.5750993377483				0.912953642384106	-0.0482119205298013	0.621139072847682	40.1939072847682	36.1478145695364	4.45403973509934				-0.282172185430464	-0.321271523178808	-0.83994701986755	4.20741721854305	37.1064900662252	-26.5202649006623				1.0405298013245	-0.0805298013245033	-0.645721854304636	13.9629139072848	-5.4164238410596	-45.9756291390729				1.07602649006623	0.371496688741722	0.517933774834437	28.7917880794702	29.4519205298013	-24.9774834437086				1.0077880794702	-0.446834437086093	-0.420238410596026	44.8203973509934	19.1976158940397	-27.074701986755			
68	1360	-0.296158940397351	0.434754966887417	-0.919523178807947	-8.36662251655629	51.0953642384106	7.49509933774834				0.944953642384106	0.0317880794701987	0.829139072847682	22.5539072847682	52.3878145695364	5.01403973509934				-0.298172185430464	-0.385271523178808	-0.91994701986755	-2.51258278145695	42.4264900662252	-28.7602649006623				0.864529801324503	-0.0325298013245033	-0.613721854304636	4.44291390728477	-7.3764238410596	-48.7756291390729				0.964026490066225	0.371496688741722	0.517933774834437	23.7517880794702	15.4519205298013	-21.3374834437086				0.959788079470199	-0.430834437086093	-0.372238410596026	20.4603973509934	19.4776158940397	-27.074701986755			
69	1380	-0.232158940397351	0.402754966887417	-0.903523178807947	-1.08662251655629	54.4553642384106	5.53509933774834				1.02495364238411	0.143788079470199	0.973139072847682	27.0339072847682	52.9478145695364	7.25403973509934				-0.202172185430464	-0.305271523178808	-0.85594701986755	-10.072582781457	50.8264900662252	-28.2002649006623				0.864529801324503	0.0314701986754967	-0.597721854304636	-10.6770860927152	-8.7764238410596	-46.5356291390729				0.948026490066225	0.371496688741722	0.549933774834437	24.3117880794702	25.5319205298013	-21.3374834437086				0.991788079470199	-0.462834437086093	-0.372238410596026	11.5003973509934	20.3176158940397	-22.874701986755			
70	1400	-0.168158940397351	0.354754966887417	-0.935523178807947	11.7933774834437	56.4153642384106	6.65509933774834				0.976953642384106	0.0637880794701987	0.829139072847682	40.4739072847682	21.5878145695364	9.77403973509934				-0.122172185430464	-0.273271523178808	-0.83994701986755	-9.23258278145695	56.1464900662252	-25.4002649006623				0.944529801324503	0.0314701986754967	-0.565721854304636	-2.27708609271523	-7.0964238410596	-41.2156291390729				1.07602649006623	0.355496688741722	0.549933774834437	19.8317880794702	25.8119205298013	-21.6174834437086				1.1037880794702	-0.478834437086093	-0.356238410596026	-11.4596026490066	22.2776158940397	-16.154701986755			
71	1420	-0.136158940397351	0.306754966887417	-0.935523178807947	10.3933774834437	64.8153642384106	10.0150993377483				0.944953642384106	0.0637880794701987	0.781139072847682	43.2739072847682	6.46781456953642	5.57403973509934				-0.0421721854304636	-0.225271523178808	-0.91994701986755	0.287417218543046	64.8264900662252	-26.5202649006623				0.976529801324503	0.0154701986754967	-0.581721854304636	4.44291390728477	-4.0164238410596	-32.5356291390729				1.10802649006623	0.355496688741722	0.549933774834437	13.9517880794702	17.4119205298013	-20.7774834437086				1.2317880794702	-0.462834437086093	-0.372238410596026	-38.8996026490066	25.9176158940397	-16.994701986755			
72	1440	-0.168158940397351	0.338754966887417	-0.951523178807947	9.27337748344371	71.8153642384106	12.2550993377483				0.944953642384106	0.0637880794701987	0.797139072847682	40.7539072847682	1.42781456953642	6.41403973509934				0.0378278145695364	-0.257271523178808	-0.96794701986755	6.72741721854305	69.3064900662252	-27.9202649006623				1.0885298013245	0.0154701986754967	-0.613721854304636	13.4029139072848	7.7435761589404	-25.8156291390729				1.09202649006623	0.371496688741722	0.565933774834437	8.3517880794702	11.8119205298013	-18.8174834437086				1.2797880794702	-0.462834437086093	-0.436238410596026	-27.4196026490066	15.5576158940397	-27.354701986755			
73	1460	-0.040158940397351	0.386754966887417	-0.983523178807947	9.55337748344371	74.3353642384106	14.7750993377483				0.976953642384106	0.0477880794701987	0.845139072847682	27.3139072847682	10.1078145695364	5.29403973509934				0.117827814569536	-0.353271523178808	-0.96794701986755	17.3674172185431	74.6264900662252	-27.9202649006623				1.1045298013245	-0.000529801324503289	-0.661721854304636	8.64291390728477	7.7435761589404	-16.2956291390729				1.12402649006623	0.387496688741722	0.661933774834437	10.8717880794702	9.57192052980133	-16.5774834437086				1.2157880794702	-0.478834437086093	-0.436238410596026	-6.41960264900662	7.43761589403974	-34.074701986755			
74	1480	0.039841059602649	0.370754966887417	-1.07952317880795	11.2333774834437	78.8153642384106	21.4950993377483				1.05695364238411	0.0957880794701987	0.989139072847682	31.5139072847682	2.82781456953642	-0.0259602649006601				0.149827814569536	-0.385271523178808	-1.11194701986755	14.287417218543	74.3464900662252	-25.6802649006623				1.1045298013245	0.0314701986754967	-0.709721854304636	-14.8770860927152	0.4635761589404	-6.21562913907285				1.17202649006623	0.371496688741722	0.613933774834437	2.4717880794702	-0.788079470198675	-10.1374834437086				1.1997880794702	-0.494834437086093	-0.340238410596026	-13.1396026490066	38.2376158940397	-23.994701986755			
75	1500	0.007841059602649	0.386754966887417	-1.11152317880795	17.9533774834437	84.4153642384106	26.8150993377483				1.16895364238411	0.0157880794701987	0.925139072847682	42.1539072847682	-14.2521854304636	-5.62596026490066				0.133827814569536	-0.465271523178808	-1.03194701986755	15.407417218543	79.6664900662252	-22.3202649006623				1.1685298013245	0.0314701986754967	-0.725721854304636	-16.2770860927152	-0.0964238410596001	3.86437086092715				1.20402649006623	0.387496688741722	0.549933774834437	2.1917880794702	-6.66807947019868	-7.05748344370861				1.1837880794702	-0.478834437086093	-0.388238410596026	-19.8596026490066	47.7576158940397	-12.234701986755			
76	1520	0.023841059602649	0.402754966887417	-1.07952317880795	22.7133774834437	93.3753642384106	26.5350993377483				1.07295364238411	0.0157880794701987	0.909139072847682	25.0739072847682	-4.45218543046358	-12.9059602649007				0.165827814569536	-0.449271523178808	-0.99994701986755	5.32741721854305	90.3064900662252	-18.6802649006623				1.1845298013245	0.0154701986754967	-0.725721854304636	-6.75708609271523	-1.2164238410596	4.98437086092715				1.12402649006623	0.419496688741722	0.645933774834437	4.7117880794702	-4.70807947019868	-7.05748344370861				1.1517880794702	-0.478834437086093	-0.484238410596026	7.58039735099338	35.1576158940397	-3.27470198675497			
77	1540	0.071841059602649	0.402754966887417	-1.07952317880795	37.2733774834437	96.7353642384106	28.4950993377483				1.10495364238411	0.111788079470199	0.957139072847682	14.4339072847682	7.30781456953642	-15.1459602649007				0.229827814569536	-0.385271523178808	-1.03194701986755	-3.63258278145695	98.9864900662252	-18.6802649006623				1.0405298013245	-0.0325298013245033	-0.741721854304636	-18.2370860927152	-5.4164238410596	-2.29562913907285				1.12402649006623	0.403496688741722	0.629933774834437	-6.7682119205298	-9.46807947019868	-6.77748344370861				1.2157880794702	-0.510834437086093	-0.484238410596026	-10.3396026490066	43.8376158940397	-2.99470198675497			
78	1560	0.151841059602649	0.338754966887417	-1.01552317880795	40.6333774834437	105.415364238411	31.8550993377483				1.31295364238411	0.175788079470199	1.11713907284768	30.3939072847682	-17.6121854304636	-23.5459602649007				0.277827814569536	-0.321271523178808	-0.93594701986755	6.44741721854305	109.906490066225	-19.2402649006623				0.992529801324503	-0.0165298013245033	-0.693721854304636	-23.5570860927152	-4.5764238410596	-2.57562913907285				1.15602649006623	0.355496688741722	0.597933774834437	-23.5682119205298	-0.228079470198675	-11.5374834437086				1.3117880794702	-0.446834437086093	-0.532238410596027	-20.1396026490066	34.0376158940397	-7.75470198675497			
79	1580	0.183841059602649	0.274754966887417	-0.967523178807947	43.9933774834437	116.615364238411	32.9750993377484				1.13695364238411	0.0957880794701987	0.893139072847682	24.5139072847682	-45.0521854304636	-20.1859602649007				0.341827814569536	-0.401271523178808	-0.91994701986755	8.68741721854305	112.706490066225	-17.5602649006623				1.0885298013245	0.0314701986754967	-0.597721854304636	-14.8770860927152	6.0635761589404	7.78437086092715				1.18802649006623	0.339496688741722	0.533933774834437	-26.3682119205298	-3.02807947019868	-8.73748344370861				1.2797880794702	-0.462834437086093	-0.484238410596026	-15.3796026490066	25.9176158940397	0.0852980132450323			
80	1600	0.263841059602649	0.274754966887417	-0.983523178807947	46.5133774834437	125.575364238411	31.8550993377483				0.880953642384106	0.143788079470199	0.669139072847682	6.59390728476821	-43.3721854304636	-22.1459602649007				0.341827814569536	-0.481271523178808	-0.91994701986755	2.80741721854305	118.866490066225	-16.7202649006623				1.2165298013245	0.0794701986754967	-0.517721854304636	-1.71708609271523	13.3435761589404	18.1443708609272				1.14002649006623	0.435496688741722	0.517933774834437	-23.5682119205298	-14.5080794701987	-2.01748344370861				1.1837880794702	-0.462834437086093	-0.484238410596026	-33.2996026490066	30.3976158940397	5.96529801324503			
81	1620	0.343841059602649	0.226754966887417	-0.903523178807947	59.1133774834437	137.895364238411	30.1750993377483				0.976953642384106	0.159788079470199	0.733139072847682	8.27390728476821	-18.4521854304636	-15.4259602649007				0.341827814569536	-0.465271523178808	-0.87194701986755	-12.592582781457	124.746490066225	-13.9202649006623				1.1205298013245	0.0314701986754967	-0.565721854304636	1.92291390728477	11.3835761589404	16.1843708609272				0.996026490066225	0.419496688741722	0.549933774834437	-16.0082119205298	-19.8280794701987	2.18251655629139				1.0877880794702	-0.318834437086093	-0.484238410596026	-29.9396026490066	21.9976158940397	12.125298013245			
82	1640	0.487841059602649	0.0987549668874172	-0.887523178807947	68.6333774834437	133.415364238411	26.5350993377483				1.05695364238411	0.143788079470199	0.861139072847682	9.11390728476821	-24.8921854304636	-10.1059602649007				0.373827814569536	-0.353271523178808	-0.79194701986755	-20.432582781457	131.746490066225	-12.8002649006623				1.0245298013245	0.0314701986754967	-0.613721854304636	-6.19708609271523	4.3835761589404	11.9843708609272				0.980026490066225	0.355496688741722	0.565933774834437	-10.9682119205298	-15.6280794701987	3.30251655629139				0.991788079470199	-0.286834437086093	-0.420238410596026	-16.7796026490066	8.27761589403974	21.645298013245			
83	1660	0.471841059602649	0.0987549668874172	-0.807523178807947	61.0733774834437	134.535364238411	24.2950993377483				1.04095364238411	0.0957880794701987	0.813139072847682	14.7139072847682	-50.0921854304636	-10.3859602649007				0.437827814569536	-0.257271523178808	-0.71194701986755	-19.312582781457	136.506490066225	-12.5202649006623				1.0085298013245	0.0314701986754967	-0.549721854304636	-9.27708609271523	2.4235761589404	10.8643708609272				1.04402649006623	0.275496688741722	0.517933774834437	-9.8482119205298	-18.1480794701987	4.42251655629139				1.0397880794702	-0.382834437086093	-0.340238410596026	-12.5796026490066	14.9976158940397	21.365298013245			
84	1680	0.407841059602649	0.0507549668874172	-0.727523178807947	63.0333774834437	139.855364238411	24.0150993377483				0.976953642384106	-0.000211920529801304	0.685139072847682	23.6739072847682	-63.5321854304636	-10.6659602649007				0.453827814569536	-0.273271523178808	-0.71194701986755	-15.112582781457	137.626490066225	-16.1602649006623				0.960529801324503	0.0314701986754967	-0.437721854304636	1.92291390728477	5.2235761589404	5.26437086092715				0.980026490066225	0.275496688741722	0.533933774834437	-9.2882119205298	-22.0680794701987	7.78251655629139				1.0557880794702	-0.462834437086093	-0.340238410596026	-18.7396026490066	17.2376158940397	16.605298013245			
85	1700	0.503841059602649	0.0187549668874172	-0.647523178807947	57.4333774834437	149.935364238411	17.5750993377483				0.800953642384106	0.0157880794701987	0.717139072847682	10.7939072847682	-56.5321854304636	-4.22596026490066				0.517827814569536	-0.289271523178808	-0.71194701986755	-14.832582781457	140.426490066225	-20.6402649006623				0.912529801324503	0.0154701986754967	-0.389721854304636	24.3229139072848	5.7835761589404	-1.73562913907285				0.852026490066225	0.275496688741722	0.533933774834437	-7.0482119205298	-20.3880794701987	9.46251655629139				0.975788079470199	-0.350834437086093	-0.324238410596026	-27.1396026490066	15.5576158940397	12.685298013245			
86	1720	0.679841059602649	0.00275496688741723	-0.615523178807947	51.5533774834437	156.095364238411	13.3750993377483				0.816953642384106	0.207788079470199	0.557139072847682	-15.8060927152318	-44.4921854304636	1.65403973509934				0.613827814569536	-0.289271523178808	-0.61594701986755	-9.23258278145695	146.026490066225	-25.4002649006623				0.800529801324503	0.0634701986754967	-0.405721854304636	13.9629139072848	6.3435761589404	-2.57562913907285				0.804026490066225	0.275496688741722	0.453933774834437	-8.4482119205298	-16.1880794701987	10.3025165562914				0.863788079470199	-0.270834437086093	-0.292238410596026	-15.6596026490066	18.0776158940397	12.125298013245			
87	1740	0.791841059602649	-0.0772450331125828	-0.599523178807947	42.8733774834437	158.055364238411	11.1350993377483				0.832953642384106	0.191788079470199	0.541139072847682	-20.5660927152318	-35.8121854304636	3.61403973509934				0.661827814569536	-0.273271523178808	-0.55194701986755	-8.11258278145695	151.626490066225	-27.9202649006623				0.800529801324503	0.0474701986754967	-0.373721854304636	1.64291390728477	11.6635761589404	-2.01562913907285				0.788026490066225	0.275496688741722	0.485933774834437	-14.3282119205298	-17.0280794701987	11.1425165562914				0.815788079470199	-0.350834437086093	-0.212238410596026	0.580397350993377	17.2376158940397	9.04529801324503			
88	1760	0.855841059602649	-0.0932450331125828	-0.551523178807947	35.5933774834437	154.695364238411	11.4150993377483				0.752953642384106	0.143788079470199	0.621139072847682	-8.24609271523179	-36.3721854304636	5.57403973509934				0.693827814569536	-0.305271523178808	-0.51994701986755	-5.03258278145695	154.986490066225	-29.3202649006623				0.816529801324503	0.0954701986754967	-0.325721854304636	10.8829139072848	17.2635761589404	-1.17562913907285				0.756026490066225	0.275496688741722	0.405933774834437	-15.4482119205298	-22.3480794701987	10.5825165562914				0.815788079470199	-0.366834437086093	-0.148238410596026	-8.37960264900662	9.67761589403974	5.68529801324503			
89	1780	0.823841059602649	-0.0612450331125828	-0.471523178807947	22.1533774834437	155.535364238411	8.89509933774834				0.688953642384106	0.111788079470199	0.573139072847682	-2.08609271523179	-45.0521854304636	7.81403973509934				0.725827814569536	-0.289271523178808	-0.37594701986755	-0.832582781456954	154.706490066225	-26.8002649006623				0.784529801324503	0.0314701986754967	-0.357721854304636	21.8029139072848	17.5435761589404	-0.615629139072848				0.676026490066225	0.275496688741722	0.405933774834437	-12.9282119205298	-22.0680794701987	13.1025165562914				0.815788079470199	-0.302834437086093	-0.180238410596026	-30.4996026490066	4.91761589403974	5.40529801324503			
90	1800	0.791841059602649	-0.0132450331125828	-0.375523178807947	12.6333774834437	154.135364238411	6.37509933774834				0.608953642384106	0.0317880794701987	0.477139072847682	-11.6060927152318	-41.6921854304636	10.0540397350993				0.789827814569536	-0.273271523178808	-0.32794701986755	-6.43258278145695	156.946490066225	-21.2002649006623				0.656529801324503	-0.0165298013245033	-0.341721854304636	11.1629139072848	9.9835761589404	-0.895629139072848				0.644026490066225	0.227496688741722	0.373933774834437	-11.2482119205298	-21.2280794701987	14.2225165562914				0.735788079470199	-0.270834437086093	-0.196238410596026	-23.7796026490066	7.71761589403974	5.68529801324503			
91	1820	0.711841059602649	0.0187549668874172	-0.343523178807947	8.15337748344371	160.855364238411	5.25509933774834				0.608953642384106	0.0637880794701987	0.509139072847682	-30.3660927152318	-21.5321854304636	8.93403973509934				0.837827814569536	-0.257271523178808	-0.31194701986755	-10.072582781457	151.626490066225	-19.2402649006623				0.608529801324503	0.0634701986754967	-0.261721854304636	0.802913907284768	6.3435761589404	-0.895629139072848				0.580026490066225	0.179496688741722	0.421933774834437	-13.2082119205298	-18.1480794701987	15.6225165562914				0.687788079470199	-0.270834437086093	-0.180238410596026	-9.77960264900662	13.5976158940397	7.36529801324503			
92	1840	0.727841059602649	-0.0612450331125828	-0.263523178807947	10.3933774834437	170.095364238411	2.17509933774834				0.592953642384106	0.143788079470199	0.525139072847682	-26.1660927152318	-23.2121854304636	8.65403973509934				0.757827814569536	-0.161271523178808	-0.24794701986755	-0.832582781456954	147.146490066225	-18.4002649006623				0.576529801324503	0.159470198675497	-0.165721854304636	-2.27708609271523	6.0635761589404	-3.41562913907285				0.580026490066225	0.195496688741722	0.405933774834437	-16.5682119205298	-18.9880794701987	18.1425165562914				0.623788079470199	-0.286834437086093	-0.148238410596026	-8.09960264900662	7.99761589403974	8.76529801324503			
93	1860	0.823841059602649	-0.0452450331125828	-0.183523178807947	15.1533774834437	173.175364238411	0.495099337748344				0.576953642384106	0.0317880794701987	0.493139072847682	-9.64609271523179	-40.0121854304636	13.9740397350993				0.789827814569536	-0.225271523178808	-0.15194701986755	-5.59258278145695	150.226490066225	-17.2802649006623				0.560529801324503	0.175470198675497	-0.117721854304636	14.5229139072848	11.6635761589404	-3.69562913907285				0.548026490066225	0.195496688741722	0.389933774834437	-14.6082119205298	-20.6680794701987	19.8225165562914				0.623788079470199	-0.270834437086093	-0.164238410596026	5.34039735099338	-11.3223841059603	7.36529801324503			
94	1880	0.823841059602649	-0.0292450331125828	-0.215523178807947	7.31337748344371	176.535364238411	-0.624900662251656				0.560953642384106	0.0477880794701987	0.429139072847682	-13.2860927152318	-28.5321854304636	13.9740397350993				0.757827814569536	-0.193271523178808	-0.11994701986755	-8.67258278145695	153.026490066225	-16.1602649006623				0.608529801324503	0.0794701986754967	-0.117721854304636	26.0029139072848	16.4235761589404	-1.45562913907285				0.516026490066225	0.179496688741722	0.357933774834437	-11.5282119205298	-22.3480794701987	20.3825165562914				0.639788079470199	-0.270834437086093	-0.116238410596026	4.78039735099338	-21.1223841059603	5.12529801324503			
95	1900	0.759841059602649	0.00275496688741723	-0.151523178807947	3.95337748344371	179.895364238411	3.01509933774834				0.480953642384106	0.127788079470199	0.333139072847682	-18.8860927152318	-31.0521854304636	9.49403973509934				0.805827814569536	-0.193271523178808	-0.15194701986755	-13.432582781457	153.306490066225	-14.7602649006622				0.624529801324503	0.0794701986754967	-0.117721854304636	18.4429139072848	16.1435761589404	3.02437086092715				0.500026490066225	0.211496688741722	0.357933774834437	-14.3282119205298	-21.7880794701987	21.7825165562914				0.607788079470199	-0.270834437086093	-0.100238410596026	-26.5796026490066	-12.1623841059603	5.40529801324503			
96	1920	0.823841059602649	0.00275496688741723	-0.055523178807947	0.313377483443709	183.255364238411	2.45509933774835				0.432953642384106	0.175788079470199	0.301139072847682	-11.6060927152318	-14.2521854304636	4.73403973509934				0.837827814569536	-0.145271523178808	-0.0879470198675496	-15.952582781457	141.266490066225	-15.6002649006622				0.624529801324503	0.127470198675497	-0.101721854304636	19.5629139072848	9.4235761589404	4.42437086092715				0.500026490066225	0.195496688741722	0.357933774834437	-9.8482119205298	-25.9880794701987	26.2625165562914				0.559788079470199	-0.190834437086093	-0.148238410596026	-28.5396026490066	-16.3623841059603	3.16529801324503			
97	1940	0.855841059602649	0.0987549668874172	-0.087523178807947	16.8333774834437	182.135364238411	-7.06490066225166				0.480953642384106	-0.0162119205298013	0.477139072847682	-14.4060927152318	-5.01218543046358	13.4140397350993				0.741827814569536	-0.193271523178808	-0.10394701986755	-20.992582781457	140.146490066225	-17.5602649006623				0.688529801324503	0.111470198675497	-0.117721854304636	27.1229139072848	1.8635761589404	8.62437086092715				0.516026490066225	0.179496688741722	0.405933774834437	-2.5682119205298	-27.3880794701987	26.2625165562914				0.543788079470199	-0.174834437086093	-0.116238410596026	12.9003973509934	-28.4023841059603	-1.87470198675497			
98	1960	0.775841059602649	0.162754966887417	-0.087523178807947	44.2733774834437	182.415364238411	-9.30490066225166				0	0	0	0	0	0				0	0	0	0	0	0				0.704529801324503	0.0314701986754967	-0.165721854304636	29.3629139072848	-7.9364238410596	13.9443708609272				0.548026490066225	0.115496688741722	0.405933774834437	2.4717880794702	-30.1880794701987	27.9425165562914				0.591788079470199	-0.286834437086093	-0.100238410596026	8.42039735099338	-30.3623841059603	-8.31470198675497			
99	1980	0	0	0	0	0	0				0.416953642384106	0.0317880794701987	0.429139072847682	-23.0860927152318	-29.0921854304636	14.8140397350993				0.693827814569536	-0.209271523178808	0.0400529801324504	-37.232582781457	146.866490066225	-12.8002649006623				0.608529801324503	0.0634701986754967	-0.181721854304636	26.8429139072848	-16.3364238410596	14.5043708609272				0.484026490066225	0.0994966887417219	0.389933774834437	0.791788079470198	-33.8280794701987	30.4625165562914				0.671788079470199	-0.334834437086093	-0.132238410596026	2.54039735099338	-35.9623841059603	-10.834701986755			
100	2000	0.823841059602649	0.114754966887417	-0.055523178807947	54.0733774834437	154.975364238411	-25.2649006622517				0.464953642384106	0.0477880794701987	0.413139072847682	-12.7260927152318	-22.3721854304636	14.5340397350993				0.709827814569536	-0.145271523178808	0.00805298013245037	-45.072582781457	127.826490066225	-13.0802649006623				0.640529801324503	0.0474701986754967	-0.149721854304636	23.7629139072848	-27.2564238410596	15.9043708609272				0.500026490066225	0.163496688741722	0.357933774834437	-1.4482119205298	-38.8680794701987	31.8625165562914				0.591788079470199	-0.318834437086093	-0.100238410596026	14.3003973509934	-49.6823841059603	-9.15470198675497			
101	2020	0.855841059602649	0.0667549668874172	0.056476821192053	40.3533774834437	128.095364238411	-33.1049006622517				0.496953642384106	0.0157880794701987	0.509139072847682	-14.4060927152318	-26.5721854304636	17.3340397350993				0.821827814569536	-0.0652715231788079	-0.0239470198675496	-46.752582781457	126.426490066225	-10.2802649006622				0.704529801324503	0.0154701986754967	-0.181721854304636	10.0429139072848	-43.7764238410596	22.6243708609272				0.548026490066225	0.163496688741722	0.357933774834437	3.5917880794702	-37.1880794701987	31.5825165562914				0.527788079470199	-0.286834437086093	-0.0682384105960265	-1.65960264900662	-50.8023841059603	-5.51470198675497			
102	2040	0.855841059602649	0.0507549668874172	0.088476821192053	25.2333774834437	102.335364238411	-25.8249006622517				0.480953642384106	0.127788079470199	0.397139072847682	-13.0060927152318	-35.2521854304636	15.9340397350993				0.853827814569536	-0.161271523178808	0.00805298013245037	-38.632582781457	119.426490066225	-7.20026490066225				0.768529801324503	0.0314701986754967	-0.229721854304636	5.84291390728477	-50.2164238410596	28.2243708609272				0.564026490066225	0.163496688741722	0.405933774834437	5.5517880794702	-35.7880794701987	29.6225165562914				0.527788079470199	-0.286834437086093	-0.148238410596026	-12.0196026490066	-56.1223841059603	-2.15470198675497			
103	2060	0.967841059602649	0.0667549668874172	0.00847682119205304	8.71337748344371	90.0153642384106	-20.7849006622517				0.512953642384106	0.159788079470199	0.429139072847682	-9.08609271523179	-12.5721854304636	16.2140397350993				0.805827814569536	-0.193271523178808	0.0400529801324504	-22.672582781457	101.226490066225	-2.44026490066225				0.816529801324503	0.0314701986754967	-0.277721854304636	9.20291390728477	-62.8164238410596	29.3443708609272				0.612026490066225	0.179496688741722	0.325933774834437	4.1517880794702	-46.4280794701987	26.8225165562914				0.575788079470199	-0.254834437086093	-0.212238410596026	-1.37960264900662	-66.4823841059603	-3.55470198675497			
104	2080	1.01584105960265	0.0507549668874172	-0.151523178807947	-3.04662251655629	64.8153642384106	-16.0249006622517				0.512953642384106	0.0797880794701987	0.573139072847682	-6.00609271523179	3.38781456953642	15.9340397350993				0.869827814569536	-0.193271523178808	0.10405298013245	-18.472582781457	77.4264900662252	4.83973509933775				0.800529801324503	0.0154701986754967	-0.341721854304636	8.08291390728477	-73.4564238410596	27.9443708609272				0.644026490066225	0.147496688741722	0.341933774834437	8.0717880794702	-46.1480794701987	24.8625165562914				0.639788079470199	-0.286834437086093	-0.180238410596026	2.26039735099338	-68.7223841059603	-0.754701986754968			
105	2100	0.999841059602649	0.00275496688741723	-0.215523178807947	3.39337748344371	29.2553642384106	-9.58490066225166				0.560953642384106	-0.0322119205298013	0.573139072847682	-14.6860927152318	8.42781456953642	17.3340397350993				0.981827814569536	-0.161271523178808	0.15205298013245	-14.552582781457	57.5464900662252	7.35973509933775				0.736529801324503	-0.0485298013245033	-0.421721854304636	3.32291390728477	-74.0164238410596	24.8643708609272				0.740026490066225	0.115496688741722	0.341933774834437	8.3517880794702	-45.5880794701987	24.0225165562914				0.639788079470199	-0.366834437086093	-0.164238410596026	-2.49960264900662	-55.2823841059603	7.64529801324503			
106	2120	1.07984105960265	-0.0292450331125828	-0.119523178807947	3.95337748344371	7.1353642384106	-6.22490066225166				0.736953642384106	0.111788079470199	0.749139072847682	-39.3260927152318	12.0678145695364	8.37403973509934				1.04582781456954	-0.0812715231788079	0.18405298013245	-13.712582781457	37.6664900662252	3.15973509933775				0.608529801324503	-0.128529801324503	-0.485721854304636	0.522913907284768	-61.1364238410596	18.7043708609272				0.804026490066225	0.0994966887417219	0.357933774834437	10.0317880794702	-35.5080794701987	18.1425165562914				0.655788079470199	-0.366834437086093	-0.212238410596026	-20.9796026490066	-39.8823841059603	13.245298013245			
107	2140	1.15984105960265	0.00275496688741723	0.088476821192053	-2.76662251655629	-2.1046357615894	-3.14490066225166				0.976953642384106	0.0477880794701987	0.797139072847682	-36.5260927152318	10.1078145695364	10.8940397350993				1.14182781456954	0.0147284768211921	0.23205298013245	1.12741721854305	23.3864900662252	-4.68026490066225				0.624529801324503	-0.160529801324503	-0.517721854304636	3.04291390728477	-44.0564238410596	17.3043708609272				0.868026490066225	0.115496688741722	0.325933774834437	-0.608211920529802	-19.2680794701987	13.3825165562914				0.751788079470199	-0.254834437086093	-0.324238410596026	-9.21960264900662	-31.2023841059603	4.28529801324503			
108	2160	1.14384105960265	0.0667549668874172	0.232476821192053	-17.0466225165563	1.5353642384106	-1.46490066225166				1.00895364238411	-0.0482119205298013	0.605139072847682	-14.1260927152318	-8.65218543046358	13.4140397350993				1.14182781456954	-0.0652715231788079	0.21605298013245	22.967417218543	15.5464900662252	-8.04026490066225				0.704529801324503	-0.112529801324503	-0.533721854304636	1.64291390728477	-26.1364238410596	21.5043708609272				0.948026490066225	0.0834966887417219	0.261933774834437	-3.1282119205298	-9.74807947019868	11.1425165562914				0.831788079470199	-0.190834437086093	-0.388238410596026	1.14039735099338	-17.7623841059603	-11.954701986755			
109	2180	0.983841059602649	0.0827549668874172	0.344476821192053	-31.0466225165563	9.9353642384106	-3.42490066225166				0.912953642384106	0.0477880794701987	0.493139072847682	-15.8060927152318	-12.0121854304636	7.81403973509934				1.12582781456954	-0.241271523178808	0.20005298013245	28.287417218543	7.98649006622517	-5.24026490066225				0.656529801324503	-0.0965298013245033	-0.549721854304636	0.802913907284768	2.7035761589404	10.8643708609272				0.948026490066225	0.0834966887417219	0.229933774834437	-7.0482119205298	-4.14807947019868	8.06251655629139				0.815788079470199	-0.286834437086093	-0.404238410596026	2.82039735099338	0.717615894039735	-23.434701986755			
110	2200	0.951841059602649	0.146754966887417	0.376476821192053	-27.6866225165563	16.9353642384106	-7.90490066225166				0.864953642384106	0.0637880794701987	0.605139072847682	-22.2460927152318	-8.93218543046358	5.29403973509934				1.06182781456954	-0.305271523178808	0.12005298013245	11.207417218543	-0.693509933774834	-0.20026490066225				0.688529801324503	-0.0645298013245033	-0.533721854304636	14.2429139072848	16.9835761589404	0.224370860927152				0.916026490066225	0.115496688741722	0.197933774834437	-11.5282119205298	-3.30807947019868	7.50251655629139				0.831788079470199	-0.398834437086093	-0.340238410596026	19.6203973509934	10.7976158940397	-18.954701986755			
111	2220	0.903841059602649	0.130754966887417	0.312476821192053	-14.2466225165563	6.5753642384106	-6.78490066225166				0.768953642384106	-0.000211920529801304	0.589139072847682	-14.4060927152318	-8.09218543046358	6.13403973509934				0.949827814569536	-0.273271523178808	0.0880529801324504	-12.872582781457	-2.65350993377483	2.87973509933775				0.736529801324503	-0.0965298013245033	-0.565721854304636	6.12291390728477	12.5035761589404	-0.0556291390728476				0.884026490066225	0.0994966887417219	0.213933774834437	-9.2882119205298	-1.62807947019868	8.90251655629139				0.783788079470199	-0.414834437086093	-0.308238410596026	5.90039735099338	7.71761589403974	-4.67470198675497			
112	2240	0.967841059602649	0.178754966887417	0.200476821192053	-10.3266225165563	-4.6246357615894	-2.30490066225166				0.816953642384106	0.0957880794701987	0.509139072847682	-5.16609271523179	-0.252185430463576	0.81403973509934				0.917827814569536	-0.145271523178808	0.12005298013245	-23.232582781457	-4.05350993377483	3.43973509933775				0.624529801324503	-0.128529801324503	-0.613721854304636	-9.27708609271523	13.0635761589404	3.58437086092715				0.900026490066225	0.0994966887417219	0.229933774834437	-14.3282119205298	-2.74807947019868	8.90251655629139				0.783788079470199	-0.286834437086093	-0.372238410596026	-1.65960264900662	0.997615894039735	-1.03470198675497			
113	2260	0.935841059602649	0.194754966887417	0.216476821192053	-13.9666225165563	-6.0246357615894	2.45509933774835				0.832953642384106	0.127788079470199	0.397139072847682	-2.64609271523179	-6.13218543046358	-1.14596026490066				0.949827814569536	-0.0492715231788079	0.13605298013245	-17.912582781457	-8.53350993377483	2.59973509933775				0.560529801324503	-0.112529801324503	-0.613721854304636	-6.47708609271523	18.6635761589404	1.62437086092715				0.836026490066225	0.131496688741722	0.149933774834437	-25.2482119205298	-5.26807947019868	7.50251655629139				0.815788079470199	-0.174834437086093	-0.452238410596026	-10.3396026490066	-4.04238410596027	-11.954701986755			
114	2280	0.951841059602649	0.130754966887417	0.248476821192053	-4.72662251655629	1.8153642384106	1.61509933774834				0.816953642384106	0.0477880794701987	0.333139072847682	2.39390728476821	-3.33218543046358	-0.0259602649006601				0.965827814569536	-0.0332715231788079	0.12005298013245	-2.79258278145695	-10.2135099337748	2.31973509933775				0.752529801324503	-0.0485298013245033	-0.581721854304636	5.00291390728477	22.0235761589404	-0.0556291390728476				0.868026490066225	0.163496688741722	0.149933774834437	-23.8482119205298	0.331920529801325	7.78251655629139				0.735788079470199	-0.126834437086093	-0.532238410596027	-24.3396026490066	-0.402384105960265	-14.474701986755			
115	2300	0.935841059602649	0.0667549668874172	0.168476821192053	9.83337748344371	-0.704635761589404	0.215099337748344				0.848953642384106	-0.0322119205298013	0.509139072847682	-5.72609271523179	10.9478145695364	4.17403973509934				0.901827814569536	-0.0492715231788079	0.0720529801324504	10.087417218543	-11.3335099337748	2.59973509933775				0.992529801324503	-0.0645298013245033	-0.533721854304636	3.88291390728477	12.7835761589404	5.82437086092715				0.900026490066225	0.211496688741722	0.181933774834437	-15.1682119205298	4.81192052980133	6.94251655629139				0.703788079470199	-0.0788344370860927	-0.564238410596026	-17.8996026490066	-2.08238410596027	-10.834701986755			
116	2320	0.951841059602649	0.0507549668874172	0.104476821192053	8.15337748344371	-6.0246357615894	-0.624900662251656				0.848953642384106	0.0797880794701987	0.525139072847682	-10.2060927152318	12.3478145695364	5.29403973509934				0.869827814569536	-0.0492715231788079	0.0720529801324504	11.207417218543	-10.2135099337748	2.59973509933775				0.928529801324503	-0.128529801324503	-0.581721854304636	-3.67708609271523	6.0635761589404	6.66437086092715				0.948026490066225	0.147496688741722	0.149933774834437	-6.7682119205298	2.29192052980133	6.66251655629139				0.735788079470199	-0.110834437086093	-0.564238410596026	14.3003973509934	-7.12238410596027	-6.35470198675497			
117	2340	0.967841059602649	0.0667549668874172	0.088476821192053	0.313377483443709	-10.7846357615894	0.495099337748344				0.880953642384106	0.0317880794701987	0.349139072847682	-1.80609271523179	8.14781456953643	9.49403973509934				0.949827814569536	-0.0812715231788079	0.0880529801324504	15.407417218543	-6.29350993377483	2.87973509933775				0.832529801324503	-0.144529801324503	-0.565721854304636	-3.95708609271523	7.4635761589404	-0.895629139072848				0.948026490066225	0.0994966887417219	0.165933774834437	1.0717880794702	4.81192052980133	6.66251655629139				0.767788079470199	-0.254834437086093	-0.516238410596026	11.5003973509934	-0.682384105960265	-6.07470198675497			
118	2360	0.999841059602649	0.0667549668874172	0.136476821192053	-6.12662251655629	-4.3446357615894	1.61509933774834				0.880953642384106	-0.0322119205298013	0.365139072847682	-7.40609271523179	15.9878145695364	7.81403973509934				0.981827814569536	-0.161271523178808	0.12005298013245	18.487417218543	-4.05350993377483	0.35973509933775				0.800529801324503	-0.112529801324503	-0.453721854304636	-0.597086092715232	4.1035761589404	-3.97562913907285				0.980026490066225	0.0194966887417219	0.213933774834437	6.9517880794702	7.33192052980133	5.82251655629139				0.751788079470199	-0.366834437086093	-0.532238410596027	-6.69960264900662	7.15761589403974	-1.59470198675497			
119	2380	0.999841059602649	0.0507549668874172	0.232476821192053	-6.96662251655629	2.0953642384106	0.775099337748344				0.944953642384106	-0.0482119205298013	0.557139072847682	-13.5660927152318	29.4278145695364	9.49403973509934				0.997827814569536	-0.193271523178808	0.18405298013245	17.647417218543	-2.93350993377483	-2.72026490066225				0.784529801324503	-0.144529801324503	-0.485721854304636	2.76291390728477	2.1435761589404	3.02437086092715				0.980026490066225	0.00349668874172187	0.229933774834437	3.3117880794702	4.53192052980133	5.54251655629139				0.783788079470199	-0.350834437086093	-0.548238410596027	2.26039735099338	0.717615894039735	5.40529801324503			
120	2400	0.983841059602649	0.0667549668874172	0.200476821192053	3.67337748344371	0.135364238410596	-0.344900662251656				1.00895364238411	-0.0482119205298013	0.621139072847682	-2.08609271523179	15.4278145695364	9.49403973509934				1.01382781456954	-0.193271523178808	0.13605298013245	16.5274172185431	-1.81350993377483	-3.56026490066225				0.800529801324503	-0.176529801324503	-0.517721854304636	11.4429139072848	8.5835761589404	2.46437086092715				0.980026490066225	0.00349668874172187	0.229933774834437	2.1917880794702	4.53192052980133	5.54251655629139				0.831788079470199	-0.286834437086093	-0.532238410596027	10.3803973509934	-7.96238410596027	4.28529801324503			
121	2420	0.999841059602649	0.0987549668874172	0.104476821192053	5.35337748344371	-3.7846357615894	-0.344900662251656				0.896953642384106	-0.0322119205298013	0.445139072847682	9.11390728476821	5.06781456953642	4.17403973509934				1.01382781456954	-0.209271523178808	0.10405298013245	7.28741721854305	-2.37350993377483	-0.48026490066225				0.832529801324503	-0.176529801324503	-0.533721854304636	15.9229139072848	9.1435761589404	0.504370860927152				0.964026490066225	0.0194966887417219	0.229933774834437	2.4717880794702	6.21192052980133	5.82251655629139				0.847788079470199	-0.302834437086093	-0.532238410596027	-2.21960264900662	-1.80238410596026	2.04529801324503			
122	2440	0.967841059602649	0.0667549668874172	0.00847682119205304	-2.48662251655629	-8.26463576158941	1.33509933774834				0.832953642384106	-0.0322119205298013	0.477139072847682	-0.686092715231788	12.0678145695364	-0.30596026490066				0.981827814569536	-0.209271523178808	0.12005298013245	-1.95258278145695	-0.693509933774834	0.63973509933775				0.816529801324503	-0.192529801324503	-0.581721854304636	14.5229139072848	9.4235761589404	3.58437086092715				0.916026490066225	0.0674966887417219	0.245933774834437	1.0717880794702	3.69192052980133	4.14251655629139				0.783788079470199	-0.350834437086093	-0.484238410596026	2.54039735099338	-0.962384105960265	4.00529801324503			
123	2460	0.903841059602649	0.0347549668874172	-0.039523178807947	-3.88662251655629	-8.26463576158941	1.89509933774834				0.864953642384106	-0.0482119205298013	0.557139072847682	-6.84609271523179	13.4678145695364	1.37403973509934				0.933827814569536	-0.193271523178808	0.0880529801324504	0.287417218543046	-2.93350993377483	0.91973509933775				0.816529801324503	-0.160529801324503	-0.549721854304636	6.12291390728477	4.3835761589404	5.26437086092715				0.916026490066225	0.0514966887417219	0.277933774834437	1.9117880794702	6.21192052980133	3.58251655629139				0.767788079470199	-0.350834437086093	-0.420238410596026	7.30039735099338	-5.44238410596027	8.76529801324503			
124	2480	0.935841059602649	0.0187549668874172	-0.00752317880794696	0.593377483443709	-7.1446357615894	1.61509933774834				0.912953642384106	-0.0642119205298013	0.525139072847682	-4.88609271523179	7.58781456953643	2.21403973509934				0.917827814569536	-0.193271523178808	0.0720529801324504	3.64741721854305	-3.77350993377483	1.75973509933775				0.832529801324503	-0.112529801324503	-0.517721854304636	-1.71708609271523	-0.6564238410596	3.02437086092715				0.948026490066225	0.0354966887417219	0.261933774834437	2.4717880794702	5.65192052980133	3.86251655629139				0.783788079470199	-0.270834437086093	-0.452238410596026	2.26039735099338	-9.92238410596027	7.64529801324503			
125	2500	0.951841059602649	0.0187549668874172	0.056476821192053	-2.48662251655629	-7.1446357615894	2.45509933774835				0.896953642384106	-0.0482119205298013	0.397139072847682	-6.28609271523179	1.70781456953642	0.81403973509934				0.933827814569536	-0.193271523178808	0.0560529801324504	3.36741721854305	-4.61350993377483	2.59973509933775				0.816529801324503	-0.0805298013245033	-0.533721854304636	-5.91708609271523	-5.1364238410596	1.34437086092715				0.948026490066225	0.0514966887417219	0.261933774834437	-2.0082119205298	2.01192052980133	2.74251655629139				0.799788079470199	-0.238834437086093	-0.468238410596026	14.0203973509934	-13.5623841059603	-3.83470198675497			
126	2520	0.999841059602649	0.0187549668874172	0.120476821192053	-9.20662251655629	0.415364238410596	1.89509933774834				0.928953642384106	-0.0322119205298013	0.413139072847682	-9.36609271523179	3.66781456953642	1.93403973509934				0.949827814569536	-0.161271523178808	0.0400529801324504	-1.39258278145695	-4.05350993377483	2.31973509933775				0.784529801324503	-0.112529801324503	-0.533721854304636	2.76291390728477	-3.4564238410596	3.58437086092715				0.980026490066225	0.0514966887417219	0.229933774834437	-2.5682119205298	-1.90807947019868	3.86251655629139				0.799788079470199	-0.334834437086093	-0.436238410596026	2.26039735099338	-4.88238410596027	-5.79470198675497			
127	2540	0.967841059602649	0.0507549668874172	0.168476821192053	-11.1666225165563	6.0153642384106	1.89509933774834				0.912953642384106	-0.0482119205298013	0.461139072847682	-10.2060927152318	-1.09218543046358	3.05403973509934				0.949827814569536	-0.161271523178808	0.0400529801324504	-5.59258278145695	-2.09350993377483	2.03973509933775				0.752529801324503	-0.144529801324503	-0.501721854304636	8.64291390728477	1.3035761589404	2.74437086092715				0.948026490066225	0.0514966887417219	0.197933774834437	1.3517880794702	-3.58807947019868	5.26251655629139				0.783788079470199	-0.334834437086093	-0.484238410596026	-15.0996026490066	0.437615894039735	0.925298013245032			
128	2560	0.951841059602649	0.0827549668874172	0.136476821192053	-5.00662251655629	4.8953642384106	1.05509933774834				0.864953642384106	-0.0162119205298013	0.525139072847682	-9.64609271523179	-1.09218543046358	2.21403973509934				0.933827814569536	-0.145271523178808	0.0400529801324504	-7.27258278145696	1.54649006622517	1.19973509933775				0.720529801324503	-0.112529801324503	-0.485721854304636	12.0029139072848	5.5035761589404	1.34437086092715				0.948026490066225	0.0194966887417219	0.229933774834437	3.8717880794702	-0.508079470198675	6.10251655629139				0.783788079470199	-0.238834437086093	-0.484238410596026	8.42039735099338	-6.28238410596027	0.925298013245032			
129	2580	0.999841059602649	0.0987549668874172	0.088476821192053	0.313377483443709	0.695364238410596	0.215099337748344				0.928953642384106	-0.000211920529801304	0.525139072847682	-3.48609271523179	0.587814569536424	2.21403973509934				0.949827814569536	-0.129271523178808	0.0400529801324504	-2.23258278145695	1.54649006622517	-0.48026490066225				0.752529801324503	-0.128529801324503	-0.517721854304636	13.6829139072848	9.7035761589404	1.90437086092715				0.932026490066225	0.0354966887417219	0.197933774834437	-1.4482119205298	-2.74807947019868	6.10251655629139				0.783788079470199	-0.206834437086093	-0.452238410596026	6.18039735099338	0.717615894039735	-8.03470198675497			
130	2600	0.999841059602649	0.0827549668874172	0.072476821192053	-0.526622516556291	-2.3846357615894	-0.0649006622516557				0.912953642384106	-0.0322119205298013	0.461139072847682	4.91390728476821	-3.33218543046358	1.93403973509934				1.01382781456954	-0.129271523178808	0.0720529801324504	1.96741721854305	2.94649006622517	-0.76026490066225				0.816529801324503	-0.192529801324503	-0.533721854304636	9.76291390728477	10.5435761589404	4.14437086092715				0.932026490066225	0.0514966887417219	0.197933774834437	-3.4082119205298	-1.06807947019868	6.10251655629139				0.767788079470199	-0.270834437086093	-0.532238410596027	0.300397350993377	5.75761589403974	-11.954701986755			
131	2620	0.967841059602649	0.0187549668874172	0.088476821192053	0.593377483443709	-3.5046357615894	1.89509933774834				0.880953642384106	-0.0322119205298013	0.429139072847682	0.433907284768212	-5.01218543046358	0.53403973509934				0.981827814569536	-0.129271523178808	0.0880529801324504	4.20741721854305	1.54649006622517	-1.60026490066225				0.848529801324503	-0.192529801324503	-0.581721854304636	8.92291390728477	10.5435761589404	6.66437086092715				0.948026490066225	0.0514966887417219	0.213933774834437	-0.608211920529802	1.73192052980133	6.10251655629139				0.751788079470199	-0.318834437086093	-0.548238410596027	11.5003973509934	-2.36238410596027	-7.19470198675497			
132	2640	0.951841059602649	0.0187549668874172	0.104476821192053	1.99337748344371	0.695364238410596	3.29509933774834				0.880953642384106	-0.0322119205298013	0.493139072847682	-10.4860927152318	7.86781456953642	3.05403973509934				0.949827814569536	-0.161271523178808	0.0560529801324504	2.52741721854305	0.146490066225167	-2.44026490066225				0.880529801324503	-0.192529801324503	-0.597721854304636	7.80291390728477	8.5835761589404	6.94437086092715				0.980026490066225	0.0194966887417219	0.197933774834437	0.791788079470198	-1.34807947019868	4.70251655629139				0.751788079470199	-0.286834437086093	-0.532238410596027	-0.259602649006623	-7.96238410596027	0.645298013245032			
133	2660	0.999841059602649	0.0507549668874172	0.152476821192053	1.99337748344371	4.6153642384106	1.05509933774834				0.960953642384106	-0.0162119205298013	0.573139072847682	-5.72609271523179	5.62781456953642	2.21403973509934				0.981827814569536	-0.209271523178808	0.0560529801324504	5.04741721854305	-1.81350993377483	-1.60026490066225				0.896529801324503	-0.208529801324503	-0.581721854304636	3.88291390728477	3.5435761589404	6.38437086092715				0.948026490066225	0.0354966887417219	0.229933774834437	5.2717880794702	0.0519205298013249	4.14251655629139				0.783788079470199	-0.254834437086093	-0.532238410596027	-3.05960264900662	-9.64238410596027	3.44529801324503			
134	2680	1.01584105960265	0.0667549668874172	0.152476821192053	3.11337748344371	3.2153642384106	-0.624900662251656				0.912953642384106	-0.0802119205298013	0.493139072847682	4.35390728476821	-7.25218543046358	3.61403973509934				1.01382781456954	-0.209271523178808	0.0720529801324504	3.08741721854305	0.426490066225167	-0.48026490066225				0.800529801324503	-0.208529801324503	-0.517721854304636	0.802913907284768	-3.7364238410596	4.70437086092715				0.964026490066225	0.0194966887417219	0.213933774834437	5.5517880794702	0.331920529801325	3.58251655629139				0.767788079470199	-0.270834437086093	-0.484238410596026	7.58039735099338	-6.84238410596027	-0.754701986754968			
135	2700	0.951841059602649	0.0507549668874172	0.104476821192053	2.83337748344371	-0.704635761589404	-0.624900662251656				0.880953642384106	-0.0322119205298013	0.493139072847682	2.95390728476821	-5.29218543046358	2.49403973509934				0.981827814569536	-0.209271523178808	0.0560529801324504	-1.39258278145695	-0.133509933774833	0.35973509933775				0.736529801324503	-0.144529801324503	-0.501721854304636	-2.55708609271523	-0.9364238410596	2.46437086092715				0.932026490066225	0.0194966887417219	0.229933774834437	6.3917880794702	0.611920529801325	3.02251655629139				0.767788079470199	-0.334834437086093	-0.468238410596026	-2.49960264900662	1.83761589403974	-2.99470198675497			
136	2720	0.951841059602649	0.0507549668874172	0.088476821192053	-1.64662251655629	-0.424635761589404	0.215099337748344				0.880953642384106	-0.0322119205298013	0.509139072847682	0.153907284768212	-2.21218543046358	3.05403973509934				0.965827814569536	-0.177271523178808	0.0720529801324504	-2.23258278145695	-0.973509933774833	-0.48026490066225				0.752529801324503	-0.160529801324503	-0.485721854304636	4.72291390728477	3.5435761589404	1.06437086092715				0.900026490066225	0.0194966887417219	0.229933774834437	3.5917880794702	1.17192052980133	2.46251655629139				0.783788079470199	-0.334834437086093	-0.484238410596026	3.94039735099338	-4.88238410596027	0.365298013245032			
137	2740	0.967841059602649	0.0347549668874172	0.088476821192053	-0.246622516556291	-0.144635761589404	1.05509933774834				0.880953642384106	-0.0322119205298013	0.477139072847682	1.83390728476821	-3.89218543046358	1.37403973509934				0.965827814569536	-0.161271523178808	0.0880529801324504	3.36741721854305	-1.53350993377483	-0.20026490066225				0.768529801324503	-0.192529801324503	-0.501721854304636	6.96291390728477	4.3835761589404	8.90437086092715				0.932026490066225	0.00349668874172187	0.229933774834437	0.511788079470198	1.73192052980133	2.18251655629139				0.767788079470199	-0.302834437086093	-0.452238410596026	9.26039735099338	-9.36238410596027	4.00529801324503			
138	2760	0.935841059602649	0.0187549668874172	0.104476821192053	6.75337748344371	0.135364238410596	1.05509933774834				0.864953642384106	-0.0642119205298013	0.461139072847682	4.63390728476821	-3.05218543046358	2.21403973509934				0.965827814569536	-0.145271523178808	0.10405298013245	5.04741721854305	-0.973509933774833	0.91973509933775				0.784529801324503	-0.176529801324503	-0.517721854304636	3.60291390728477	6.3435761589404	4.98437086092715				0.916026490066225	0.0194966887417219	0.229933774834437	-0.328211920529802	-0.788079470198675	2.46251655629139				0.735788079470199	-0.270834437086093	-0.452238410596026	-1.37960264900662	-2.08238410596027	1.76529801324503			
139	2780	0.951841059602649	0.0187549668874172	0.088476821192053	4.23337748344371	1.2553642384106	0.775099337748344				0.880953642384106	-0.0642119205298013	0.477139072847682	-1.24609271523179	2.26781456953642	1.37403973509934				0.933827814569536	-0.177271523178808	0.0880529801324504	2.52741721854305	-1.53350993377483	1.19973509933775				0.800529801324503	-0.176529801324503	-0.533721854304636	2.20291390728477	6.9035761589404	4.42437086092715				0.932026490066225	0.0194966887417219	0.229933774834437	-0.888211920529802	0.0519205298013249	2.18251655629139				0.751788079470199	-0.270834437086093	-0.468238410596026	-4.73960264900662	2.39761589403974	-1.03470198675497			
140	2800	0.983841059602649	0.0347549668874172	0.120476821192053	-2.76662251655629	2.9353642384106	1.33509933774834				0.912953642384106	-0.0482119205298013	0.493139072847682	-3.48609271523179	1.14781456953642	-0.0259602649006601				0.949827814569536	-0.177271523178808	0.0880529801324504	3.08741721854305	0.986490066225167	-0.20026490066225				0.816529801324503	-0.192529801324503	-0.533721854304636	1.36291390728477	5.7835761589404	4.14437086092715				0.948026490066225	0.0354966887417219	0.213933774834437	-1.4482119205298	1.73192052980133	2.18251655629139				0.799788079470199	-0.270834437086093	-0.500238410596026	-0.819602649006623	0.157615894039735	-3.55470198675497			
141	2820	0.983841059602649	0.0507549668874172	0.136476821192053	-4.44662251655629	3.4953642384106	0.495099337748344				0.896953642384106	-0.0322119205298013	0.461139072847682	-0.406092715231788	-1.37218543046358	0.53403973509934				0.981827814569536	-0.193271523178808	0.10405298013245	2.52741721854305	0.706490066225167	-0.76026490066225				0.832529801324503	-0.192529801324503	-0.517721854304636	-3.39708609271523	1.0235761589404	3.86437086092715				0.948026490066225	0.0194966887417219	0.197933774834437	-1.4482119205298	-0.228079470198675	1.62251655629139				0.799788079470199	-0.270834437086093	-0.516238410596026	-0.259602649006623	-0.402384105960265	-4.11470198675497			
142	2840	0.967841059602649	0.0667549668874172	0.120476821192053	-3.32662251655629	2.6553642384106	-0.0649006622516557				0.880953642384106	-0.0642119205298013	0.477139072847682	-0.966092715231788	0.307814569536424	1.65403973509934				0.949827814569536	-0.177271523178808	0.10405298013245	-0.832582781456954	0.146490066225167	-0.76026490066225				0.816529801324503	-0.160529801324503	-0.501721854304636	-5.07708609271523	-1.4964238410596	4.14437086092715				0.948026490066225	0.0194966887417219	0.229933774834437	-0.608211920529802	1.73192052980133	1.34251655629139				0.767788079470199	-0.270834437086093	-0.516238410596026	4.78039735099338	-2.08238410596027	-3.83470198675497			
143	2860	0.967841059602649	0.0507549668874172	0.136476821192053	-2.48662251655629	0.135364238410596	-1.46490066225166				0.896953642384106	-0.0642119205298013	0.493139072847682	-3.48609271523179	3.94781456953642	1.37403973509934				0.965827814569536	-0.161271523178808	0.10405298013245	-1.95258278145695	2.38649006622517	-1.04026490066225				0.800529801324503	-0.192529801324503	-0.517721854304636	2.48291390728477	2.9835761589404	2.74437086092715				0.916026490066225	0.0194966887417219	0.229933774834437	-0.328211920529802	0.0519205298013249	1.90251655629139				0.751788079470199	-0.286834437086093	-0.500238410596026	6.46039735099338	-0.122384105960265	-3.27470198675497			
144	2880	0.967841059602649	0.0507549668874172	0.088476821192053	-2.76662251655629	-0.984635761589404	-0.624900662251656				0.864953642384106	-0.0322119205298013	0.477139072847682	-4.04609271523179	3.38781456953642	0.53403973509934				0.981827814569536	-0.161271523178808	0.10405298013245	-2.23258278145695	2.66649006622517	-1.32026490066225				0.816529801324503	-0.192529801324503	-0.501721854304636	2.20291390728477	2.1435761589404	0.784370860927152				0.948026490066225	0.0194966887417219	0.229933774834437	2.4717880794702	2.57192052980133	1.06251655629139				0.783788079470199	-0.302834437086093	-0.516238410596026	1.42039735099338	0.437615894039735	-1.31470198675497			
145	2900	0.983841059602649	0.0507549668874172	0.120476821192053	-3.60662251655629	1.2553642384106	0.215099337748344				0.912953642384106	-0.0322119205298013	0.509139072847682	-3.20609271523179	5.90781456953642	0.25403973509934				0.997827814569536	-0.161271523178808	0.10405298013245	-1.95258278145695	2.66649006622517	-1.60026490066225				0.832529801324503	-0.160529801324503	-0.517721854304636	-4.51708609271523	-1.2164238410596	-0.895629139072848				0.948026490066225	0.0194966887417219	0.229933774834437	-0.888211920529802	3.97192052980133	0.502516556291392				0.799788079470199	-0.318834437086093	-0.532238410596027	4.22039735099338	-3.76238410596027	1.48529801324503			
146	2920	0.967841059602649	0.0347549668874172	0.152476821192053	-1.36662251655629	2.6553642384106	-0.0649006622516557				0.896953642384106	-0.0322119205298013	0.509139072847682	-0.406092715231788	2.54781456953642	-0.0259602649006601				0.981827814569536	-0.177271523178808	0.0880529801324504	0.00741721854304636	1.26649006622517	-0.76026490066225				0.816529801324503	-0.176529801324503	-0.485721854304636	-4.51708609271523	-4.2964238410596	-1.17562913907285				0.948026490066225	0.0194966887417219	0.229933774834437	-1.1682119205298	2.29192052980133	0.502516556291392				0.751788079470199	-0.318834437086093	-0.468238410596026	1.70039735099338	-4.88238410596027	4.56529801324503			
147	2940	0.967841059602649	0.0347549668874172	0.136476821192053	-0.526622516556291	2.0953642384106	0.215099337748344				0.864953642384106	-0.0482119205298013	0.509139072847682	-2.64609271523179	2.54781456953642	-0.86596026490066				0.965827814569536	-0.177271523178808	0.0720529801324504	-0.272582781456954	1.26649006622517	-1.04026490066225				0.784529801324503	-0.160529801324503	-0.501721854304636	0.802913907284768	1.3035761589404	-1.45562913907285				0.932026490066225	0.0194966887417219	0.245933774834437	-0.0482119205298018	2.57192052980133	-0.617483443708608				0.767788079470199	-0.286834437086093	-0.452238410596026	1.70039735099338	-2.36238410596027	4.56529801324503			
148	2960	0.983841059602649	0.0507549668874172	0.120476821192053	-3.88662251655629	0.135364238410596	-0.624900662251656				0.880953642384106	-0.0162119205298013	0.509139072847682	-4.04609271523179	4.50781456953642	-0.86596026490066				0.965827814569536	-0.161271523178808	0.0720529801324504	-3.07258278145695	1.54649006622517	-0.48026490066225				0.768529801324503	-0.192529801324503	-0.501721854304636	2.76291390728477	2.9835761589404	-2.85562913907285				0.916026490066225	0.0194966887417219	0.229933774834437	-0.888211920529802	2.01192052980133	-1.45748344370861				0.767788079470199	-0.270834437086093	-0.468238410596026	1.98039735099338	0.157615894039735	-0.194701986754968			
149	2980	0.967841059602649	0.0667549668874172	0.120476821192053	-5.28662251655629	-0.704635761589404	-0.904900662251656				0.848953642384106	-0.0322119205298013	0.477139072847682	-0.686092715231788	0.867814569536424	-0.86596026490066				0.981827814569536	-0.161271523178808	0.0880529801324504	-1.95258278145695	0.706490066225167	0.35973509933775				0	0	0	0	0	0				0	0	0	0	0	0				0	0	0	0	0	0			
150	3000	0.951841059602649	0.0667549668874172	0.104476821192053	-3.60662251655629	-1.5446357615894	-0.624900662251656				0.864953642384106	-0.0162119205298013	0.509139072847682	1.83390728476821	3.94781456953642	-1.70596026490066				0.965827814569536	-0.161271523178808	0.0880529801324504	-0.832582781456954	-0.973509933774833	-0.20026490066225				0.816529801324503	-0.144529801324503	-0.501721854304636	-3.67708609271523	1.0235761589404	-1.45562913907285				0.948026490066225	0.0514966887417219	0.245933774834437	-0.888211920529802	2.85192052980133	-2.29748344370861				0.767788079470199	-0.286834437086093	-0.468238410596026	5.62039735099338	1.83761589403974	-5.23470198675497			
151	3020	0.951841059602649	0.0507549668874172	0.136476821192053	-0.806622516556291	-1.8246357615894	0.215099337748344				0.880953642384106	-0.0322119205298013	0.509139072847682	-1.24609271523179	3.94781456953642	-2.54596026490066				0.949827814569536	-0.145271523178808	0.0880529801324504	1.12741721854305	-0.973509933774833	-0.20026490066225				0.800529801324503	-0.160529801324503	-0.517721854304636	0.522913907284768	2.4235761589404	-2.29562913907285				0.948026490066225	0.0354966887417219	0.245933774834437	-1.4482119205298	2.29192052980133	-2.29748344370861				0.799788079470199	-0.302834437086093	-0.468238410596026	1.14039735099338	-0.122384105960265	-4.67470198675497			
152	3040	0.983841059602649	0.0507549668874172	0.152476821192053	0.873377483443709	1.2553642384106	-0.0649006622516557				0.912953642384106	-0.0322119205298013	0.509139072847682	-3.76609271523179	4.22781456953642	-2.26596026490066				0.981827814569536	-0.145271523178808	0.0880529801324504	2.80741721854305	-0.133509933774833	-0.20026490066225				0.800529801324503	-0.176529801324503	-0.517721854304636	1.92291390728477	3.5435761589404	-2.57562913907285				0.948026490066225	0.0194966887417219	0.229933774834437	-0.888211920529802	2.57192052980133	-1.73748344370861				0.815788079470199	-0.286834437086093	-0.516238410596026	-0.819602649006623	-2.08238410596027	-4.11470198675497			
153	3060	0.983841059602649	0.0507549668874172	0.136476821192053	-0.806622516556291	2.3753642384106	0.495099337748344				0.896953642384106	-0.0322119205298013	0.477139072847682	-2.36609271523179	2.82781456953642	-1.42596026490066				0.965827814569536	-0.161271523178808	0.0720529801324504	2.52741721854305	-1.81350993377483	-0.48026490066225				0.832529801324503	-0.176529801324503	-0.517721854304636	0.242913907284768	2.4235761589404	-2.01562913907285				0.948026490066225	0.0514966887417219	0.245933774834437	-0.608211920529802	2.57192052980133	-0.897483443708608				0.783788079470199	-0.254834437086093	-0.516238410596026	3.66039735099338	-2.36238410596027	-5.23470198675497			
154	3080	0.999841059602649	0.0507549668874172	0.120476821192053	-2.48662251655629	0.975364238410596	-0.344900662251656				0.896953642384106	-0.0322119205298013	0.509139072847682	-0.406092715231788	4.22781456953642	-0.30596026490066				0.965827814569536	-0.177271523178808	0.0880529801324504	2.24741721854305	-0.973509933774833	-1.60026490066225				0.832529801324503	-0.176529801324503	-0.501721854304636	-4.23708609271523	-1.2164238410596	-0.615629139072848				0.932026490066225	0.0514966887417219	0.261933774834437	3.3117880794702	4.53192052980133	-1.73748344370861				0.767788079470199	-0.270834437086093	-0.500238410596026	0.580397350993377	0.997615894039735	-5.51470198675497			
155	3100	0.967841059602649	0.0507549668874172	0.088476821192053	-3.04662251655629	-2.3846357615894	-1.18490066225166				0.880953642384106	-0.0482119205298013	0.525139072847682	0.713907284768212	3.10781456953642	0.25403973509934				0.949827814569536	-0.177271523178808	0.0880529801324504	2.24741721854305	0.426490066225167	-1.60026490066225				0.800529801324503	-0.144529801324503	-0.517721854304636	-0.597086092715232	-0.0964238410596001	1.06437086092715				0.948026490066225	0.0194966887417219	0.229933774834437	3.3117880794702	3.13192052980133	-1.17748344370861				0.783788079470199	-0.318834437086093	-0.500238410596026	0.580397350993377	-0.402384105960265	-2.99470198675497			
156	3120	0.967841059602649	0.0347549668874172	0.104476821192053	-1.92662251655629	-2.6646357615894	-0.904900662251656				0.880953642384106	-0.0482119205298013	0.525139072847682	-0.126092715231788	5.34781456953642	-0.86596026490066				0.965827814569536	-0.161271523178808	0.12005298013245	1.96741721854305	1.26649006622517	-1.60026490066225				0.816529801324503	-0.176529801324503	-0.517721854304636	1.36291390728477	-0.3764238410596	-0.895629139072848				0.932026490066225	0.0194966887417219	0.261933774834437	0.791788079470198	5.93192052980133	-2.29748344370861				0.767788079470199	-0.334834437086093	-0.484238410596026	7.30039735099338	-4.04238410596027	-1.59470198675497			
157	3140	0.951841059602649	0.0347549668874172	0.120476821192053	-0.246622516556291	-0.984635761589404	0.495099337748344				0.864953642384106	-0.0322119205298013	0.509139072847682	0.153907284768212	3.94781456953642	-1.42596026490066				0.965827814569536	-0.177271523178808	0.10405298013245	0.567417218543046	1.82649006622517	-1.32026490066225				0.800529801324503	-0.160529801324503	-0.533721854304636	-2.55708609271523	-2.3364238410596	-3.41562913907285				0.932026490066225	0.0354966887417219	0.261933774834437	-1.4482119205298	6.77192052980133	-4.25748344370861				0.767788079470199	-0.302834437086093	-0.468238410596026	5.62039735099338	-3.76238410596027	-2.15470198675497			
158	3160	0.967841059602649	0.0347549668874172	0.136476821192053	-0.246622516556291	2.6553642384106	-0.624900662251656				0.880953642384106	-0.0322119205298013	0.509139072847682	-8.80609271523179	6.46781456953642	-1.42596026490066				0.965827814569536	-0.177271523178808	0.0880529801324504	1.12741721854305	0.426490066225167	-1.04026490066225				0.784529801324503	-0.144529801324503	-0.517721854304636	-5.91708609271523	-0.9364238410596	-5.37562913907285				0.932026490066225	0.0354966887417219	0.229933774834437	-2.8482119205298	4.53192052980133	-3.69748344370861				0.767788079470199	-0.286834437086093	-0.468238410596026	0.0203973509933773	-0.682384105960265	-2.99470198675497			
159	3180	0.983841059602649	0.0507549668874172	0.152476821192053	-0.246622516556291	2.3753642384106	-0.624900662251656				0.880953642384106	-0.0482119205298013	0.557139072847682	-7.40609271523179	3.94781456953642	-1.14596026490066				0.981827814569536	-0.177271523178808	0.10405298013245	1.12741721854305	-0.413509933774833	-1.04026490066225				0.800529801324503	-0.144529801324503	-0.485721854304636	-7.31708609271523	-2.6164238410596	-5.65562913907285				0.948026490066225	0.0514966887417219	0.261933774834437	0.511788079470198	5.37192052980133	-2.57748344370861				0.799788079470199	-0.302834437086093	-0.452238410596026	-1.65960264900662	0.157615894039735	-1.87470198675497			
160	3200	0.999841059602649	0.0507549668874172	0.136476821192053	-1.36662251655629	-0.424635761589404	-0.904900662251656				0.880953642384106	-0.0162119205298013	0.525139072847682	-4.60609271523179	0.587814569536424	-0.585960264900661				0.997827814569536	-0.161271523178808	0.10405298013245	0.847417218543046	0.986490066225167	-0.20026490066225				0.816529801324503	-0.144529801324503	-0.485721854304636	-1.71708609271523	0.1835761589404	-3.13562913907285				0.964026490066225	0.0674966887417219	0.245933774834437	-2.5682119205298	3.97192052980133	-1.73748344370861				0.799788079470199	-0.286834437086093	-0.468238410596026	-0.819602649006623	2.67761589403974	-1.03470198675497			
161	3220	0.983841059602649	0.0667549668874172	0.120476821192053	-3.88662251655629	-3.2246357615894	-1.18490066225166				0.864953642384106	-0.0322119205298013	0.509139072847682	1.27390728476821	1.14781456953642	-0.86596026490066				0.965827814569536	-0.145271523178808	0.10405298013245	0.287417218543046	-0.693509933774834	-0.76026490066225				0.784529801324503	-0.160529801324503	-0.517721854304636	0.522913907284768	4.3835761589404	-1.45562913907285				0.932026490066225	0.0514966887417219	0.245933774834437	-1.1682119205298	3.97192052980133	-2.01748344370861				0.799788079470199	-0.254834437086093	-0.484238410596026	-0.259602649006623	3.23761589403974	-2.99470198675497			
162	3240	0.967841059602649	0.0507549668874172	0.088476821192053	-2.48662251655629	-3.2246357615894	-0.624900662251656				0.864953642384106	-0.0482119205298013	0.541139072847682	4.35390728476821	1.42781456953642	0.53403973509934				0.949827814569536	-0.161271523178808	0.0720529801324504	1.68741721854305	-1.53350993377483	-0.76026490066225				0.816529801324503	-0.128529801324503	-0.501721854304636	0.242913907284768	5.2235761589404	-2.01562913907285				0.932026490066225	0.0354966887417219	0.277933774834437	-0.328211920529802	5.09192052980133	-2.01748344370861				0.783788079470199	-0.270834437086093	-0.468238410596026	2.82039735099338	1.55761589403974	-3.55470198675497			
163	3260	0.951841059602649	0.0347549668874172	0.120476821192053	-0.806622516556291	-1.5446357615894	-0.0649006622516557				0.896953642384106	-0.0322119205298013	0.525139072847682	2.11390728476821	2.82781456953642	-0.0259602649006601				0.965827814569536	-0.145271523178808	0.0880529801324504	3.08741721854305	-0.693509933774834	-0.20026490066225				0.832529801324503	-0.112529801324503	-0.501721854304636	-1.43708609271523	2.4235761589404	-1.17562913907285				0.948026490066225	0.0514966887417219	0.261933774834437	-1.4482119205298	3.97192052980133	-1.73748344370861				0.783788079470199	-0.286834437086093	-0.484238410596026	3.94039735099338	2.95761589403974	-2.43470198675497			
164	3280	0.967841059602649	0.0347549668874172	0.152476821192053	-1.64662251655629	0.975364238410596	-0.904900662251656				0.880953642384106	-0.0322119205298013	0.525139072847682	-0.406092715231788	2.82781456953642	-0.0259602649006601				0.949827814569536	-0.161271523178808	0.0880529801324504	2.80741721854305	-0.133509933774833	-0.48026490066225				0.816529801324503	-0.144529801324503	-0.517721854304636	-5.35708609271523	1.8635761589404	-2.01562913907285				0.932026490066225	0.0514966887417219	0.277933774834437	-1.1682119205298	2.01192052980133	-1.17748344370861				0.799788079470199	-0.270834437086093	-0.468238410596026	1.70039735099338	2.39761589403974	-3.55470198675497			
165	3300	0.967841059602649	0.0507549668874172	0.152476821192053	-1.64662251655629	1.8153642384106	-0.624900662251656				0.864953642384106	-0.0482119205298013	0.541139072847682	-1.52609271523179	2.26781456953642	-0.30596026490066				0.965827814569536	-0.161271523178808	0.0880529801324504	1.68741721854305	0.146490066225167	-0.48026490066225				0.816529801324503	-0.144529801324503	-0.501721854304636	-1.99708609271523	1.5835761589404	-3.69562913907285				0.932026490066225	0.0514966887417219	0.261933774834437	0.511788079470198	4.25192052980133	-0.617483443708608				0.799788079470199	-0.286834437086093	-0.484238410596026	-1.37960264900662	2.11761589403974	-1.03470198675497			
166	3320	0.983841059602649	0.0667549668874172	0.120476821192053	-0.246622516556291	-1.8246357615894	-0.624900662251656				0.880953642384106	-0.0482119205298013	0.541139072847682	0.993907284768212	2.82781456953642	0.25403973509934				0.981827814569536	-0.161271523178808	0.0880529801324504	1.40741721854305	1.82649006622517	-0.76026490066225				0.800529801324503	-0.128529801324503	-0.485721854304636	1.36291390728477	1.5835761589404	-3.41562913907285				0.932026490066225	0.0354966887417219	0.277933774834437	0.231788079470198	6.49192052980132	-1.73748344370861				0.799788079470199	-0.302834437086093	-0.484238410596026	0.300397350993377	0.437615894039735	1.20529801324503			
167	3340	0.967841059602649	0.0507549668874172	0.104476821192053	-0.806622516556291	-3.7846357615894	-1.46490066225166				0.880953642384106	-0.0162119205298013	0.509139072847682	3.79390728476821	4.50781456953642	-0.585960264900661				0.981827814569536	-0.161271523178808	0.0880529801324504	3.08741721854305	0.706490066225167	-1.60026490066225				0.816529801324503	-0.144529801324503	-0.485721854304636	-0.597086092715232	2.4235761589404	-2.29562913907285				0.932026490066225	0.0514966887417219	0.261933774834437	-0.888211920529802	2.01192052980133	-0.617483443708608				0.799788079470199	-0.254834437086093	-0.484238410596026	4.78039735099338	-1.80238410596026	-1.87470198675497			
168	3360	0.967841059602649	0.0347549668874172	0.088476821192053	-0.246622516556291	-4.6246357615894	-0.344900662251656				0.864953642384106	-0.0162119205298013	0.509139072847682	3.51390728476821	4.50781456953642	0.25403973509934				0.965827814569536	-0.161271523178808	0.0880529801324504	4.20741721854305	-0.413509933774833	-1.60026490066225				0	0	0	0	0	0				0	0	0	0	0	0				0	0	0	0	0	0			
