No	Time	12-AccX	12-AccY	12-AccZ	12-GyroX	12-GyroY	12-GyroZ	13-AccX	13-AccY	13-AccZ	13-GyroX	13-GyroY	13-GyroZ	14-AccX	14-AccY	14-AccZ	14-GyroX	14-GyroY	14-GyroZ	15-AccX	15-AccY	15-AccZ	15-GyroX	15-GyroY	15-GyroZ	16-AccX	16-AccY	16-AccZ	16-GyroX	16-GyroY	16-GyroZ	17-AccX	17-AccY	17-AccZ	17-GyroX	17-GyroY	17-GyroZ
0	20	0	0	0	0	0	0				0.976953642384106	0.0317880794701987	0.125139072847682	-0.686092715231788	2.54781456953642	-0.0259602649006601				-0.106172185430464	-0.0652715231788079	-0.91994701986755	3.08741721854305	0.146490066225167	-0.48026490066225				0	0	0	0	0	0				0.948026490066225	0.0514966887417219	0.197933774834437	0.791788079470198	-1.06807947019868	0.222516556291392				0.639788079470199	-0.110834437086093	-0.708238410596026	0.860397350993377	-0.122384105960265	-1.87470198675497			
1	40	-0.184158940397351	0.130754966887417	-0.951523178807947	-0.246622516556291	0.135364238410596	-0.904900662251656				0.976953642384106	0.0317880794701987	0.125139072847682	-0.126092715231788	3.66781456953642	-0.30596026490066				-0.106172185430464	-0.0652715231788079	-0.90394701986755	3.08741721854305	-0.133509933774833	-0.76026490066225				0.688529801324503	-0.0965298013245033	-0.661721854304636	-1.15708609271523	-1.7764238410596	-0.0556291390728476				0.948026490066225	0.0514966887417219	0.181933774834437	0.511788079470198	-3.58807947019868	-0.0574834437086077				0.639788079470199	-0.110834437086093	-0.708238410596026	-0.539602649006623	0.157615894039735	-1.87470198675497			
2	60	-0.168158940397351	0.130754966887417	-0.951523178807947	-0.806622516556291	0.135364238410596	-1.18490066225166				0.976953642384106	0.0317880794701987	0.125139072847682	-0.406092715231788	4.50781456953642	0.81403973509934				-0.122172185430464	-0.0652715231788079	-0.90394701986755	0.847417218543046	-0.413509933774833	-0.20026490066225				0.672529801324503	-0.112529801324503	-0.677721854304636	-0.597086092715232	-1.7764238410596	0.224370860927152				0.932026490066225	0.0514966887417219	0.197933774834437	-0.608211920529802	-0.788079470198675	0.502516556291392				0.623788079470199	-0.110834437086093	-0.708238410596026	0.0203973509933773	-1.24238410596026	-0.754701986754968			
3	80	-0.184158940397351	0.130754966887417	-0.951523178807947	-0.246622516556291	0.135364238410596	-0.624900662251656				0.992953642384106	0.0317880794701987	0.141139072847682	-1.80609271523179	3.66781456953642	-0.0259602649006601				-0.106172185430464	-0.0492715231788079	-0.90394701986755	1.12741721854305	0.146490066225167	-0.48026490066225				0.672529801324503	-0.128529801324503	-0.677721854304636	0.802913907284768	-0.6564238410596	0.224370860927152				0.948026490066225	0.0514966887417219	0.181933774834437	-0.328211920529802	-0.788079470198675	-0.0574834437086077				0.639788079470199	-0.110834437086093	-0.708238410596026	0.0203973509933773	-0.962384105960265	-0.474701986754968			
4	100	-0.184158940397351	0.130754966887417	-0.951523178807947	-0.246622516556291	-0.424635761589404	-0.904900662251656				0.976953642384106	0.0317880794701987	0.141139072847682	-1.24609271523179	3.10781456953642	0.25403973509934				-0.106172185430464	-0.0652715231788079	-0.90394701986755	1.40741721854305	-0.413509933774833	-0.48026490066225				0.688529801324503	-0.112529801324503	-0.677721854304636	-1.15708609271523	-0.0964238410596001	-0.615629139072848				0.948026490066225	0.0354966887417219	0.197933774834437	1.6317880794702	0.331920529801325	-0.337483443708608				0.639788079470199	-0.110834437086093	-0.708238410596026	0.0203973509933773	-0.402384105960265	-0.194701986754968			
5	120	-0.184158940397351	0.130754966887417	-0.951523178807947	0.593377483443709	0.135364238410596	-2.02490066225166				0.976953642384106	0.0317880794701987	0.125139072847682	-0.686092715231788	2.54781456953642	0.25403973509934				-0.106172185430464	-0.0652715231788079	-0.90394701986755	2.52741721854305	-0.133509933774833	-0.20026490066225				0.688529801324503	-0.112529801324503	-0.661721854304636	-1.15708609271523	-0.0964238410596001	-0.335629139072848				0.948026490066225	0.0354966887417219	0.181933774834437	-0.608211920529802	-1.06807947019868	0.222516556291392				0.639788079470199	-0.126834437086093	-0.708238410596026	-0.259602649006623	0.997615894039735	-0.754701986754968			
6	140	-0.168158940397351	0.130754966887417	-0.951523178807947	-0.246622516556291	-0.144635761589404	-0.624900662251656				0.976953642384106	0.0317880794701987	0.125139072847682	-0.686092715231788	2.54781456953642	0.25403973509934				-0.106172185430464	-0.0492715231788079	-0.90394701986755	0.00741721854304636	-0.133509933774833	-0.20026490066225				0.672529801324503	-0.112529801324503	-0.677721854304636	0.522913907284768	1.3035761589404	-0.0556291390728476				0.964026490066225	0.0354966887417219	0.197933774834437	0.231788079470198	-1.06807947019868	0.782516556291392				0.639788079470199	-0.110834437086093	-0.708238410596026	0.0203973509933773	0.437615894039735	-0.474701986754968			
7	160	-0.184158940397351	0.130754966887417	-0.951523178807947	-0.806622516556291	-0.144635761589404	-1.18490066225166				0.976953642384106	0.0317880794701987	0.125139072847682	-1.24609271523179	3.10781456953642	0.53403973509934				-0.122172185430464	-0.0492715231788079	-0.90394701986755	0.287417218543046	0.426490066225167	-0.48026490066225				0.688529801324503	-0.112529801324503	-0.677721854304636	2.48291390728477	1.8635761589404	-0.615629139072848				0.964026490066225	0.0354966887417219	0.181933774834437	0.231788079470198	-2.46807947019868	-0.337483443708608				0.639788079470199	-0.110834437086093	-0.708238410596026	-0.819602649006623	0.437615894039735	-0.754701986754968			
8	180	-0.168158940397351	0.130754966887417	-0.951523178807947	-0.246622516556291	0.415364238410596	-1.46490066225166				0.976953642384106	0.0317880794701987	0.125139072847682	-2.08609271523179	3.94781456953642	0.81403973509934				-0.122172185430464	-0.0652715231788079	-0.91994701986755	0.567417218543046	0.706490066225167	0.0797350993377501				0.688529801324503	-0.112529801324503	-0.677721854304636	1.64291390728477	1.3035761589404	-0.335629139072848				0.948026490066225	0.0514966887417219	0.181933774834437	-0.608211920529802	-1.62807947019868	0.782516556291392				0.639788079470199	-0.110834437086093	-0.708238410596026	-0.539602649006623	0.997615894039735	-0.194701986754968			
9	200	-0.184158940397351	0.146754966887417	-0.935523178807947	0.593377483443709	0.135364238410596	-0.904900662251656				0.976953642384106	0.0317880794701987	0.141139072847682	-0.686092715231788	3.38781456953642	-0.0259602649006601				-0.122172185430464	-0.0652715231788079	-0.90394701986755	0.567417218543046	0.426490066225167	0.35973509933775				0.688529801324503	-0.112529801324503	-0.677721854304636	0.522913907284768	0.7435761589404	0.504370860927152				0.948026490066225	0.0354966887417219	0.181933774834437	0.231788079470198	-2.18807947019868	0.782516556291392				0.639788079470199	-0.110834437086093	-0.708238410596026	0.580397350993377	1.27761589403974	-0.754701986754968			
10	220	-0.184158940397351	0.130754966887417	-0.951523178807947	0.313377483443709	-0.144635761589404	-0.904900662251656				0.976953642384106	0.0317880794701987	0.125139072847682	-0.406092715231788	2.54781456953642	0.53403973509934				-0.122172185430464	-0.0652715231788079	-0.91994701986755	1.12741721854305	-0.133509933774833	-0.20026490066225				0.688529801324503	-0.112529801324503	-0.677721854304636	0.522913907284768	0.1835761589404	0.784370860927152				0.964026490066225	0.0354966887417219	0.181933774834437	0.511788079470198	-2.74807947019868	0.222516556291392				0.639788079470199	-0.110834437086093	-0.708238410596026	-0.539602649006623	0.717615894039735	-0.474701986754968			
11	240	-0.168158940397351	0.130754966887417	-0.951523178807947	0.313377483443709	-0.144635761589404	-1.18490066225166				0.976953642384106	0.0317880794701987	0.125139072847682	0.433907284768212	3.10781456953642	0.81403973509934				-0.122172185430464	-0.0492715231788079	-0.90394701986755	0.847417218543046	-0.413509933774833	-0.48026490066225				0.688529801324503	-0.112529801324503	-0.677721854304636	1.08291390728477	0.1835761589404	0.784370860927152				0.948026490066225	0.0514966887417219	0.181933774834437	-0.608211920529802	-2.46807947019868	0.502516556291392				0.639788079470199	-0.110834437086093	-0.708238410596026	-1.09960264900662	-0.122384105960265	-0.194701986754968			
12	260	-0.168158940397351	0.130754966887417	-0.951523178807947	0.313377483443709	0.135364238410596	-0.904900662251656				0.976953642384106	0.0317880794701987	0.141139072847682	0.153907284768212	3.66781456953642	0.81403973509934				-0.106172185430464	-0.0492715231788079	-0.90394701986755	0.00741721854304636	0.146490066225167	-0.48026490066225				0.688529801324503	-0.112529801324503	-0.677721854304636	0.522913907284768	0.1835761589404	0.784370860927152				0.948026490066225	0.0354966887417219	0.181933774834437	0.231788079470198	-1.90807947019868	0.502516556291392				0.639788079470199	-0.110834437086093	-0.708238410596026	-1.09960264900662	-0.402384105960265	-0.474701986754968			
13	280	-0.168158940397351	0.146754966887417	-0.951523178807947	1.15337748344371	-0.704635761589404	-1.18490066225166				0.976953642384106	0.0317880794701987	0.141139072847682	-1.52609271523179	3.94781456953642	0.53403973509934				-0.106172185430464	-0.0492715231788079	-0.90394701986755	0.00741721854304636	-0.413509933774833	0.35973509933775				0.688529801324503	-0.112529801324503	-0.677721854304636	1.36291390728477	0.7435761589404	0.504370860927152				0.948026490066225	0.0354966887417219	0.197933774834437	1.0717880794702	-1.62807947019868	0.782516556291392				0.639788079470199	-0.110834437086093	-0.708238410596026	0.580397350993377	0.437615894039735	-0.474701986754968			
14	300	-0.168158940397351	0.130754966887417	-0.951523178807947	0.593377483443709	0.415364238410596	-1.46490066225166				0.976953642384106	0.0317880794701987	0.141139072847682	-0.686092715231788	3.38781456953642	0.25403973509934				-0.122172185430464	-0.0492715231788079	-0.87194701986755	2.24741721854305	-0.413509933774833	-1.04026490066225				0.688529801324503	-0.112529801324503	-0.677721854304636	-0.0370860927152318	1.0235761589404	0.504370860927152				0.948026490066225	0.0354966887417219	0.181933774834437	-0.328211920529802	-0.228079470198675	0.782516556291392				0.639788079470199	-0.110834437086093	-0.708238410596026	0.860397350993377	0.437615894039735	-0.194701986754968			
15	320	-0.184158940397351	0.130754966887417	-0.951523178807947	0.0333774834437086	-0.424635761589404	-1.46490066225166				0.976953642384106	0.0477880794701987	0.141139072847682	0.713907284768212	1.98781456953642	0.25403973509934				-0.122172185430464	-0.0492715231788079	-0.90394701986755	4.76741721854305	-1.81350993377483	-0.48026490066225				0.688529801324503	-0.112529801324503	-0.693721854304636	-0.0370860927152318	0.4635761589404	0.784370860927152				0.964026490066225	0.0514966887417219	0.165933774834437	0.511788079470198	-0.228079470198675	0.222516556291392				0.639788079470199	-0.126834437086093	-0.724238410596026	0.580397350993377	-0.402384105960265	-0.194701986754968			
16	340	-0.168158940397351	0.130754966887417	-0.951523178807947	1.15337748344371	-0.144635761589404	-0.344900662251656				0.976953642384106	0.0317880794701987	0.125139072847682	1.83390728476821	1.14781456953642	0.25403973509934				-0.122172185430464	-0.0492715231788079	-0.90394701986755	6.72741721854305	-2.09350993377483	-0.76026490066225				0.688529801324503	-0.112529801324503	-0.693721854304636	0.522913907284768	-0.0964238410596001	1.06437086092715				0.948026490066225	0.0354966887417219	0.181933774834437	0.791788079470198	-1.06807947019868	0.782516556291392				0.639788079470199	-0.126834437086093	-0.708238410596026	-0.259602649006623	-1.24238410596026	0.645298013245032			
17	360	-0.184158940397351	0.130754966887417	-0.951523178807947	1.15337748344371	0.135364238410596	-1.18490066225166				0.976953642384106	0.0317880794701987	0.141139072847682	1.83390728476821	3.66781456953642	0.53403973509934				-0.122172185430464	-0.0652715231788079	-0.90394701986755	7.28741721854305	-0.973509933774833	-0.76026490066225				0.704529801324503	-0.128529801324503	-0.677721854304636	0.522913907284768	1.0235761589404	1.90437086092715				0.948026490066225	0.0514966887417219	0.197933774834437	3.0317880794702	-0.788079470198675	1.34251655629139				0.639788079470199	-0.126834437086093	-0.708238410596026	-1.09960264900662	-1.52238410596026	0.645298013245032			
18	380	-0.184158940397351	0.130754966887417	-0.951523178807947	0.313377483443709	0.135364238410596	-0.904900662251656				0.992953642384106	0.0317880794701987	0.157139072847682	2.11390728476821	2.26781456953642	0.53403973509934				-0.122172185430464	-0.0652715231788079	-0.90394701986755	5.60741721854305	-2.09350993377483	-0.76026490066225				0.704529801324503	-0.112529801324503	-0.693721854304636	0.522913907284768	1.8635761589404	2.18437086092715				0.964026490066225	0.0354966887417219	0.165933774834437	0.511788079470198	-2.74807947019868	0.222516556291392				0.623788079470199	-0.110834437086093	-0.724238410596026	0.0203973509933773	-1.24238410596026	0.645298013245032			
19	400	-0.184158940397351	0.130754966887417	-0.951523178807947	0.0333774834437086	0.695364238410596	-0.344900662251656				0.976953642384106	0.0317880794701987	0.157139072847682	2.39390728476821	0.307814569536424	0.81403973509934				-0.122172185430464	-0.0652715231788079	-0.90394701986755	5.60741721854305	-1.81350993377483	-1.04026490066225				0.688529801324503	-0.128529801324503	-0.677721854304636	1.08291390728477	1.5835761589404	2.46437086092715				0.948026490066225	0.0354966887417219	0.197933774834437	-2.5682119205298	0.891920529801325	-1.45748344370861				0.623788079470199	-0.110834437086093	-0.708238410596026	1.14039735099338	-1.52238410596026	2.32529801324503			
20	420	-0.184158940397351	0.130754966887417	-0.951523178807947	-1.64662251655629	0.415364238410596	-0.624900662251656				0.976953642384106	0.0317880794701987	0.141139072847682	-0.406092715231788	0.0278145695364242	0.81403973509934				-0.122172185430464	-0.0652715231788079	-0.90394701986755	5.88741721854305	-1.81350993377483	-1.04026490066225				0.688529801324503	-0.128529801324503	-0.693721854304636	1.64291390728477	0.1835761589404	2.18437086092715				0.948026490066225	0.0354966887417219	0.181933774834437	-1.1682119205298	-0.508079470198675	0.502516556291392				0.623788079470199	-0.110834437086093	-0.708238410596026	1.14039735099338	-1.52238410596026	1.48529801324503			
21	440	-0.184158940397351	0.130754966887417	-0.951523178807947	-3.04662251655629	0.975364238410596	0.215099337748344				0.992953642384106	0.0317880794701987	0.141139072847682	-0.686092715231788	0.0278145695364242	0.81403973509934				-0.106172185430464	-0.0652715231788079	-0.91994701986755	9.80741721854305	-3.21350993377483	-1.88026490066225				0.688529801324503	-0.144529801324503	-0.693721854304636	-0.597086092715232	-1.2164238410596	3.58437086092715				0.964026490066225	0.0354966887417219	0.165933774834437	0.791788079470198	0.611920529801325	-0.617483443708608				0.623788079470199	-0.126834437086093	-0.708238410596026	1.42039735099338	-2.64238410596027	1.76529801324503			
22	460	-0.168158940397351	0.146754966887417	-0.935523178807947	-1.36662251655629	0.975364238410596	0.215099337748344				0.976953642384106	0.0157880794701987	0.173139072847682	-0.126092715231788	0.587814569536424	0.25403973509934				-0.122172185430464	-0.0812715231788079	-0.90394701986755	9.52741721854305	-5.45350993377483	-1.32026490066225				0.704529801324503	-0.144529801324503	-0.693721854304636	-3.95708609271523	-2.3364238410596	3.86437086092715				0.948026490066225	0.0354966887417219	0.181933774834437	1.9117880794702	-0.788079470198675	-0.0574834437086077				0.639788079470199	-0.126834437086093	-0.708238410596026	-1.65960264900662	-1.24238410596026	1.76529801324503			
23	480	-0.168158940397351	0.146754966887417	-0.951523178807947	-0.246622516556291	0.695364238410596	-0.0649006622516557				0.976953642384106	0.0317880794701987	0.141139072847682	0.713907284768212	1.70781456953642	-0.0259602649006601				-0.122172185430464	-0.0812715231788079	-0.90394701986755	7.84741721854305	-4.05350993377483	-1.04026490066225				0.688529801324503	-0.144529801324503	-0.693721854304636	-6.19708609271523	-4.2964238410596	4.42437086092715				0.964026490066225	0.0354966887417219	0.165933774834437	0.231788079470198	0.611920529801325	0.222516556291392				0.639788079470199	-0.126834437086093	-0.708238410596026	-1.09960264900662	-2.64238410596027	2.60529801324503			
24	500	-0.184158940397351	0.162754966887417	-0.951523178807947	-2.76662251655629	0.975364238410596	-0.0649006622516557				0.976953642384106	0.0317880794701987	0.157139072847682	0.713907284768212	2.82781456953642	1.93403973509934				-0.122172185430464	-0.0812715231788079	-0.90394701986755	2.24741721854305	-2.09350993377483	-0.76026490066225				0.688529801324503	-0.144529801324503	-0.709721854304636	-5.35708609271523	-5.6964238410596	4.70437086092715				0.964026490066225	0.0354966887417219	0.181933774834437	-1.1682119205298	0.0519205298013249	-1.17748344370861				0.639788079470199	-0.126834437086093	-0.708238410596026	-1.37960264900662	-2.64238410596027	4.28529801324503			
25	520	-0.168158940397351	0.146754966887417	-0.951523178807947	-4.16662251655629	1.8153642384106	0.495099337748344				0.976953642384106	0.0317880794701987	0.173139072847682	0.713907284768212	4.78781456953642	1.09403973509934				-0.122172185430464	-0.0812715231788079	-0.88794701986755	-0.272582781456954	0.146490066225167	-0.20026490066225				0.688529801324503	-0.128529801324503	-0.693721854304636	-7.87708609271523	-6.5364238410596	5.26437086092715				0.948026490066225	0.0354966887417219	0.181933774834437	-0.888211920529802	0.331920529801325	-1.73748344370861				0.623788079470199	-0.126834437086093	-0.708238410596026	-2.21960264900662	-2.64238410596027	5.96529801324503			
26	540	-0.168158940397351	0.130754966887417	-0.951523178807947	-5.84662251655629	1.8153642384106	-0.344900662251656				0.976953642384106	0.0317880794701987	0.157139072847682	0.993907284768212	3.66781456953642	0.25403973509934				-0.122172185430464	-0.0812715231788079	-0.90394701986755	2.52741721854305	-2.09350993377483	-0.76026490066225				0.688529801324503	-0.128529801324503	-0.693721854304636	-8.71708609271523	-7.9364238410596	6.66437086092715				0.948026490066225	0.0354966887417219	0.197933774834437	-0.328211920529802	1.45192052980132	-0.897483443708608				0.623788079470199	-0.126834437086093	-0.708238410596026	-2.77960264900662	-3.20238410596026	7.92529801324503			
27	560	-0.184158940397351	0.130754966887417	-0.951523178807947	-9.20662251655629	2.3753642384106	-0.624900662251656				0.976953642384106	0.0317880794701987	0.141139072847682	2.67390728476821	1.42781456953642	-0.30596026490066				-0.122172185430464	-0.0652715231788079	-0.90394701986755	5.32741721854305	-0.693509933774834	-1.60026490066225				0.688529801324503	-0.128529801324503	-0.677721854304636	-11.5170860927152	-9.8964238410596	6.38437086092715				0.948026490066225	0.0354966887417219	0.181933774834437	1.0717880794702	1.73192052980133	-0.897483443708608				0.623788079470199	-0.142834437086093	-0.692238410596026	-3.05960264900662	-3.48238410596027	9.04529801324503			
28	580	-0.184158940397351	0.114754966887417	-0.935523178807947	-12.0066225165563	2.6553642384106	0.215099337748344				0.976953642384106	0.0157880794701987	0.125139072847682	2.67390728476821	-0.532185430463576	0.25403973509934				-0.138172185430464	-0.0652715231788079	-0.88794701986755	0.847417218543046	0.706490066225167	-1.04026490066225				0.688529801324503	-0.112529801324503	-0.693721854304636	-13.4770860927152	-10.1764238410596	6.66437086092715				0.964026490066225	0.0514966887417219	0.181933774834437	-0.0482119205298018	1.17192052980133	-0.617483443708608				0.623788079470199	-0.142834437086093	-0.692238410596026	-6.41960264900662	-2.08238410596027	8.76529801324503			
29	600	-0.184158940397351	0.146754966887417	-0.935523178807947	-14.5266225165563	3.2153642384106	0.215099337748344				0.992953642384106	0.0157880794701987	0.141139072847682	2.67390728476821	-0.252185430463576	0.81403973509934				-0.138172185430464	-0.0652715231788079	-0.88794701986755	-2.51258278145695	4.34649006622517	-0.48026490066225				0.688529801324503	-0.112529801324503	-0.677721854304636	-12.9170860927152	-10.1764238410596	7.50437086092715				0.964026490066225	0.0354966887417219	0.197933774834437	-0.608211920529802	0.891920529801325	-0.337483443708608				0.639788079470199	-0.142834437086093	-0.708238410596026	-10.0596026490066	-0.402384105960265	11.845298013245			
30	620	-0.184158940397351	0.114754966887417	-0.951523178807947	-14.8066225165563	2.9353642384106	0.215099337748344				0.992953642384106	0.0157880794701987	0.157139072847682	4.07390728476821	0.307814569536424	0.53403973509934				-0.122172185430464	-0.0812715231788079	-0.90394701986755	-4.19258278145695	5.18649006622517	-0.48026490066225				0.672529801324503	-0.112529801324503	-0.677721854304636	-8.71708609271523	-8.2164238410596	7.50437086092715				0.980026490066225	0.0354966887417219	0.181933774834437	-1.4482119205298	-0.508079470198675	-2.57748344370861				0.623788079470199	-0.142834437086093	-0.708238410596026	-11.4596026490066	-0.962384105960265	12.125298013245			
31	640	-0.184158940397351	0.162754966887417	-1.01552317880795	-19.2866225165563	2.0953642384106	0.775099337748344				0.976953642384106	0.0157880794701987	0.173139072847682	3.51390728476821	0.0278145695364242	0.25403973509934				-0.122172185430464	-0.0972715231788079	-0.90394701986755	-5.31258278145695	4.06649006622517	-0.76026490066225				0.672529801324503	-0.112529801324503	-0.677721854304636	-8.15708609271523	-8.7764238410596	7.78437086092715				0.948026490066225	0.0354966887417219	0.229933774834437	-1.7282119205298	-1.34807947019868	-0.897483443708608				0.639788079470199	-0.110834437086093	-0.724238410596026	-7.25960264900662	-2.08238410596027	10.165298013245			
32	660	-0.168158940397351	0.146754966887417	-0.935523178807947	-16.2066225165563	1.5353642384106	0.215099337748344				0.976953642384106	0.0157880794701987	0.157139072847682	1.27390728476821	-0.532185430463576	-0.86596026490066				-0.106172185430464	-0.0812715231788079	-0.90394701986755	-5.03258278145695	1.54649006622517	-1.88026490066225				0.672529801324503	-0.128529801324503	-0.693721854304636	-10.9570860927152	-11.0164238410596	7.22437086092715				0.932026490066225	0.0354966887417219	0.181933774834437	-0.608211920529802	-0.508079470198675	-0.0574834437086077				0.607788079470199	-0.126834437086093	-0.708238410596026	-10.6196026490066	0.717615894039735	9.32529801324503			
33	680	-0.168158940397351	0.146754966887417	-0.951523178807947	-13.1266225165563	0.415364238410596	0.215099337748344				0.976953642384106	0.0317880794701987	0.157139072847682	-0.686092715231788	-0.532185430463576	-1.14596026490066				-0.106172185430464	-0.0812715231788079	-0.88794701986755	-1.11258278145695	0.426490066225167	-2.16026490066225				0.672529801324503	-0.112529801324503	-0.709721854304636	-11.5170860927152	-13.5364238410596	5.54437086092715				0.948026490066225	0.0354966887417219	0.197933774834437	-0.888211920529802	-0.228079470198675	-1.73748344370861				0.623788079470199	-0.126834437086093	-0.724238410596026	-10.8996026490066	0.997615894039735	9.04529801324503			
34	700	-0.168158940397351	0.162754966887417	-0.935523178807947	-5.56662251655629	0.695364238410596	0.495099337748344				0.976953642384106	0.0157880794701987	0.157139072847682	-0.406092715231788	-0.252185430463576	-0.86596026490066				-0.106172185430464	-0.0812715231788079	-0.90394701986755	1.96741721854305	-0.413509933774833	-1.60026490066225				0.656529801324503	-0.112529801324503	-0.693721854304636	-13.7570860927152	-14.9364238410596	4.14437086092715				0.948026490066225	0.0354966887417219	0.197933774834437	-2.2882119205298	-1.06807947019868	-1.73748344370861				0.623788079470199	-0.126834437086093	-0.708238410596026	-9.49960264900662	1.83761589403974	9.32529801324503			
35	720	-0.184158940397351	0.162754966887417	-0.935523178807947	-1.64662251655629	0.695364238410596	1.61509933774834				0.992953642384106	0.0317880794701987	0.157139072847682	3.51390728476821	0.867814569536424	-1.42596026490066				-0.106172185430464	-0.0972715231788079	-0.90394701986755	0.847417218543046	-0.973509933774833	-1.88026490066225				0.656529801324503	-0.0965298013245033	-0.693721854304636	-13.1970860927152	-15.7764238410596	2.74437086092715				0.932026490066225	0.0354966887417219	0.181933774834437	-3.6882119205298	-0.508079470198675	-2.85748344370861				0.623788079470199	-0.126834437086093	-0.708238410596026	-11.1796026490066	-0.402384105960265	7.64529801324503			
36	740	-0.168158940397351	0.178754966887417	-0.919523178807947	-3.32662251655629	0.415364238410596	1.33509933774834				0.976953642384106	0.0477880794701987	0.157139072847682	3.51390728476821	0.867814569536424	-1.42596026490066				-0.106172185430464	-0.0812715231788079	-0.90394701986755	-1.67258278145695	0.146490066225167	-0.76026490066225				0.656529801324503	-0.0965298013245033	-0.709721854304636	-10.6770860927152	-15.2164238410596	2.74437086092715				0.932026490066225	0.0354966887417219	0.181933774834437	-2.8482119205298	0.0519205298013249	-3.41748344370861				0.607788079470199	-0.110834437086093	-0.724238410596026	-9.77960264900662	-1.80238410596026	6.80529801324503			
37	760	-0.168158940397351	0.178754966887417	-0.935523178807947	-2.48662251655629	0.415364238410596	1.33509933774834				0.960953642384106	0.0317880794701987	0.157139072847682	1.83390728476821	0.867814569536424	-1.14596026490066				-0.122172185430464	-0.0812715231788079	-0.91994701986755	-0.552582781456954	-0.413509933774833	0.63973509933775				0.656529801324503	-0.0965298013245033	-0.709721854304636	-9.83708609271523	-15.2164238410596	3.58437086092715				0.964026490066225	0.0514966887417219	0.181933774834437	-2.2882119205298	-0.228079470198675	-3.13748344370861				0.607788079470199	-0.0948344370860927	-0.708238410596026	-7.25960264900662	-0.682384105960265	5.12529801324503			
38	780	-0.168158940397351	0.194754966887417	-0.935523178807947	-1.92662251655629	0.695364238410596	0.495099337748344				0.976953642384106	0.0477880794701987	0.157139072847682	1.27390728476821	0.867814569536424	-1.70596026490066				-0.122172185430464	-0.0812715231788079	-0.90394701986755	5.60741721854305	-2.09350993377483	-0.48026490066225				0.672529801324503	-0.112529801324503	-0.709721854304636	-10.3970860927152	-16.3364238410596	4.14437086092715				0.948026490066225	0.0514966887417219	0.213933774834437	-1.4482119205298	0.891920529801325	-3.13748344370861				0.623788079470199	-0.126834437086093	-0.708238410596026	-5.01960264900662	-1.52238410596026	3.72529801324503			
39	800	-0.168158940397351	0.194754966887417	-0.919523178807947	-1.64662251655629	-0.424635761589404	-0.624900662251656				0.976953642384106	0.0477880794701987	0.173139072847682	0.713907284768212	-1.37218543046358	-1.14596026490066				-0.122172185430464	-0.0812715231788079	-0.90394701986755	9.24741721854305	-5.73350993377484	0.0797350993377501				0.672529801324503	-0.0965298013245033	-0.741721854304636	-12.6370860927152	-17.4564238410596	5.54437086092715				0.964026490066225	0.0514966887417219	0.197933774834437	-2.2882119205298	-1.06807947019868	-3.97748344370861				0.623788079470199	-0.126834437086093	-0.708238410596026	-5.57960264900662	-2.64238410596027	4.56529801324503			
40	820	-0.168158940397351	0.194754966887417	-0.935523178807947	-2.20662251655629	-0.144635761589404	-0.904900662251656				0.976953642384106	0.0477880794701987	0.141139072847682	0.993907284768212	-1.09218543046358	-1.42596026490066				-0.122172185430464	-0.0652715231788079	-0.88794701986755	7.00741721854305	-9.65350993377483	-0.20026490066225				0.672529801324503	-0.112529801324503	-0.741721854304636	-12.6370860927152	-17.7364238410596	5.82437086092715				0.964026490066225	0.0674966887417219	0.181933774834437	-1.7282119205298	-1.62807947019868	-4.25748344370861				0.639788079470199	-0.110834437086093	-0.740238410596026	-5.01960264900662	-4.88238410596027	5.96529801324503			
41	840	-0.168158940397351	0.194754966887417	-0.935523178807947	-1.08662251655629	0.695364238410596	-1.18490066225166				0.992953642384106	0.0477880794701987	0.157139072847682	3.51390728476821	0.587814569536424	-1.98596026490066				-0.138172185430464	-0.0812715231788079	-0.91994701986755	8.40741721854305	-9.09350993377483	-0.20026490066225				0.640529801324503	-0.0965298013245033	-0.741721854304636	-11.5170860927152	-18.0164238410596	8.06437086092715				0.964026490066225	0.0674966887417219	0.197933774834437	-1.7282119205298	-0.788079470198675	-3.41748344370861				0.623788079470199	-0.126834437086093	-0.740238410596026	-3.05960264900662	-5.44238410596027	4.28529801324503			
42	860	-0.184158940397351	0.194754966887417	-0.951523178807947	-1.08662251655629	0.135364238410596	-1.46490066225166				0.992953642384106	0.0477880794701987	0.141139072847682	5.47390728476821	-1.93218543046358	-2.54596026490066				-0.138172185430464	-0.0812715231788079	-0.91994701986755	9.80741721854305	-9.93350993377483	0.35973509933775				0.624529801324503	-0.0965298013245033	-0.741721854304636	-13.1970860927152	-18.8564238410596	8.06437086092715				0.964026490066225	0.0674966887417219	0.197933774834437	-0.0482119205298018	-1.34807947019868	-4.53748344370861				0.623788079470199	-0.126834437086093	-0.724238410596026	-3.89960264900662	-5.44238410596027	4.56529801324503			
43	880	-0.168158940397351	0.178754966887417	-0.935523178807947	-0.526622516556291	0.975364238410596	-1.74490066225166				0.992953642384106	0.0477880794701987	0.157139072847682	5.19390728476821	-1.37218543046358	-2.26596026490066				-0.138172185430464	-0.0812715231788079	-0.91994701986755	7.28741721854305	-11.8935099337748	1.47973509933775				0.640529801324503	-0.0805298013245033	-0.757721854304636	-15.4370860927152	-21.3764238410596	6.10437086092715				0.964026490066225	0.0514966887417219	0.181933774834437	-2.5682119205298	-1.62807947019868	-4.53748344370861				0.639788079470199	-0.126834437086093	-0.724238410596026	-4.17960264900662	-4.88238410596027	6.52529801324503			
44	900	-0.184158940397351	0.162754966887417	-0.935523178807947	0.0333774834437086	0.695364238410596	-1.18490066225166				0.992953642384106	0.0637880794701987	0.173139072847682	2.67390728476821	1.14781456953642	-2.82596026490066				-0.138172185430464	-0.0972715231788079	-0.90394701986755	8.40741721854305	-11.0535099337748	2.03973509933775				0.640529801324503	-0.0645298013245033	-0.741721854304636	-17.9570860927152	-22.7764238410596	5.26437086092715				0.980026490066225	0.0514966887417219	0.197933774834437	-1.7282119205298	-1.34807947019868	-3.69748344370861				0.623788079470199	-0.142834437086093	-0.692238410596026	-6.97960264900662	-4.04238410596027	8.20529801324503			
45	920	-0.168158940397351	0.162754966887417	-0.951523178807947	0.0333774834437086	0.415364238410596	-0.904900662251656				0.976953642384106	0.0317880794701987	0.173139072847682	0.993907284768212	-1.09218543046358	-1.70596026490066				-0.154172185430464	-0.0972715231788079	-0.90394701986755	0.567417218543046	-7.69350993377483	1.75973509933775				0.640529801324503	-0.0485298013245033	-0.773721854304636	-17.1170860927152	-21.3764238410596	4.98437086092715				0.964026490066225	0.0674966887417219	0.181933774834437	0.231788079470198	-2.74807947019868	-4.53748344370861				0.639788079470199	-0.126834437086093	-0.708238410596026	-9.21960264900662	-2.92238410596027	9.04529801324503			
46	940	-0.184158940397351	0.178754966887417	-0.967523178807947	0.593377483443709	1.2553642384106	-1.74490066225166				0	0	0	0	0	0				-0.138172185430464	-0.0972715231788079	-0.88794701986755	-0.272582781456954	-7.69350993377483	1.75973509933775				0.608529801324503	-0.0805298013245033	-0.773721854304636	-19.9170860927152	-18.5764238410596	3.58437086092715				0.964026490066225	0.0834966887417219	0.197933774834437	-1.1682119205298	0.331920529801325	-5.37748344370861				0.639788079470199	-0.126834437086093	-0.708238410596026	-9.49960264900662	-2.64238410596027	10.445298013245			
47	960	0	0	0	0	0	0				0	0	0	0	0	0				0	0	0	0	0	0				0	0	0	0	0	0				0.948026490066225	0.0674966887417219	0.165933774834437	-3.1282119205298	-3.30807947019868	-5.65748344370861				0.623788079470199	-0.126834437086093	-0.724238410596026	-12.5796026490066	-1.80238410596026	9.88529801324503			
48	980	0	0	0	0	0	0				0	0	0	0	0	0				0	0	0	0	0	0				0.576529801324503	-0.0485298013245033	-0.773721854304636	-26.3570860927152	-19.4164238410596	0.504370860927152				0.948026490066225	0.0514966887417219	0.165933774834437	-5.9282119205298	-3.30807947019868	-5.65748344370861				0.623788079470199	-0.126834437086093	-0.724238410596026	-10.3396026490066	-0.402384105960265	9.88529801324503			
49	1000	-0.184158940397351	0.162754966887417	-0.935523178807947	-1.36662251655629	1.2553642384106	-0.0649006622516557				0.976953642384106	0.0317880794701987	0.109139072847682	1.83390728476821	-9.77218543046358	-0.86596026490066				-0.170172185430464	-0.129271523178808	-0.93594701986755	8.96741721854305	-17.7735099337748	3.15973509933775				0.592529801324503	-0.0165298013245033	-0.757721854304636	-24.1170860927152	-24.7364238410596	1.62437086092715				0.948026490066225	0.0514966887417219	0.197933774834437	-7.6082119205298	-2.46807947019868	-4.81748344370861				0.623788079470199	-0.126834437086093	-0.740238410596026	-9.21960264900662	-2.36238410596027	12.125298013245			
50	1020	-0.168158940397351	0.162754966887417	-0.951523178807947	-1.08662251655629	0.695364238410596	0.215099337748344				0.976953642384106	0.0477880794701987	0.157139072847682	-1.80609271523179	-9.21218543046358	-0.86596026490066				-0.186172185430464	-0.113271523178808	-0.93594701986755	18.487417218543	-13.2935099337748	1.19973509933775				0.576529801324503	-0.0325298013245033	-0.805721854304636	-22.4370860927152	-26.4164238410596	3.86437086092715				0.964026490066225	0.0674966887417219	0.197933774834437	-5.3682119205298	-1.62807947019868	-3.69748344370861				0.623788079470199	-0.142834437086093	-0.740238410596026	-10.0596026490066	-2.08238410596027	14.645298013245			
51	1040	-0.152158940397351	0.178754966887417	-0.951523178807947	-1.36662251655629	0.975364238410596	1.05509933774834				1.00895364238411	0.0157880794701987	0.157139072847682	0.433907284768212	-15.0921854304636	-0.0259602649006601				-0.202172185430464	-0.209271523178808	-0.95194701986755	33.8874172185431	-18.8935099337748	-1.60026490066225				0.608529801324503	-0.0965298013245033	-0.821721854304636	-31.6770860927152	-22.7764238410596	-0.335629139072848				0.948026490066225	0.0514966887417219	0.181933774834437	-5.0882119205298	-1.90807947019868	-3.69748344370861				0.623788079470199	-0.142834437086093	-0.756238410596026	-15.3796026490066	0.157615894039735	17.165298013245			
52	1060	-0.184158940397351	0.178754966887417	-0.935523178807947	-2.20662251655629	0.975364238410596	0.215099337748344				1.07295364238411	0.0157880794701987	0.221139072847682	6.03390728476821	-40.2921854304636	-1.98596026490066				-0.202172185430464	-0.129271523178808	-0.96794701986755	52.6474172185431	-24.4935099337748	-10.0002649006623				0.624529801324503	-0.0485298013245033	-0.773721854304636	-34.4770860927152	-30.3364238410596	-4.53562913907285				0.964026490066225	0.0514966887417219	0.149933774834437	-7.3282119205298	-0.788079470198675	-3.41748344370861				0.623788079470199	-0.126834437086093	-0.772238410596026	-22.0996026490066	-5.72238410596027	18.285298013245			
53	1080	-0.184158940397351	0.194754966887417	-0.951523178807947	-1.92662251655629	1.5353642384106	0.215099337748344				0.976953642384106	0.0317880794701987	0.0931390728476822	15.8339072847682	-50.6521854304636	-2.82596026490066				-0.138172185430464	-0.129271523178808	-0.90394701986755	60.7674172185431	-28.4135099337748	-11.6802649006622				0.624529801324503	0.0314701986754967	-0.821721854304636	-33.0770860927152	-40.1364238410596	-3.69562913907285				0.964026490066225	0.0514966887417219	0.197933774834437	-5.6482119205298	1.17192052980133	-3.69748344370861				0.623788079470199	-0.0948344370860927	-0.788238410596027	-16.2196026490066	-10.4823841059603	16.045298013245			
54	1100	-0.168158940397351	0.178754966887417	-0.935523178807947	-1.64662251655629	3.2153642384106	0.215099337748344				0.944953642384106	0.0477880794701987	0.0291390728476822	15.2739072847682	-31.8921854304636	-0.0259602649006601				-0.106172185430464	-0.209271523178808	-0.87194701986755	66.367417218543	-35.4135099337748	-3.00026490066225				0.624529801324503	-0.0325298013245033	-0.869721854304636	-33.9170860927152	-47.9764238410596	-2.85562913907285				0.964026490066225	0.0834966887417219	0.197933774834437	-2.2882119205298	-1.06807947019868	-3.13748344370861				0.623788079470199	-0.0788344370860927	-0.836238410596026	-12.0196026490066	-12.7223841059603	14.645298013245			
55	1120	-0.152158940397351	0.178754966887417	-0.935523178807947	-2.76662251655629	2.3753642384106	0.215099337748344				0.992953642384106	0.0317880794701987	0.0451390728476822	4.07390728476821	-15.9321854304636	0.81403973509934				-0.122172185430464	-0.209271523178808	-0.69594701986755	52.3674172185431	-5.45350993377483	-25.1202649006623				0.592529801324503	-0.0965298013245033	-0.885721854304636	-42.5970860927152	-53.8564238410596	-7.05562913907285				0.980026490066225	0.0674966887417219	0.165933774834437	-1.7282119205298	-4.14807947019868	-1.17748344370861				0.623788079470199	-0.110834437086093	-0.836238410596026	2.26039735099338	-19.1623841059603	14.645298013245			
56	1140	-0.168158940397351	0.178754966887417	-0.951523178807947	-1.64662251655629	2.3753642384106	0.495099337748344				1.04095364238411	-0.0162119205298013	0.125139072847682	-2.92609271523179	-19.0121854304636	0.81403973509934				-0.202172185430464	-0.257271523178808	-0.83994701986755	-19.312582781457	-8.25350993377483	5.67973509933775				0.560529801324503	-0.0325298013245033	-0.853721854304636	-43.1570860927152	-57.7764238410596	-12.6556291390728				0.980026490066225	0.0514966887417219	0.165933774834437	-0.888211920529802	-0.228079470198675	-0.897483443708608				0.607788079470199	-0.142834437086093	-0.820238410596026	-5.57960264900662	-20.8423841059603	16.325298013245			
57	1160	-0.168158940397351	0.194754966887417	-0.967523178807947	-2.48662251655629	2.6553642384106	-0.0649006622516557				1.05695364238411	-0.0482119205298013	0.221139072847682	-11.8860927152318	-44.2121854304636	-7.02596026490066				-0.218172185430464	-0.193271523178808	-0.87194701986755	1.68741721854305	-5.45350993377483	9.31973509933775				0.528529801324503	0.0314701986754967	-0.869721854304636	-41.7570860927152	-60.2964238410596	-14.8956291390728				0.932026490066225	0.0354966887417219	0.181933774834437	3.3117880794702	2.57192052980133	-1.73748344370861				0.575788079470199	-0.142834437086093	-0.804238410596027	-15.3796026490066	-27.5623841059603	20.805298013245			
58	1180	-0.152158940397351	0.178754966887417	-0.967523178807947	-2.76662251655629	4.3353642384106	1.05509933774834				0.896953642384106	0.0317880794701987	-0.0188609271523178	-2.64609271523179	-31.0521854304636	-3.38596026490066				-0.202172185430464	-0.0812715231788079	-0.85594701986755	12.887417218543	-5.73350993377484	8.47973509933775				0.480529801324503	0.0154701986754967	-0.869721854304636	-43.7170860927152	-63.6564238410596	-13.4956291390728				0.884026490066225	0.0194966887417219	0.213933774834437	9.7517880794702	6.49192052980132	-1.45748344370861				0.543788079470199	-0.142834437086093	-0.804238410596027	-1.09960264900662	-39.6023841059603	21.645298013245			
59	1200	-0.136158940397351	0.178754966887417	-0.951523178807947	-3.04662251655629	6.0153642384106	1.61509933774834				0.960953642384106	0.0317880794701987	0.0291390728476822	-2.92609271523179	-21.5321854304636	-1.14596026490066				-0.218172185430464	-0.0972715231788079	-0.91994701986755	8.68741721854305	-2.37350993377483	6.23973509933775				0.448529801324503	0.0314701986754967	-0.853721854304636	-45.3970860927152	-72.0564238410596	-16.2956291390729				0.916026490066225	0.0194966887417219	0.197933774834437	4.7117880794702	10.6919205298013	-3.13748344370861				0.543788079470199	-0.174834437086093	-0.820238410596026	2.26039735099338	-38.2023841059603	26.125298013245			
60	1220	-0.104158940397351	0.146754966887417	-0.919523178807947	-4.44662251655629	4.6153642384106	2.17509933774834				0.928953642384106	0.0637880794701987	-0.114860927152318	-6.56609271523179	-15.6521854304636	-6.74596026490066				-0.202172185430464	-0.145271523178808	-0.90394701986755	1.12741721854305	-5.45350993377483	3.43973509933775				0.448529801324503	0.111470198675497	-0.901721854304636	-44.2770860927152	-78.4964238410596	-25.8156291390729				0.948026490066225	0.0514966887417219	0.165933774834437	2.4717880794702	9.85192052980133	-3.97748344370861				0.543788079470199	-0.174834437086093	-0.836238410596026	8.42039735099338	-32.0423841059603	29.765298013245			
61	1240	-0.104158940397351	0.194754966887417	-0.919523178807947	-4.72662251655629	0.415364238410596	2.45509933774835				0.928953642384106	0.127788079470199	-0.0508609271523178	-7.40609271523179	-8.93218543046358	-10.3859602649007				-0.154172185430464	-0.177271523178808	-0.90394701986755	-2.79258278145695	-7.69350993377483	-0.20026490066225				0.464529801324503	0.159470198675497	-0.965721854304636	-31.9570860927152	-76.5364238410596	-35.3356291390729				0.980026490066225	0.0834966887417219	0.165933774834437	2.7517880794702	6.49192052980132	-4.25748344370861				0.511788079470199	-0.190834437086093	-0.820238410596026	19.3403973509934	-45.4823841059603	32.565298013245			
62	1260	-0.152158940397351	0.194754966887417	-0.951523178807947	-4.44662251655629	-2.9446357615894	3.57509933774835				0.928953642384106	0.111788079470199	-0.0668609271523178	-1.80609271523179	-5.85218543046358	-5.90596026490066				-0.234172185430464	-0.193271523178808	-0.83994701986755	-9.79258278145695	-9.65350993377483	0.63973509933775				0.448529801324503	0.0794701986754967	-0.997721854304636	-27.4770860927152	-76.2564238410596	-42.8956291390729				0.980026490066225	0.131496688741722	0.117933774834437	5.2717880794702	-4.98807947019868	-5.09748344370861				0.543788079470199	-0.126834437086093	-0.884238410596026	16.5403973509934	-60.8823841059603	33.405298013245			
63	1280	-0.200158940397351	0.194754966887417	-0.951523178807947	-1.64662251655629	-2.1046357615894	3.01509933774834				0.960953642384106	0.0637880794701987	-0.00286092715231785	3.51390728476821	18.2278145695364	-2.26596026490066				-0.266172185430464	-0.161271523178808	-0.87194701986755	-8.95258278145695	-7.97350993377484	3.99973509933775				0.384529801324503	0.143470198675497	-0.981721854304636	-39.5170860927152	-92.4964238410596	-48.7756291390729				0.948026490066225	0.147496688741722	0.101933774834437	5.2717880794702	-7.50807947019868	-6.21748344370861				0.543788079470199	-0.142834437086093	-0.932238410596026	15.1403973509934	-63.9623841059603	43.485298013245			
64	1300	-0.216158940397351	0.210754966887417	-0.951523178807947	-2.20662251655629	2.3753642384106	3.29509933774834				1.08895364238411	0.0637880794701987	0.141139072847682	-0.406092715231788	17.3878145695364	1.37403973509934				-0.282172185430464	-0.209271523178808	-0.88794701986755	-5.31258278145695	-2.65350993377483	5.67973509933775				0.272529801324503	0.223470198675497	-0.965721854304636	-53.7970860927152	-112.65642384106	-55.4956291390729				0.948026490066225	0.131496688741722	0.101933774834437	4.4317880794702	6.49192052980132	-6.77748344370861				0.479788079470199	-0.142834437086093	-0.932238410596026	3.66039735099338	-78.5223841059603	46.845298013245			
65	1320	-0.200158940397351	0.226754966887417	-0.935523178807947	-3.32662251655629	3.4953642384106	3.85509933774834				1.10495364238411	0.175788079470199	-0.0348609271523178	-5.44609271523179	1.70781456953642	1.37403973509934				-0.266172185430464	-0.225271523178808	-0.91994701986755	-3.35258278145695	0.146490066225167	6.51973509933775				0.192529801324503	0.143470198675497	-1.01372185430464	-47.3570860927152	-119.93642384106	-61.0956291390729				1.02802649006623	0.131496688741722	0.117933774834437	3.5917880794702	19.6519205298013	-5.09748344370861				0.463788079470199	-0.0628344370860927	-0.980238410596026	-13.6996026490066	-77.1223841059603	50.205298013245			
66	1340	-0.216158940397351	0.242754966887417	-0.951523178807947	-5.56662251655629	5.4553642384106	4.13509933774834				1.05695364238411	0.0957880794701987	-0.130860927152318	-5.72609271523179	1.42781456953642	8.65403973509934				-0.298172185430464	-0.209271523178808	-0.87194701986755	0.847417218543046	0.986490066225167	5.39973509933775				0.160529801324503	0.0634701986754967	-1.09372185430464	-44.2770860927152	-116.57642384106	-56.6156291390729				1.07602649006623	0.147496688741722	0.101933774834437	5.5517880794702	24.6919205298013	-4.25748344370861				0.415788079470199	-0.0468344370860927	-1.09223841059603	8.70039735099338	-75.7223841059603	48.245298013245			
67	1360	-0.184158940397351	0.226754966887417	-0.967523178807947	-6.40662251655629	7.1353642384106	3.29509933774834				0.960953642384106	-0.0322119205298013	-0.0348609271523178	-14.6860927152318	11.7878145695364	11.4540397350993				-0.266172185430464	-0.113271523178808	-0.87194701986755	0.567417218543046	2.38649006622517	4.27973509933775				0.128529801324503	0.111470198675497	-1.07772185430464	-47.0770860927152	-107.05642384106	-43.7356291390728				1.07602649006623	0.0834966887417219	0.133933774834437	11.9917880794702	23.5719205298013	-4.25748344370861				0.431788079470199	-0.0948344370860927	-1.09223841059603	35.0203973509934	-82.4423841059603	41.525298013245			
68	1380	-0.120158940397351	0.242754966887417	-1.01552317880795	-19.2866225165563	11.0553642384106	4.41509933774834				1.05695364238411	0.0797880794701987	-0.0508609271523178	-22.8060927152318	21.5878145695364	10.0540397350993				-0.282172185430464	-0.0972715231788079	-0.93594701986755	2.80741721854305	-1.53350993377483	4.27973509933775				0.0965298013245033	0.287470198675497	-1.01372185430464	-36.7170860927152	-106.49642384106	-40.3756291390728				1.10802649006623	0.0354966887417219	0.0859337748344371	5.8317880794702	12.0919205298013	-3.13748344370861				0.447788079470199	-0.174834437086093	-1.06023841059603	35.5803973509934	-104.00238410596	42.085298013245			
69	1400	-0.152158940397351	0.354754966887417	-1.11152317880795	-34.4066225165563	-1.8246357615894	6.65509933774834				1.12095364238411	0.143788079470199	-0.226860927152318	2.67390728476821	24.1078145695364	8.65403973509934				-0.330172185430464	-0.145271523178808	-0.96794701986755	6.16741721854305	-8.81350993377484	1.47973509933775				-0.0154701986754967	0.351470198675497	-1.12572185430464	-38.3970860927152	-108.45642384106	-51.8556291390729				1.17202649006623	0.147496688741722	0.0379337748344371	1.0717880794702	0.331920529801325	0.782516556291392				0.303788079470199	-0.318834437086093	-1.04423841059603	32.2203973509934	-120.80238410596	63.925298013245			
70	1420	-0.264158940397351	0.434754966887417	-1.23952317880795	-44.7666225165563	8.8153642384106	5.53509933774834				0.896953642384106	-0.0162119205298013	-0.114860927152318	-15.5260927152318	36.9878145695364	9.21403973509934				-0.394172185430464	-0.225271523178808	-1.04794701986755	13.447417218543	1.82649006622517	-4.68026490066225				-0.111470198675497	0.303470198675497	-1.14172185430464	-25.5170860927152	-101.17642384106	-57.4556291390729				1.15602649006623	0.179496688741722	0.0699337748344371	11.1517880794702	-3.02807947019868	3.86251655629139				0.159788079470199	-0.398834437086093	-1.09223841059603	3.66039735099338	-98.9623841059603	89.125298013245			
71	1440	-0.248158940397351	0.194754966887417	-0.759523178807947	-42.2466225165563	42.6953642384106	2.73509933774834				0.960953642384106	0.0637880794701987	-0.0188609271523178	-23.9260927152318	72.8278145695364	6.13403973509934				-0.426172185430464	-0.145271523178808	-1.17594701986755	39.7674172185431	28.4264900662252	-9.72026490066225				-0.0474701986754967	0.319470198675497	-1.07772185430464	-41.4770860927152	-99.4964238410596	-60.5356291390729				1.18802649006623	0.131496688741722	0.117933774834437	10.5917880794702	-4.14807947019868	7.22251655629139				0.159788079470199	-0.270834437086093	-1.10823841059603	-17.3396026490066	-84.4023841059603	101.445298013245			
72	1460	-0.344158940397351	0.354754966887417	-0.871523178807947	-3.60662251655629	34.5753642384106	2.45509933774835				1.44095364238411	0.207788079470199	0.173139072847682	-7.40609271523179	104.747814569536	3.89403973509934				-0.362172185430464	-0.0652715231788079	-0.96794701986755	12.607417218543	30.3864900662252	-10.5602649006623				-0.0314701986754967	0.367470198675497	-1.14172185430464	-47.6370860927152	-98.0964238410596	-67.5356291390729				1.34802649006623	0.179496688741722	0.133933774834437	7.5117880794702	-14.7880794701987	12.8225165562914				0.0797880794701987	-0.270834437086093	-1.06023841059603	-2.49960264900662	-81.0423841059603	103.685298013245			
73	1480	-0.472158940397351	0.162754966887417	-1.19152317880795	-6.68662251655629	41.0153642384106	9.73509933774834				1.56895364238411	0.111788079470199	0.0771390728476822	-3.48609271523179	67.5078145695364	7.53403973509934				-0.538172185430464	-0.321271523178808	-1.06394701986755	-15.112582781457	34.3064900662252	-12.2402649006623				-0.143470198675497	0.319470198675497	-1.20572185430464	-33.0770860927152	-89.6964238410596	-59.6956291390729				1.39602649006623	0.179496688741722	0.277933774834437	19.2717880794702	-6.66807947019868	12.5425165562914				0.191788079470199	-0.302834437086093	-1.09223841059603	13.7403973509934	-65.9223841059603	95.005298013245			
74	1500	-0.264158940397351	0.178754966887417	-1.20752317880795	-2.48662251655629	55.5753642384106	16.4550993377483				1.58495364238411	0.0797880794701987	0.301139072847682	-13.5660927152318	72.5478145695364	8.09403973509934				-0.538172185430464	-0.113271523178808	-1.07994701986755	-13.432582781457	52.5064900662252	-15.0402649006623				-0.127470198675497	0.527470198675497	-1.07772185430464	-26.6370860927152	-55.5364238410596	-38.6956291390729				1.44402649006623	0.0994966887417219	0.453933774834437	22.0717880794702	4.53192052980133	5.54251655629139				0.303788079470199	-0.414834437086093	-1.10823841059603	8.14039735099338	-37.6423841059603	90.8052980132451			
75	1520	-0.168158940397351	0.322754966887417	-1.11152317880795	-0.526622516556291	70.1353642384106	21.7750993377483				1.69695364238411	0.0957880794701987	0.605139072847682	-4.60609271523179	61.0678145695364	1.09403973509934				-0.346172185430464	-0.177271523178808	-1.03194701986755	9.24741721854305	70.7064900662252	-15.8802649006623				-0.127470198675497	0.559470198675497	-1.07772185430464	7.80291390728477	-2.3364238410596	-8.73562913907285				1.49202649006623	0.0834966887417219	0.581933774834437	27.6717880794702	4.25192052980133	-0.897483443708608				0.287788079470199	-0.542834437086093	-0.996238410596026	3.94039735099338	1.55761589403974	82.125298013245			
76	1540	-0.072158940397351	0.274754966887417	-1.11152317880795	17.3933774834437	80.7753642384106	25.4150993377483				1.64895364238411	0.0797880794701987	0.509139072847682	3.51390728476821	19.0678145695364	-8.70596026490066				-0.362172185430464	-0.545271523178808	-1.19194701986755	66.927417218543	47.4664900662252	-25.9602649006623				-0.271470198675497	0.415470198675497	-1.14172185430464	37.7629139072848	48.6235761589404	28.7843708609272				1.25202649006623	0.259496688741722	0.565933774834437	15.3517880794702	-9.18807947019868	2.46251655629139				0.319788079470199	-0.542834437086093	-0.964238410596026	-25.7396026490066	37.3976158940397	81.005298013245			
77	1560	0.071841059602649	0.322754966887417	-1.12752317880795	28.3133774834437	91.1353642384106	22.6150993377483				1.40895364238411	-0.0322119205298013	0.285139072847682	21.7139072847682	-11.7321854304636	-4.78596026490066				-0.0261721854304636	-0.401271523178808	-1.06394701986755	15.687417218543	99.8264900662252	-22.3202649006623				-0.127470198675497	0.511470198675497	-1.04572185430464	57.3629139072848	65.7035761589404	49.5043708609272				1.23602649006623	0.131496688741722	0.389933774834437	5.5517880794702	2.01192052980133	7.78251655629139				0.335788079470199	-0.542834437086093	-0.804238410596027	-56.8196026490066	66.7976158940397	74.565298013245			
78	1580	0.199841059602649	0.498754966887417	-1.09552317880795	49.8733774834437	102.615364238411	13.6550993377483				1.21695364238411	0.0637880794701987	0.173139072847682	26.1939072847682	-1.93218543046358	3.05403973509934				-0.0741721854304636	-0.449271523178808	-1.03194701986755	-1.67258278145695	100.106490066225	-24.5602649006623				-0.0154701986754967	0.543470198675497	-1.12572185430464	66.0429139072848	58.4235761589404	53.9843708609272				1.26802649006623	0.0354966887417219	0.437933774834437	-6.2082119205298	1.73192052980133	3.30251655629139				0.367788079470199	-0.382834437086093	-0.868238410596026	-70.5396026490066	104.59761589404	72.045298013245			
79	1600	0.247841059602649	0.162754966887417	-1.12752317880795	56.3133774834437	111.575364238411	3.01509933774834				1.28095364238411	-0.0642119205298013	0.589139072847682	-6.28609271523179	12.0678145695364	12.2940397350993				-0.0101721854304636	-0.113271523178808	-1.03194701986755	6.72741721854305	106.266490066225	-24.2802649006623				0.0965298013245033	0.367470198675497	-1.26972185430464	62.4029139072848	67.3835761589404	73.0243708609272				1.25202649006623	0.195496688741722	0.485933774834437	-12.0882119205298	-6.38807947019868	-3.13748344370861				0.431788079470199	-0.270834437086093	-0.932238410596026	-48.6996026490066	109.91761589404	52.445298013245			
80	1620	0.151841059602649	0.0827549668874172	-1.11152317880795	43.4333774834437	115.775364238411	1.61509933774834				1.36095364238411	-0.0802119205298013	0.429139072847682	-20.0060927152318	-17.8921854304636	14.2540397350993				0.133827814569536	-0.337271523178808	-0.98394701986755	25.2074172185431	112.426490066225	-22.8802649006623				0.144529801324503	0.223470198675497	-1.22172185430464	48.4029139072848	78.3035761589404	85.9043708609272				1.23602649006623	0.179496688741722	0.373933774834437	-11.5282119205298	-24.5880794701987	1.34251655629139				0.431788079470199	-0.318834437086093	-0.980238410596026	-5.85960264900662	120.83761589404	32.845298013245			
81	1640	0.199841059602649	0.0667549668874172	-1.06352317880795	24.6733774834437	123.055364238411	1.05509933774834				1.31295364238411	-0.0482119205298013	0.365139072847682	-21.6860927152318	-17.6121854304636	12.0140397350993				0.181827814569536	-0.497271523178808	-0.95194701986755	15.967417218543	125.586490066225	-22.6002649006623				0.128529801324503	0.255470198675497	-1.04572185430464	38.6029139072848	85.8635761589404	84.7843708609272				1.14002649006623	0.115496688741722	0.245933774834437	-11.5282119205298	-12.8280794701987	6.94251655629139				0.367788079470199	-0.350834437086093	-1.06023841059603	14.0203973509934	127.27761589404	28.645298013245			
82	1660	0.311841059602649	0.114754966887417	-1.03152317880795	10.6733774834437	132.855364238411	3.29509933774834				1.21695364238411	0.0317880794701987	0.445139072847682	-16.0860927152318	-30.2121854304636	10.6140397350993				0.245827814569536	-0.289271523178808	-0.95194701986755	-1.67258278145695	142.106490066225	-18.1202649006623				0.112529801324503	0.287470198675497	-0.949721854304636	42.8029139072848	91.4635761589404	81.1443708609272				1.10802649006623	0.0194966887417219	0.261933774834437	0.511788079470198	2.01192052980133	9.46251655629139				0.319788079470199	-0.414834437086093	-0.932238410596026	24.9403973509934	135.39761589404	32.565298013245			
83	1680	0.311841059602649	0.178754966887417	-0.999523178807947	16.5533774834437	142.935364238411	5.81509933774834				1.13695364238411	0.0157880794701987	0.189139072847682	-1.52609271523179	-37.7721854304636	14.5340397350993				0.309827814569536	-0.321271523178808	-0.87194701986755	-17.912582781457	144.906490066225	-12.5202649006623				0.128529801324503	0.271470198675497	-0.885721854304636	59.3229139072848	100.42357615894	80.8643708609272				1.06002649006623	-0.0605033112582781	0.325933774834437	-7.0482119205298	8.17192052980133	6.10251655629139				0.383788079470199	-0.494834437086093	-0.836238410596026	12.6203973509934	148.55761589404	38.445298013245			
84	1700	0.407841059602649	0.178754966887417	-0.919523178807947	38.1133774834437	149.375364238411	7.21509933774835				1.08895364238411	0.0317880794701987	0.0931390728476822	-7.96609271523179	-30.7721854304636	11.1740397350993				0.309827814569536	-0.225271523178808	-0.77594701986755	-10.632582781457	149.946490066225	-8.32026490066225				0.192529801324503	0.111470198675497	-0.885721854304636	69.9629139072848	123.94357615894	85.3443708609272				1.06002649006623	-0.0125033112582781	0.341933774834437	-16.2882119205298	-10.5880794701987	0.222516556291392				0.479788079470199	-0.430834437086093	-0.820238410596026	-12.5796026490066	156.67761589404	34.525298013245			
85	1720	0.471841059602649	0.0827549668874172	-0.823523178807947	39.7933774834437	151.615364238411	4.13509933774834				1.02495364238411	-0.0962119205298013	0.109139072847682	-1.52609271523179	-31.8921854304636	12.5740397350993				0.437827814569536	-0.257271523178808	-0.74394701986755	-1.95258278145695	149.386490066225	-10.0002649006623				0.288529801324503	0.0474701986754967	-0.885721854304636	71.3629139072848	139.62357615894	79.4643708609272				1.02802649006623	0.0354966887417219	0.245933774834437	-32.5282119205298	-21.7880794701987	1.06251655629139				0.511788079470199	-0.254834437086093	-0.820238410596026	-9.77960264900662	158.63761589404	16.325298013245			
86	1740	0.503841059602649	-0.0132450331125828	-0.775523178807947	21.8733774834437	150.215364238411	1.89509933774834				1.00895364238411	-0.112211920529801	0.173139072847682	-2.92609271523179	-44.4921854304636	7.81403973509934				0.501827814569536	-0.225271523178808	-0.74394701986755	0.567417218543046	145.466490066225	-11.1202649006623				0.384529801324503	0.111470198675497	-0.869721854304636	77.5229139072848	144.38357615894	60.4243708609272				0.948026490066225	0.0674966887417219	0.117933774834437	-35.6082119205298	-30.1880794701987	6.10251655629139				0.559788079470199	-0.142834437086093	-0.756238410596026	7.58039735099338	160.87761589404	7.64529801324503			
87	1760	0.487841059602649	-0.0452450331125828	-0.743523178807947	6.47337748344371	147.975364238411	0.215099337748344				0.896953642384106	0.0797880794701987	0.0451390728476822	-3.20609271523179	-62.6921854304636	4.17403973509934				0.485827814569536	-0.257271523178808	-0.72794701986755	-16.512582781457	143.506490066225	-10.2802649006622				0.464529801324503	0.0954701986754967	-0.773721854304636	85.3629139072848	139.90357615894	39.4243708609272				0.916026490066225	0.0514966887417219	0.0379337748344371	-17.9682119205298	-32.7080794701987	10.3025165562914				0.463788079470199	-0.206834437086093	-0.692238410596026	43.4203973509934	154.71761589404	9.88529801324503			
88	1780	0.519841059602649	0.0187549668874172	-0.695523178807947	-6.12662251655629	139.295364238411	-2.30490066225166				0.800953642384106	-0.000211920529801304	-0.0828609271523179	10.5139072847682	-52.3321854304636	11.1740397350993				0.421827814569536	-0.241271523178808	-0.69594701986755	-33.312582781457	142.106490066225	-10.2802649006622				0.384529801324503	0.0314701986754967	-0.757721854304636	81.1629139072848	126.74357615894	23.7443708609272				0.868026490066225	0.0354966887417219	0.0219337748344371	-14.0482119205298	-24.8680794701987	6.94251655629139				0.463788079470199	-0.222834437086093	-0.692238410596026	42.5803973509934	138.47761589404	4.56529801324503			
89	1800	0.535841059602649	0.114754966887417	-0.663523178807947	-7.24662251655629	128.375364238411	-4.82490066225166				0.784953642384106	-0.0962119205298013	0.0451390728476822	7.71390728476821	-41.9721854304636	16.4940397350993				0.341827814569536	-0.145271523178808	-0.71194701986755	-40.032582781457	153.866490066225	-14.2002649006623				0.352529801324503	-0.0165298013245033	-0.741721854304636	56.8029139072848	117.78357615894	12.8243708609272				0.804026490066225	0.0194966887417219	0.133933774834437	-10.6882119205298	-29.0680794701987	4.42251655629139				0.495788079470199	-0.270834437086093	-0.676238410596026	18.2203973509934	120.55761589404	-7.75470198675497			
90	1820	0.471841059602649	0.162754966887417	-0.679523178807947	12.9133774834437	118.575364238411	-3.14490066225166				0.672953642384106	-0.000211920529801304	-0.0348609271523178	-6.28609271523179	-56.5321854304636	6.13403973509934				0.437827814569536	-0.0332715231788079	-0.53594701986755	-56.552582781457	155.826490066225	-11.9602649006623				0.320529801324503	-0.0645298013245033	-0.693721854304636	43.9229139072848	115.26357615894	3.30437086092715				0.676026490066225	0.00349668874172187	0.0859337748344371	-7.8882119205298	-40.2680794701987	10.8625165562914				0.511788079470199	-0.270834437086093	-0.612238410596026	-10.6196026490066	116.35761589404	-10.834701986755			
91	1840	0.455841059602649	0.0987549668874172	-0.583523178807947	23.8333774834437	122.775364238411	0.495099337748344				0.608953642384106	0.0797880794701987	-0.0508609271523178	-3.20609271523179	-42.8121854304636	-1.98596026490066				0.469827814569536	0.0467284768211921	-0.53594701986755	-58.792582781457	149.386490066225	-6.36026490066225				0.256529801324503	-0.0645298013245033	-0.581721854304636	48.4029139072848	105.18357615894	-9.57562913907285				0.596026490066225	0.0354966887417219	0.0539337748344371	-31.1282119205298	-53.7080794701987	8.34251655629139				0.495788079470199	-0.174834437086093	-0.532238410596027	-3.33960264900662	110.47761589404	-9.71470198675497			
92	1860	0.439841059602649	0.0347549668874172	-0.615523178807947	31.1133774834437	127.255364238411	4.69509933774834				0.656953642384106	0.0157880794701987	0.0771390728476822	7.43390728476821	-34.9721854304636	3.05403973509934				0.741827814569536	0.0307284768211921	-0.50394701986755	-45.912582781457	155.266490066225	-7.20026490066225				0.240529801324503	-0.000529801324503289	-0.549721854304636	47.0029139072848	95.1035761589404	-19.3756291390728				0.548026490066225	0.0194966887417219	-0.0900662251655629	-11.8082119205298	-45.3080794701987	8.06251655629139				0.447788079470199	-0.142834437086093	-0.516238410596026	-3.89960264900662	104.31761589404	-2.43470198675497			
93	1880	0.471841059602649	-0.0452450331125828	-0.535523178807947	18.5133774834437	130.615364238411	8.05509933774835				0.624953642384106	0.0317880794701987	-0.0668609271523178	-0.406092715231788	-57.0921854304636	-1.42596026490066				0.581827814569536	0.0307284768211921	-0.45594701986755	-34.432582781457	146.026490066225	-12.8002649006623				0.288529801324503	-0.0165298013245033	-0.565721854304636	48.4029139072848	90.0635761589404	-21.6156291390729				0.580026490066225	0.0194966887417219	-0.0100662251655629	-9.5682119205298	-18.1480794701987	3.58251655629139				0.495788079470199	-0.126834437086093	-0.500238410596026	1.98039735099338	88.0776158940397	-4.67470198675497			
94	1900	0.519841059602649	0.0507549668874172	-0.567523178807947	-5.28662251655629	132.575364238411	15.8950993377483				0.608953642384106	0.0477880794701987	-0.226860927152318	-7.68609271523179	-47.0121854304636	-2.82596026490066				0.565827814569536	0.0787284768211921	-0.48794701986755	-32.192582781457	136.506490066225	-14.7602649006622				0.352529801324503	-0.0805298013245033	-0.549721854304636	55.4029139072848	90.3435761589404	-16.0156291390729				0.596026490066225	0.0354966887417219	0.0379337748344371	-6.2082119205298	-24.5880794701987	4.70251655629139				0.479788079470199	-0.0468344370860927	-0.484238410596026	7.02039735099338	57.2776158940397	-8.87470198675497			
95	1920	0.551841059602649	0.0827549668874172	-0.535523178807947	-26.0066225165563	139.295364238411	17.8550993377483				0.656953642384106	0.0157880794701987	0.0131390728476822	-8.24609271523179	-26.2921854304636	-1.70596026490066				0.533827814569536	0.110728476821192	-0.55194701986755	-36.112582781457	143.226490066225	-14.4802649006623				0.496529801324503	-0.0965298013245033	-0.549721854304636	49.5229139072848	81.6635761589404	-17.6956291390729				0.596026490066225	0.0514966887417219	0.0539337748344371	-14.0482119205298	-32.9880794701987	2.46251655629139				0.511788079470199	-0.0948344370860927	-0.404238410596026	5.62039735099338	42.1576158940397	-24.834701986755			
96	1940	0.583841059602649	0.0667549668874172	-0.471523178807947	-8.64662251655629	135.935364238411	18.4150993377483				0.624953642384106	-0.0482119205298013	0.141139072847682	-11.0460927152318	-42.8121854304636	0.53403973509934				0.565827814569536	-0.0172715231788079	-0.43994701986755	-45.632582781457	139.026490066225	-16.4402649006623				0.576529801324503	-0.0805298013245033	-0.597721854304636	36.9229139072848	66.5435761589404	-20.7756291390729				0.644026490066225	0.0674966887417219	0.0219337748344371	-16.0082119205298	-42.7880794701987	3.02251655629139				0.575788079470199	-0.222834437086093	-0.468238410596026	-0.539602649006623	41.5976158940397	-24.274701986755			
97	1960	0.679841059602649	0.226754966887417	-0.295523178807947	19.0733774834437	138.735364238411	15.3350993377483				0	0	0	0	0	0				0.629827814569536	0.0307284768211921	-0.29594701986755	-48.432582781457	141.266490066225	-10.2802649006622				0	0	0	0	0	0				0	0	0	0	0	0				0	0	0	0	0	0			
98	1980	0.647841059602649	0.194754966887417	-0.423523178807947	16.2733774834437	134.255364238411	8.89509933774834				0.608953642384106	0.111788079470199	-0.178860927152318	-18.6060927152318	-37.4921854304636	-5.62596026490066				0.773827814569536	-0.00127152317880793	-0.37594701986755	-42.552582781457	133.146490066225	-5.80026490066225				0	0	0	0	0	0				0	0	0	0	0	0				0	0	0	0	0	0			
99	2000	0.743841059602649	0.290754966887417	-0.295523178807947	0.313377483443709	125.015364238411	5.25509933774834				0.576953642384106	0.0317880794701987	-0.0508609271523178	-8.80609271523179	-39.7321854304636	-5.62596026490066				0.613827814569536	-0.00127152317880793	-0.42394701986755	-43.672582781457	114.946490066225	-12.8002649006623				0	0	0	0	0	0				0.628026490066225	0.0194966887417219	0.00593377483443711	-16.0082119205298	-47.5480794701987	3.02251655629139				0.511788079470199	-0.174834437086093	-0.388238410596026	-12.8596026490066	11.6376158940397	-7.75470198675497			
100	2020	0.791841059602649	0.146754966887417	-0.279523178807947	1.15337748344371	116.895364238411	9.17509933774834				0.608953642384106	-0.0802119205298013	-0.114860927152318	-12.7260927152318	-26.2921854304636	-0.30596026490066				0.725827814569536	0.0787284768211921	-0.40794701986755	-40.032582781457	111.586490066225	-8.60026490066225				0.480529801324503	-0.128529801324503	-0.581721854304636	-14.3170860927152	2.9835761589404	-9.29562913907285				0.628026490066225	-0.0285033112582781	-0.0260662251655629	-11.5282119205298	-39.4280794701987	3.02251655629139				0.511788079470199	-0.174834437086093	-0.404238410596026	-39.1796026490066	16.9576158940397	-10.554701986755			
101	2040	0.807841059602649	0.130754966887417	-0.343523178807947	20.4733774834437	110.175364238411	5.53509933774834				0.688953642384106	0.0637880794701987	-0.0188609271523178	-22.5260927152318	-15.3721854304636	-9.82596026490066				0.805827814569536	0.0307284768211921	-0.40794701986755	-24.352582781457	99.8264900662252	-2.44026490066225				0.448529801324503	-0.0965298013245033	-0.597721854304636	-2.27708609271523	-7.9364238410596	-2.29562913907285				0.660026490066225	0.00349668874172187	-0.0260662251655629	-7.6082119205298	-30.1880794701987	1.34251655629139				0.559788079470199	-0.158834437086093	-0.452238410596026	-24.6196026490066	6.87761589403974	-9.99470198675497			
102	2060	0.759841059602649	0.178754966887417	-0.247523178807947	14.3133774834437	103.455364238411	1.61509933774834				0.592953642384106	0.175788079470199	-0.0188609271523178	4.63390728476821	-26.0121854304636	-10.9459602649007				0.773827814569536	-0.0492715231788079	-0.34394701986755	-23.232582781457	84.1464900662252	6.79973509933775				0.464529801324503	-0.144529801324503	-0.613721854304636	3.88291390728477	-18.8564238410596	5.82437086092715				0.644026490066225	0.0994966887417219	-0.0580662251655629	-10.9682119205298	-29.3480794701987	2.18251655629139				0.575788079470199	-0.126834437086093	-0.500238410596026	-21.2596026490066	0.997615894039735	-8.31470198675497			
103	2080	0.839841059602649	0.146754966887417	-0.311523178807947	8.99337748344371	80.7753642384106	2.17509933774834				0.640953642384106	-0.000211920529801304	-0.130860927152318	13.3139072847682	-22.3721854304636	-9.26596026490066				0.805827814569536	-0.00127152317880793	-0.27994701986755	-25.472582781457	68.4664900662252	8.19973509933775				0.512529801324503	-0.144529801324503	-0.661721854304636	-0.877086092715232	-26.6964238410596	9.74437086092715				0.692026490066225	0.0514966887417219	-0.0740662251655629	-5.6482119205298	-23.7480794701987	1.62251655629139				0.591788079470199	-0.0788344370860927	-0.500238410596026	-22.0996026490066	-5.72238410596027	-8.31470198675497			
104	2100	0.919841059602649	0.0827549668874172	-0.359523178807947	10.3933774834437	74.6153642384106	9.17509933774834				0.752953642384106	-0.0322119205298013	-0.0348609271523178	-14.1260927152318	7.30781456953642	-3.66596026490066				0.837827814569536	0.0147284768211921	-0.37594701986755	-16.792582781457	44.9464900662252	10.7197350993378				0.544529801324503	-0.128529801324503	-0.677721854304636	-6.47708609271523	-29.2164238410596	10.8643708609272				0.756026490066225	-0.0125033112582781	-0.0420662251655629	-1.7282119205298	-17.8680794701987	-1.45748344370861				0.575788079470199	-0.110834437086093	-0.516238410596026	-12.2996026490066	-7.12238410596027	-4.11470198675497			
105	2120	0.935841059602649	0.0347549668874172	-0.423523178807947	8.71337748344371	63.1353642384106	2.45509933774835				0.832953642384106	0.0797880794701987	0.0291390728476822	-21.1260927152318	24.9478145695364	-4.22596026490066				0.901827814569536	-0.0332715231788079	-0.34394701986755	4.76741721854305	27.3064900662252	9.87973509933775				0.544529801324503	-0.128529801324503	-0.709721854304636	-6.47708609271523	-29.2164238410596	10.3043708609272				0.804026490066225	0.0354966887417219	-0.0580662251655629	-3.1282119205298	-17.8680794701987	-5.09748344370861				0.639788079470199	-0.158834437086093	-0.516238410596026	-11.7396026490066	0.437615894039735	4.00529801324503			
106	2140	0.951841059602649	0.0347549668874172	-0.359523178807947	8.99337748344371	53.3353642384106	-2.58490066225166				1.02495364238411	-0.0322119205298013	0.0291390728476822	3.79390728476821	18.7878145695364	5.01403973509934				1.07782781456954	-0.0652715231788079	-0.34394701986755	6.44741721854305	21.7064900662252	9.59973509933775				0.544529801324503	-0.160529801324503	-0.773721854304636	-0.317086092715232	-31.4564238410596	9.46437086092715				0.836026490066225	0.0674966887417219	-0.0740662251655629	-7.3282119205298	-10.0280794701987	-5.65748344370861				0.719788079470199	-0.174834437086093	-0.532238410596027	-6.69960264900662	1.27761589403974	2.32529801324503			
107	2160	0.935841059602649	0.00275496688741723	-0.311523178807947	9.27337748344371	32.6153642384106	-5.10490066225166				1.04095364238411	-0.144211920529801	0.0131390728476822	4.35390728476821	-19.2921854304636	9.21403973509934				1.07782781456954	-0.113271523178808	-0.26394701986755	0.847417218543046	12.1864900662252	9.03973509933775				0.480529801324503	-0.176529801324503	-0.741721854304636	-6.47708609271523	-28.3764238410596	6.38437086092715				0.916026490066225	-0.0285033112582781	-0.0900662251655629	-3.1282119205298	-0.508079470198675	-4.81748344370861				0.735788079470199	-0.190834437086093	-0.516238410596026	-7.25960264900662	2.95761589403974	0.0852980132450323			
108	2180	0.871841059602649	-0.109245033112583	-0.231523178807947	11.5133774834437	29.5353642384106	-4.26490066225166				0.864953642384106	0.0317880794701987	-0.0188609271523178	-13.2860927152318	-19.5721854304636	-1.98596026490066				0.933827814569536	-0.145271523178808	-0.24794701986755	-3.07258278145695	11.0664900662252	5.95973509933775				0.512529801324503	-0.144529801324503	-0.741721854304636	-21.0370860927152	-23.6164238410596	-0.615629139072848				0.948026490066225	0.00349668874172187	-0.0100662251655629	-10.4082119205298	3.41192052980132	-7.05748344370861				0.751788079470199	-0.254834437086093	-0.500238410596026	2.26039735099338	-2.92238410596027	-0.474701986754968			
109	2200	0.919841059602649	-0.189245033112583	-0.199523178807947	3.11337748344371	30.3753642384106	-1.46490066225166				0.896953642384106	0.0317880794701987	-0.00286092715231785	-15.8060927152318	-18.1721854304636	-3.38596026490066				0.789827814569536	-0.0812715231788079	-0.15194701986755	-1.39258278145695	5.18649006622517	5.11973509933775				0.560529801324503	-0.0485298013245033	-0.741721854304636	-22.4370860927152	-14.0964238410596	-0.335629139072848				0.932026490066225	0.115496688741722	-0.0260662251655629	-17.1282119205298	0.891920529801325	-8.17748344370861				0.815788079470199	-0.318834437086093	-0.484238410596026	-2.49960264900662	-7.68238410596027	-0.194701986754968			
110	2220	0.983841059602649	-0.189245033112583	-0.167523178807947	-18.4466225165563	30.0953642384106	3.57509933774835				1.02495364238411	-0.0162119205298013	-0.0348609271523178	2.39390728476821	-44.4921854304636	12.5740397350993				0.981827814569536	-0.113271523178808	-0.19994701986755	-8.67258278145695	15.2664900662252	7.91973509933775				0.544529801324503	0.0154701986754967	-0.741721854304636	-7.31708609271523	-4.8564238410596	2.74437086092715				0.980026490066225	0.0834966887417219	-0.0580662251655629	-13.7682119205298	1.17192052980133	-5.37748344370861				0.847788079470199	-0.334834437086093	-0.516238410596026	-14.5396026490066	1.55761589403974	0.925298013245032			
111	2240	1.01584105960265	-0.0292450331125828	-0.215523178807947	-29.9266225165563	25.3353642384106	1.33509933774834				0.992953642384106	-0.0802119205298013	-0.194860927152318	-13.0060927152318	-41.9721854304636	15.6540397350993				1.01382781456954	-0.209271523178808	-0.27994701986755	-21.832582781457	13.5864900662252	5.67973509933775				0.512529801324503	-0.0325298013245033	-0.741721854304636	4.44291390728477	-5.4164238410596	6.38437086092715				1.01202649006623	0.0194966887417219	-0.0580662251655629	-12.9282119205298	-0.508079470198675	-1.17748344370861				0.831788079470199	-0.270834437086093	-0.548238410596027	-11.1796026490066	4.63761589403974	4.84529801324503			
112	2260	0.919841059602649	0.130754966887417	-0.183523178807947	-29.3666225165563	14.6953642384106	-2.86490066225166				0.944953642384106	-0.0162119205298013	-0.0988609271523179	-9.64609271523179	-41.9721854304636	17.3340397350993				0.933827814569536	-0.129271523178808	-0.23194701986755	-33.592582781457	11.0664900662252	0.91973509933775				0.544529801324503	-0.0965298013245033	-0.805721854304636	2.20291390728477	-10.1764238410596	3.86437086092715				0.964026490066225	0.0354966887417219	-0.0260662251655629	-18.2482119205298	-0.228079470198675	0.502516556291392				0.815788079470199	-0.270834437086093	-0.516238410596026	-8.09960264900662	0.437615894039735	10.725298013245			
113	2280	0.919841059602649	0.0987549668874172	-0.119523178807947	-17.6066225165563	15.5353642384106	-3.42490066225166				0.896953642384106	-0.000211920529801304	-0.130860927152318	1.83390728476821	-32.1721854304636	16.4940397350993				0.869827814569536	-0.0172715231788079	-0.18394701986755	-27.992582781457	8.82649006622517	-0.20026490066225				0.528529801324503	-0.112529801324503	-0.789721854304636	-5.91708609271523	-7.0964238410596	4.42437086092715				0.916026490066225	0.0674966887417219	-0.0100662251655629	-19.6482119205298	-0.508079470198675	3.30251655629139				0.815788079470199	-0.238834437086093	-0.516238410596026	-11.1796026490066	0.157615894039735	12.965298013245			
114	2300	0.951841059602649	0.0347549668874172	-0.071523178807947	-15.0866225165563	15.2553642384106	-3.98490066225166				0.928953642384106	-0.112211920529801	-0.226860927152318	-6.56609271523179	-3.61218543046358	13.6940397350993				0.885827814569536	0.0147284768211921	-0.27994701986755	-13.712582781457	6.58649006622517	-1.60026490066225				0.496529801324503	-0.0965298013245033	-0.725721854304636	-11.7970860927152	-5.6964238410596	5.26437086092715				0.900026490066225	0.0194966887417219	-0.0100662251655629	-15.7282119205298	4.25192052980133	6.66251655629139				0.783788079470199	-0.222834437086093	-0.548238410596027	-7.53960264900662	-2.08238410596027	10.445298013245			
115	2320	0.967841059602649	-0.0132450331125828	-0.135523178807947	-21.5266225165563	14.4153642384106	-3.98490066225166				1.00895364238411	-0.0962119205298013	-0.194860927152318	-30.6460927152318	11.7878145695364	7.25403973509934				0.933827814569536	-0.0332715231788079	-0.34394701986755	-14.272582781457	7.14649006622517	-1.32026490066225				0.512529801324503	-0.0645298013245033	-0.677721854304636	-13.7570860927152	-5.9764238410596	4.14437086092715				0.948026490066225	0.00349668874172187	0.0539337748344371	-22.7282119205298	5.37192052980133	8.06251655629139				0.767788079470199	-0.222834437086093	-0.564238410596026	-0.259602649006623	-6.28238410596027	8.48529801324503			
116	2340	0.951841059602649	0.0667549668874172	-0.167523178807947	-25.1666225165563	15.5353642384106	-4.82490066225166				0.960953642384106	0.0317880794701987	-0.162860927152318	-43.5260927152318	13.7478145695364	-0.30596026490066				0.949827814569536	-0.0332715231788079	-0.31194701986755	-18.752582781457	4.34649006622517	-2.16026490066225				0.560529801324503	-0.0165298013245033	-0.677721854304636	-10.6770860927152	-4.2964238410596	3.86437086092715				0.948026490066225	0.0674966887417219	-0.0580662251655629	-16.8482119205298	-3.02807947019868	10.0225165562914				0.783788079470199	-0.222834437086093	-0.564238410596026	2.82039735099338	-6.84238410596027	8.76529801324503			
117	2360	0.967841059602649	0.130754966887417	-0.183523178807947	-22.9266225165563	12.4553642384106	-3.98490066225166				0.960953642384106	0.0317880794701987	-0.146860927152318	-39.6060927152318	20.4678145695364	-1.14596026490066				0.917827814569536	-0.00127152317880793	-0.21594701986755	-24.912582781457	0.706490066225167	-0.76026490066225				0.608529801324503	-0.000529801324503289	-0.693721854304636	3.32291390728477	3.8235761589404	5.54437086092715				0.932026490066225	0.131496688741722	-0.0260662251655629	-17.9682119205298	0.891920529801325	11.1425165562914				0.767788079470199	-0.222834437086093	-0.564238410596026	5.62039735099338	-7.96238410596027	5.40529801324503			
118	2380	0.951841059602649	0.162754966887417	-0.167523178807947	-15.0866225165563	7.6953642384106	-4.26490066225166				0.944953642384106	0.0317880794701987	-0.146860927152318	-26.7260927152318	26.3478145695364	1.93403973509934				0.901827814569536	0.0147284768211921	-0.19994701986755	-20.992582781457	-0.413509933774833	-0.48026490066225				0.624529801324503	-0.0645298013245033	-0.741721854304636	13.1229139072848	9.9835761589404	8.34437086092715				0.948026490066225	0.0834966887417219	-0.0100662251655629	-7.3282119205298	8.45192052980133	11.7025165562914				0.751788079470199	-0.190834437086093	-0.580238410596026	4.78039735099338	-11.6023841059603	2.88529801324503			
119	2400	0.983841059602649	0.0987549668874172	-0.167523178807947	-7.80662251655629	0.415364238410596	-4.54490066225166				0.960953642384106	0.0637880794701987	-0.130860927152318	-11.6060927152318	11.7878145695364	4.45403973509934				0.901827814569536	0.0147284768211921	-0.26394701986755	-9.51258278145695	0.986490066225167	-2.44026490066225				0.672529801324503	-0.0645298013245033	-0.741721854304636	8.36291390728477	9.4235761589404	7.78437086092715				0.996026490066225	0.0514966887417219	-0.0260662251655629	-5.6482119205298	8.73192052980133	8.06251655629139				0.719788079470199	-0.174834437086093	-0.596238410596026	6.46039735099338	-14.4023841059603	1.48529801324503			
120	2420	0.951841059602649	0.0827549668874172	-0.199523178807947	-6.40662251655629	-3.7846357615894	-3.14490066225166				1.00895364238411	0.0957880794701987	-0.194860927152318	-12.4460927152318	12.9078145695364	6.97403973509934				0.965827814569536	0.0467284768211921	-0.32794701986755	-9.51258278145695	4.62649006622517	-1.32026490066225				0.704529801324503	-0.0325298013245033	-0.757721854304636	4.44291390728477	3.2635761589404	6.10437086092715				1.01202649006623	0.0514966887417219	-0.0580662251655629	-4.2482119205298	3.41192052980132	7.78251655629139				0.687788079470199	-0.190834437086093	-0.580238410596026	3.10039735099338	-14.4023841059603	-0.194701986754968			
121	2440	0.951841059602649	0.0667549668874172	-0.103523178807947	-8.36662251655629	1.8153642384106	-2.02490066225166				1.00895364238411	0.0797880794701987	-0.162860927152318	-21.6860927152318	7.30781456953642	6.69403973509934				0.949827814569536	0.0307284768211921	-0.32794701986755	-11.192582781457	6.30649006622517	1.47973509933775				0.672529801324503	-0.0645298013245033	-0.757721854304636	4.44291390728477	-2.0564238410596	8.34437086092715				0.980026490066225	0.0834966887417219	-0.0580662251655629	0.791788079470198	3.69192052980133	5.26251655629139				0.687788079470199	-0.238834437086093	-0.564238410596026	3.94039735099338	-10.4823841059603	-0.474701986754968			
122	2460	0.983841059602649	0.0827549668874172	-0.119523178807947	-5.56662251655629	5.4553642384106	-2.02490066225166				0.944953642384106	0.0317880794701987	-0.226860927152318	-18.8860927152318	3.94781456953642	6.13403973509934				0.917827814569536	0.0147284768211921	-0.26394701986755	-3.63258278145695	5.46649006622517	4.27973509933775				0.608529801324503	-0.144529801324503	-0.789721854304636	6.96291390728477	-1.2164238410596	8.90437086092715				0.964026490066225	0.0354966887417219	-0.0740662251655629	5.5517880794702	6.77192052980133	2.74251655629139				0.703788079470199	-0.254834437086093	-0.564238410596026	-1.93960264900662	-7.12238410596027	3.44529801324503			
123	2480	0.935841059602649	0.130754966887417	-0.151523178807947	-1.64662251655629	6.5753642384106	-3.14490066225166				0.960953642384106	0.0317880794701987	-0.146860927152318	-8.80609271523179	12.9078145695364	3.61403973509934				0.917827814569536	0.0147284768211921	-0.26394701986755	-2.79258278145695	6.58649006622517	7.07973509933775				0.560529801324503	-0.144529801324503	-0.789721854304636	1.92291390728477	4.6635761589404	6.10437086092715				1.01202649006623	0.00349668874172187	0.0219337748344371	-10.6882119205298	-3.02807947019868	2.74251655629139				0.703788079470199	-0.254834437086093	-0.580238410596026	-5.01960264900662	-3.76238410596027	5.40529801324503			
124	2500	0.935841059602649	0.130754966887417	-0.135523178807947	1.43337748344371	7.1353642384106	-2.86490066225166				0.944953642384106	0.0317880794701987	-0.130860927152318	-5.72609271523179	17.1078145695364	7.53403973509934				0.917827814569536	-0.00127152317880793	-0.26394701986755	1.40741721854305	10.7864900662252	6.51973509933775				0.528529801324503	-0.112529801324503	-0.773721854304636	1.08291390728477	9.9835761589404	4.70437086092715				0.964026490066225	0.00349668874172187	-0.138066225165563	2.4717880794702	-3.30807947019868	2.46251655629139				0.703788079470199	-0.238834437086093	-0.564238410596026	-5.01960264900662	-0.682384105960265	3.44529801324503			
125	2520	0.983841059602649	0.0987549668874172	-0.151523178807947	4.51337748344371	4.3353642384106	-4.26490066225166				0.976953642384106	-0.000211920529801304	-0.0988609271523179	-5.16609271523179	10.1078145695364	8.65403973509934				0.949827814569536	0.0307284768211921	-0.29594701986755	-3.07258278145695	7.70649006622517	3.71973509933775				0.512529801324503	-0.128529801324503	-0.773721854304636	10.6029139072848	11.3835761589404	4.14437086092715				0.916026490066225	0.00349668874172187	-0.0740662251655629	0.791788079470198	-7.22807947019868	3.58251655629139				0.687788079470199	-0.222834437086093	-0.580238410596026	2.54039735099338	3.51761589403974	3.72529801324503			
126	2540	0.967841059602649	0.0667549668874172	-0.103523178807947	5.91337748344371	4.0553642384106	-2.86490066225166				1.00895364238411	-0.000211920529801304	-0.0988609271523179	-0.126092715231788	-5.85218543046358	7.25403973509934				0.981827814569536	0.0627284768211921	-0.29594701986755	-2.79258278145695	10.7864900662252	0.35973509933775				0.528529801324503	-0.128529801324503	-0.773721854304636	14.5229139072848	9.9835761589404	3.30437086092715				0.932026490066225	0.00349668874172187	-0.0740662251655629	6.1117880794702	5.93192052980133	3.30251655629139				0.735788079470199	-0.206834437086093	-0.596238410596026	-1.09960264900662	6.87761589403974	3.72529801324503			
127	2560	0.935841059602649	0.0667549668874172	-0.103523178807947	7.03337748344371	4.6153642384106	-2.86490066225166				0.960953642384106	-0.000211920529801304	-0.146860927152318	10.7939072847682	-5.29218543046358	3.89403973509934				0.949827814569536	0.0307284768211921	-0.29594701986755	-0.552582781456954	5.18649006622517	0.35973509933775				0.592529801324503	-0.128529801324503	-0.773721854304636	12.8429139072848	6.0635761589404	1.34437086092715				0.948026490066225	0.00349668874172187	-0.0260662251655629	3.3117880794702	-1.06807947019868	3.58251655629139				0.735788079470199	-0.238834437086093	-0.564238410596026	2.82039735099338	5.75761589403974	3.72529801324503			
128	2580	0.903841059602649	0.0667549668874172	-0.087523178807947	5.63337748344371	4.8953642384106	-1.18490066225166				0.928953642384106	-0.0482119205298013	-0.130860927152318	15.2739072847682	-1.37218543046358	1.09403973509934				0.917827814569536	-0.0172715231788079	-0.27994701986755	6.72741721854305	1.54649006622517	0.35973509933775				0.656529801324503	-0.128529801324503	-0.789721854304636	10.8829139072848	5.2235761589404	0.224370860927152				0.964026490066225	0.0354966887417219	-0.0260662251655629	5.5517880794702	5.09192052980133	2.74251655629139				0.751788079470199	-0.238834437086093	-0.580238410596026	2.26039735099338	4.91761589403974	1.76529801324503			
129	2600	0.951841059602649	0.0667549668874172	-0.087523178807947	3.39337748344371	6.8553642384106	-0.904900662251656				0.976953642384106	0.0317880794701987	-0.0828609271523179	9.39390728476821	3.94781456953642	-1.70596026490066				0.917827814569536	-0.0172715231788079	-0.23194701986755	13.167417218543	2.38649006622517	-1.04026490066225				0.656529801324503	-0.144529801324503	-0.789721854304636	7.52291390728477	5.5035761589404	-0.895629139072848				0.980026490066225	0.0194966887417219	-0.0100662251655629	8.6317880794702	5.65192052980133	2.18251655629139				0.751788079470199	-0.222834437086093	-0.580238410596026	2.54039735099338	-0.122384105960265	-2.99470198675497			
130	2620	1.01584105960265	0.0987549668874172	-0.167523178807947	0.873377483443709	7.1353642384106	-1.46490066225166				0.976953642384106	0.0157880794701987	-0.194860927152318	3.51390728476821	-1.09218543046358	2.49403973509934				0.933827814569536	-0.0172715231788079	-0.23194701986755	9.52741721854305	-0.133509933774833	0.91973509933775				0.640529801324503	-0.112529801324503	-0.789721854304636	0.242913907284768	1.8635761589404	-2.29562913907285				0.996026490066225	0.0194966887417219	-0.0260662251655629	4.7117880794702	4.53192052980133	-0.897483443708608				0.735788079470199	-0.238834437086093	-0.564238410596026	3.10039735099338	-2.64238410596027	-6.63470198675497			
131	2640	0.967841059602649	0.114754966887417	-0.151523178807947	4.79337748344371	7.6953642384106	-3.42490066225166				0.992953642384106	-0.0322119205298013	-0.194860927152318	2.11390728476821	5.62781456953642	1.93403973509934				0.949827814569536	-0.0172715231788079	-0.19994701986755	15.687417218543	2.94649006622517	-0.48026490066225				0.656529801324503	-0.0805298013245033	-0.773721854304636	3.04291390728477	-4.0164238410596	-3.13562913907285				1.01202649006623	0.0194966887417219	-0.0260662251655629	5.8317880794702	-2.18807947019868	-0.337483443708608				0.767788079470199	-0.238834437086093	-0.580238410596026	4.50039735099338	-0.122384105960265	-6.35470198675497			
132	2660	0.951841059602649	0.0827549668874172	-0.167523178807947	11.2333774834437	4.8953642384106	-4.54490066225166				0.960953642384106	-0.0322119205298013	-0.0668609271523178	7.71390728476821	2.82781456953642	5.85403973509934				0.917827814569536	-0.00127152317880793	-0.18394701986755	14.287417218543	8.54649006622517	0.35973509933775				0.640529801324503	-0.128529801324503	-0.773721854304636	8.36291390728477	-4.2964238410596	-4.53562913907285				0.996026490066225	0.0194966887417219	-0.0260662251655629	11.9917880794702	-1.34807947019868	0.502516556291392				0.751788079470199	-0.222834437086093	-0.596238410596026	8.98039735099338	0.437615894039735	-7.19470198675497			
133	2680	0.951841059602649	0.0667549668874172	-0.151523178807947	7.59337748344371	1.2553642384106	-2.58490066225166				0.960953642384106	-0.000211920529801304	-0.114860927152318	11.0739072847682	5.90781456953642	4.17403973509934				0.917827814569536	0.0147284768211921	-0.18394701986755	9.52741721854305	11.0664900662252	0.91973509933775				0.576529801324503	-0.128529801324503	-0.741721854304636	0.242913907284768	-1.7764238410596	-7.89562913907285				0.964026490066225	0.0354966887417219	-0.0420662251655629	11.9917880794702	0.891920529801325	-0.337483443708608				0.719788079470199	-0.222834437086093	-0.580238410596026	10.1003973509934	-1.80238410596026	-10.274701986755			
134	2700	0.951841059602649	0.0187549668874172	-0.119523178807947	7.03337748344371	4.8953642384106	-0.904900662251656				0.960953642384106	0.0157880794701987	-0.0988609271523179	14.9939072847682	3.66781456953642	3.89403973509934				0.949827814569536	-0.00127152317880793	-0.23194701986755	10.927417218543	10.7864900662252	-0.48026490066225				0.544529801324503	-0.0805298013245033	-0.709721854304636	-5.07708609271523	1.3035761589404	-12.3756291390728				0.916026490066225	0.0194966887417219	-0.0100662251655629	10.3117880794702	2.01192052980133	-1.17748344370861				0.703788079470199	-0.238834437086093	-0.548238410596027	8.42039735099338	-3.48238410596027	-9.71470198675497			
135	2720	0.951841059602649	0.0347549668874172	-0.119523178807947	7.59337748344371	4.8953642384106	-0.0649006622516557				1.00895364238411	-0.000211920529801304	-0.0508609271523178	12.1939072847682	12.6278145695364	0.81403973509934				0.949827814569536	-0.0332715231788079	-0.23194701986755	13.447417218543	9.94649006622517	-0.20026490066225				0.544529801324503	-0.0485298013245033	-0.709721854304636	10.0429139072848	3.5435761589404	-13.4956291390728				0.916026490066225	0.0194966887417219	-0.0260662251655629	10.5917880794702	2.57192052980133	-2.29748344370861				0.703788079470199	-0.238834437086093	-0.564238410596026	9.54039735099338	-6.00238410596027	-8.87470198675497			
136	2740	0.951841059602649	0.114754966887417	-0.135523178807947	3.95337748344371	5.7353642384106	-0.344900662251656				0.976953642384106	-0.0162119205298013	-0.114860927152318	5.75390728476821	2.82781456953642	3.33403973509934				0.965827814569536	-0.0652715231788079	-0.24794701986755	12.047417218543	3.50649006622517	1.75973509933775				0.560529801324503	-0.0965298013245033	-0.757721854304636	21.8029139072848	4.6635761589404	-9.29562913907285				0.948026490066225	0.00349668874172187	-0.0260662251655629	11.7117880794702	2.01192052980133	-2.29748344370861				0.719788079470199	-0.238834437086093	-0.564238410596026	14.0203973509934	-6.56238410596027	-8.03470198675497			
137	2760	0.951841059602649	0.114754966887417	-0.119523178807947	1.71337748344371	6.5753642384106	-1.46490066225166				0.960953642384106	-0.0162119205298013	-0.0988609271523179	0.153907284768212	10.1078145695364	-0.0259602649006601				0.933827814569536	-0.0652715231788079	-0.24794701986755	10.367417218543	3.50649006622517	1.47973509933775				0.592529801324503	-0.176529801324503	-0.789721854304636	17.3229139072848	2.9835761589404	-9.29562913907285				0.948026490066225	0.0194966887417219	-0.0260662251655629	12.8317880794702	1.45192052980132	-1.73748344370861				0.751788079470199	-0.270834437086093	-0.548238410596027	13.4603973509934	-3.20238410596026	-6.91470198675497			
138	2780	0.967841059602649	0.0987549668874172	-0.103523178807947	3.11337748344371	6.5753642384106	-2.02490066225166				0.976953642384106	-0.0162119205298013	-0.0828609271523179	4.91390728476821	10.1078145695364	-0.585960264900661				0.933827814569536	-0.00127152317880793	-0.23194701986755	5.32741721854305	4.62649006622517	0.35973509933775				0.608529801324503	-0.176529801324503	-0.789721854304636	6.96291390728477	1.5835761589404	-9.57562913907285				0.948026490066225	0.00349668874172187	-0.0260662251655629	12.5517880794702	5.65192052980133	-2.01748344370861				0.751788079470199	-0.270834437086093	-0.548238410596027	13.4603973509934	-4.88238410596027	-7.75470198675497			
139	2800	0.967841059602649	0.0987549668874172	-0.119523178807947	4.23337748344371	4.6153642384106	-1.46490066225166				0.976953642384106	-0.0162119205298013	-0.0988609271523179	13.3139072847682	8.14781456953643	-0.585960264900661				0.949827814569536	0.0147284768211921	-0.19994701986755	5.60741721854305	3.50649006622517	0.35973509933775				0.592529801324503	-0.128529801324503	-0.805721854304636	2.48291390728477	-0.0964238410596001	-10.6956291390728				0.980026490066225	0.00349668874172187	-0.0100662251655629	9.7517880794702	7.33192052980133	-3.41748344370861				0.735788079470199	-0.286834437086093	-0.532238410596027	9.54039735099338	-5.16238410596027	-6.91470198675497			
140	2820	0.951841059602649	0.0667549668874172	-0.119523178807947	4.79337748344371	5.1753642384106	-0.904900662251656				0.976953642384106	-0.000211920529801304	-0.0828609271523179	12.1939072847682	4.78781456953642	-0.0259602649006601				0.949827814569536	-0.00127152317880793	-0.18394701986755	14.287417218543	3.78649006622517	0.91973509933775				0.592529801324503	-0.112529801324503	-0.789721854304636	-0.877086092715232	-2.0564238410596	-9.01562913907285				0.996026490066225	0.0194966887417219	-0.0100662251655629	6.9517880794702	2.57192052980133	-3.13748344370861				0.751788079470199	-0.286834437086093	-0.532238410596027	5.62039735099338	-4.32238410596027	-6.35470198675497			
141	2840	0.951841059602649	0.0347549668874172	-0.119523178807947	3.95337748344371	5.7353642384106	-0.0649006622516557				0.976953642384106	-0.000211920529801304	-0.114860927152318	6.87390728476821	5.90781456953642	-2.54596026490066				0.949827814569536	-0.0172715231788079	-0.19994701986755	11.487417218543	5.74649006622517	0.91973509933775				0.608529801324503	-0.144529801324503	-0.773721854304636	2.76291390728477	-2.8964238410596	-7.05562913907285				0.980026490066225	0.0194966887417219	-0.0260662251655629	6.9517880794702	0.891920529801325	-2.29748344370861				0.751788079470199	-0.270834437086093	-0.548238410596027	6.18039735099338	-4.04238410596027	-6.91470198675497			
142	2860	0.951841059602649	0.0667549668874172	-0.103523178807947	3.11337748344371	7.4153642384106	-0.0649006622516557				0.944953642384106	-0.000211920529801304	-0.0988609271523179	5.47390728476821	2.54781456953642	-3.10596026490066				0.949827814569536	-0.0652715231788079	-0.19994701986755	9.52741721854305	4.62649006622517	0.0797350993377501				0.576529801324503	-0.128529801324503	-0.773721854304636	-0.597086092715232	-5.1364238410596	-6.77562913907285				0.964026490066225	0.0354966887417219	-0.0260662251655629	6.3917880794702	1.45192052980132	-3.41748344370861				0.751788079470199	-0.254834437086093	-0.532238410596027	4.22039735099338	-3.20238410596026	-5.79470198675497			
143	2880	0.967841059602649	0.0827549668874172	-0.119523178807947	1.15337748344371	7.9753642384106	-0.904900662251656				0.960953642384106	-0.0162119205298013	-0.114860927152318	7.99390728476821	2.54781456953642	-1.14596026490066				0.933827814569536	-0.0652715231788079	-0.18394701986755	6.44741721854305	5.74649006622517	1.75973509933775				0.560529801324503	-0.112529801324503	-0.757721854304636	-4.23708609271523	-4.0164238410596	-6.49562913907285				0.948026490066225	0.0354966887417219	-0.0260662251655629	4.9917880794702	2.29192052980133	-3.97748344370861				0.751788079470199	-0.254834437086093	-0.548238410596027	6.18039735099338	-2.92238410596027	-4.67470198675497			
144	2900	0.967841059602649	0.0827549668874172	-0.135523178807947	0.0333774834437086	7.6953642384106	-0.904900662251656				0.992953642384106	-0.0322119205298013	-0.0828609271523179	6.31390728476821	1.42781456953642	1.09403973509934				0.965827814569536	-0.0492715231788079	-0.19994701986755	0.847417218543046	5.18649006622517	2.87973509933775				0.544529801324503	-0.0805298013245033	-0.741721854304636	-2.27708609271523	-2.3364238410596	-7.33562913907285				0.948026490066225	0.0194966887417219	-0.0100662251655629	4.1517880794702	2.57192052980133	-3.97748344370861				0.735788079470199	-0.254834437086093	-0.532238410596027	6.18039735099338	-2.08238410596027	-3.83470198675497			
145	2920	0.951841059602649	0.0667549668874172	-0.119523178807947	1.99337748344371	7.1353642384106	-0.624900662251656				0.976953642384106	-0.0322119205298013	-0.0668609271523178	2.95390728476821	-4.17218543046358	-0.86596026490066				0.965827814569536	-0.0332715231788079	-0.19994701986755	2.52741721854305	2.94649006622517	3.15973509933775				0.560529801324503	-0.0965298013245033	-0.709721854304636	0.522913907284768	-0.6564238410596	-6.77562913907285				0.948026490066225	0.0194966887417219	-0.0100662251655629	4.1517880794702	2.85192052980133	-3.13748344370861				0.751788079470199	-0.254834437086093	-0.532238410596027	5.06039735099338	-1.24238410596026	-2.71470198675497			
146	2940	0.951841059602649	0.0347549668874172	-0.103523178807947	0.313377483443709	6.0153642384106	-0.904900662251656				0.960953642384106	-0.0162119205298013	-0.0508609271523178	4.07390728476821	-6.13218543046358	-1.42596026490066				0.933827814569536	-0.0492715231788079	-0.19994701986755	4.48741721854305	2.38649006622517	2.59973509933775				0.576529801324503	-0.112529801324503	-0.757721854304636	3.32291390728477	1.0235761589404	-5.37562913907285				0.932026490066225	0.0354966887417219	-0.0100662251655629	2.7517880794702	2.29192052980133	-2.29748344370861				0.767788079470199	-0.254834437086093	-0.532238410596027	5.62039735099338	-0.402384105960265	-4.11470198675497			
147	2960	0.967841059602649	0.0507549668874172	-0.119523178807947	-2.48662251655629	5.1753642384106	0.495099337748344				0.976953642384106	-0.0162119205298013	-0.0828609271523179	8.83390728476821	-9.21218543046358	-2.26596026490066				0.949827814569536	-0.0332715231788079	-0.18394701986755	1.68741721854305	2.66649006622517	2.87973509933775				0.560529801324503	-0.0965298013245033	-0.757721854304636	2.20291390728477	1.8635761589404	-5.37562913907285				0.932026490066225	0.0514966887417219	0.00593377483443711	1.9117880794702	4.53192052980133	-2.01748344370861				0.751788079470199	-0.270834437086093	-0.516238410596026	7.58039735099338	-1.52238410596026	-4.67470198675497			
148	2980	0.967841059602649	0.0827549668874172	-0.119523178807947	-5.00662251655629	4.8953642384106	1.61509933774834				0	0	0	0	0	0				0	0	0	0	0	0				0	0	0	0	0	0				0	0	0	0	0	0				0	0	0	0	0	0			
149	3000	0	0	0	0	0	0				0	0	0	0	0	0				0	0	0	0	0	0				0.624529801324503	-0.0965298013245033	-0.757721854304636	0.522913907284768	-0.3764238410596	-2.85562913907285				0.980026490066225	0.0354966887417219	0.00593377483443711	-0.0482119205298018	2.85192052980133	-2.01748344370861				0.767788079470199	-0.270834437086093	-0.548238410596027	7.58039735099338	-1.52238410596026	-4.11470198675497			
150	3020	0.951841059602649	0.0507549668874172	-0.103523178807947	-0.806622516556291	4.8953642384106	-0.624900662251656				0.944953642384106	-0.000211920529801304	-0.0988609271523179	-3.76609271523179	-2.77218543046358	-1.42596026490066				0.917827814569536	-0.0492715231788079	-0.19994701986755	2.24741721854305	2.38649006622517	2.03973509933775				0.624529801324503	-0.112529801324503	-0.789721854304636	0.802913907284768	-2.6164238410596	-0.335629139072848				0.964026490066225	0.0514966887417219	0.00593377483443711	-1.1682119205298	2.57192052980133	-2.01748344370861				0.783788079470199	-0.270834437086093	-0.548238410596027	3.66039735099338	-3.20238410596026	-6.35470198675497			
151	3040	0.951841059602649	0.0507549668874172	-0.087523178807947	-3.32662251655629	5.7353642384106	0.775099337748344				0.976953642384106	-0.0322119205298013	-0.130860927152318	1.83390728476821	-3.33218543046358	1.09403973509934				0.933827814569536	-0.0492715231788079	-0.18394701986755	1.12741721854305	1.82649006622517	3.43973509933775				0.608529801324503	-0.0965298013245033	-0.773721854304636	-2.27708609271523	-5.4164238410596	-0.615629139072848				0.964026490066225	0.0514966887417219	0.00593377483443711	-2.2882119205298	2.57192052980133	-3.69748344370861				0.767788079470199	-0.286834437086093	-0.548238410596027	0.580397350993377	-5.72238410596027	-8.03470198675497			
152	3060	0.967841059602649	0.0347549668874172	-0.087523178807947	-6.12662251655629	6.5753642384106	0.495099337748344				0.992953642384106	-0.0642119205298013	-0.0988609271523179	9.67390728476821	-7.81218543046358	5.01403973509934				0.965827814569536	-0.0492715231788079	-0.21594701986755	-2.51258278145695	2.10649006622517	3.43973509933775				0.592529801324503	-0.0965298013245033	-0.773721854304636	-2.55708609271523	-7.0964238410596	0.784370860927152				0.980026490066225	0.0354966887417219	0.00593377483443711	-1.4482119205298	1.17192052980133	-2.85748344370861				0.751788079470199	-0.286834437086093	-0.532238410596027	-0.539602649006623	-5.44238410596027	-5.23470198675497			
153	3080	0.983841059602649	0.0507549668874172	-0.103523178807947	-4.44662251655629	5.4553642384106	-0.624900662251656				0.992953642384106	-0.0482119205298013	-0.130860927152318	5.47390728476821	-3.33218543046358	4.73403973509934				0.965827814569536	-0.0492715231788079	-0.21594701986755	-0.552582781456954	3.78649006622517	2.03973509933775				0.592529801324503	-0.112529801324503	-0.757721854304636	-2.27708609271523	-8.4964238410596	3.58437086092715				0.996026490066225	0.0194966887417219	0.00593377483443711	-2.5682119205298	0.0519205298013249	-0.897483443708608				0.751788079470199	-0.270834437086093	-0.564238410596026	-2.49960264900662	-5.44238410596027	-2.71470198675497			
154	3100	0.983841059602649	0.0827549668874172	-0.103523178807947	-5.28662251655629	6.0153642384106	-0.0649006622516557				0.992953642384106	-0.0162119205298013	-0.0828609271523179	-4.04609271523179	3.66781456953642	2.49403973509934				0.933827814569536	-0.0172715231788079	-0.19994701986755	-1.39258278145695	4.62649006622517	0.91973509933775				0.592529801324503	-0.112529801324503	-0.757721854304636	-8.15708609271523	-9.6164238410596	4.70437086092715				0.980026490066225	0.0354966887417219	0.00593377483443711	-4.8082119205298	0.0519205298013249	-0.0574834437086077				0.783788079470199	-0.270834437086093	-0.580238410596026	-1.37960264900662	-7.40238410596027	-2.71470198675497			
155	3120	0.967841059602649	0.0667549668874172	-0.087523178807947	-6.12662251655629	5.1753642384106	-0.0649006622516557				0.960953642384106	-0.0162119205298013	-0.114860927152318	7.43390728476821	-3.61218543046358	2.77403973509934				0.933827814569536	-0.0172715231788079	-0.19994701986755	2.24741721854305	2.38649006622517	0.35973509933775				0.576529801324503	-0.0805298013245033	-0.773721854304636	-6.47708609271523	-10.1764238410596	4.42437086092715				0.948026490066225	0.0354966887417219	-0.0100662251655629	-4.8082119205298	-0.508079470198675	0.782516556291392				0.767788079470199	-0.270834437086093	-0.564238410596026	0.0203973509933773	-7.68238410596027	-2.99470198675497			
156	3140	0.967841059602649	0.0667549668874172	-0.039523178807947	-3.60662251655629	5.1753642384106	-0.904900662251656				1.00895364238411	-0.0482119205298013	-0.130860927152318	18.6339072847682	-5.29218543046358	4.73403973509934				0.965827814569536	-0.0492715231788079	-0.19994701986755	5.04741721854305	0.986490066225167	2.03973509933775				0.544529801324503	-0.0805298013245033	-0.741721854304636	-2.83708609271523	-10.4564238410596	4.42437086092715				0.980026490066225	0.0194966887417219	0.00593377483443711	-2.2882119205298	0.611920529801325	1.06251655629139				0.735788079470199	-0.270834437086093	-0.580238410596026	-0.819602649006623	-9.36238410596027	-0.194701986754968			
157	3160	0.967841059602649	0.0827549668874172	-0.087523178807947	-3.04662251655629	4.0553642384106	-0.624900662251656				0.992953642384106	-0.0322119205298013	-0.0988609271523179	18.0739072847682	-9.49218543046358	3.05403973509934				0.949827814569536	-0.0652715231788079	-0.21594701986755	4.48741721854305	0.706490066225167	3.43973509933775				0.576529801324503	-0.0805298013245033	-0.757721854304636	-2.83708609271523	-9.0564238410596	4.42437086092715				0.980026490066225	0.0194966887417219	0.0219337748344371	-3.1282119205298	-1.90807947019868	1.90251655629139				0.735788079470199	-0.286834437086093	-0.564238410596026	0.300397350993377	-8.52238410596027	2.04529801324503			
158	3180	0.967841059602649	0.0507549668874172	-0.087523178807947	-5.00662251655629	4.3353642384106	-0.344900662251656				0.976953642384106	-0.0322119205298013	-0.114860927152318	14.9939072847682	-11.1721854304636	2.49403973509934				0.933827814569536	-0.0492715231788079	-0.19994701986755	5.88741721854305	0.706490066225167	2.59973509933775				0.576529801324503	-0.0965298013245033	-0.741721854304636	-2.55708609271523	-8.4964238410596	4.70437086092715				0.964026490066225	0.0354966887417219	-0.0100662251655629	-4.5282119205298	-1.90807947019868	3.30251655629139				0.719788079470199	-0.270834437086093	-0.564238410596026	-5.29960264900662	-7.12238410596027	3.72529801324503			
159	3200	0.951841059602649	0.0667549668874172	-0.055523178807947	-5.28662251655629	3.7753642384106	-0.344900662251656				0.928953642384106	-0.0162119205298013	-0.130860927152318	10.2339072847682	-3.05218543046358	4.17403973509934				0.933827814569536	-0.0492715231788079	-0.16794701986755	9.52741721854305	0.426490066225167	1.47973509933775				0.576529801324503	-0.0965298013245033	-0.741721854304636	-0.597086092715232	-5.6964238410596	4.70437086092715				0.932026490066225	0.0514966887417219	0.00593377483443711	-2.2882119205298	-0.788079470198675	3.02251655629139				0.719788079470199	-0.238834437086093	-0.564238410596026	-1.09960264900662	-6.28238410596027	2.88529801324503			
160	3220	0.951841059602649	0.0667549668874172	-0.039523178807947	-0.246622516556291	4.3353642384106	-0.344900662251656				0.944953642384106	-0.0322119205298013	-0.130860927152318	11.6339072847682	3.38781456953642	3.33403973509934				0.949827814569536	-0.0492715231788079	-0.15194701986755	14.287417218543	2.94649006622517	0.91973509933775				0.560529801324503	-0.0805298013245033	-0.741721854304636	-0.0370860927152318	-2.3364238410596	2.74437086092715				0.932026490066225	0.0354966887417219	0.00593377483443711	1.6317880794702	1.17192052980133	1.90251655629139				0.687788079470199	-0.222834437086093	-0.564238410596026	0.580397350993377	-4.32238410596027	2.88529801324503			
161	3240	0.967841059602649	0.0667549668874172	-0.039523178807947	-1.36662251655629	3.7753642384106	-0.0649006622516557				0.912953642384106	-0.112211920529801	-0.162860927152318	6.31390728476821	8.42781456953642	1.93403973509934				0.965827814569536	-0.0652715231788079	-0.13594701986755	17.087417218543	5.18649006622517	0.63973509933775				0.576529801324503	-0.0645298013245033	-0.741721854304636	0.522913907284768	-0.0964238410596001	3.30437086092715				0.964026490066225	0.0354966887417219	-0.0260662251655629	-1.1682119205298	-0.228079470198675	2.18251655629139				0.703788079470199	-0.238834437086093	-0.564238410596026	2.82039735099338	-2.36238410596027	2.32529801324503			
162	3260	0.983841059602649	0.0667549668874172	-0.039523178807947	-3.60662251655629	2.6553642384106	-0.0649006622516557				0.976953642384106	-0.0322119205298013	-0.114860927152318	-4.32609271523179	7.86781456953642	3.61403973509934				0.981827814569536	-0.0652715231788079	-0.15194701986755	14.847417218543	8.26649006622517	-1.04026490066225				0.560529801324503	-0.112529801324503	-0.741721854304636	1.08291390728477	2.1435761589404	4.98437086092715				0.932026490066225	0.0194966887417219	0.0379337748344371	-2.8482119205298	2.85192052980133	1.62251655629139				0.703788079470199	-0.254834437086093	-0.548238410596027	1.70039735099338	-0.402384105960265	1.76529801324503			
163	3280	0.967841059602649	0.0667549668874172	-0.039523178807947	-6.12662251655629	0.415364238410596	-0.0649006622516557				0.944953642384106	-0.0162119205298013	-0.0668609271523178	-12.4460927152318	10.9478145695364	3.05403973509934				0.949827814569536	-0.0972715231788079	-0.15194701986755	6.72741721854305	11.0664900662252	-2.44026490066225				0.560529801324503	-0.112529801324503	-0.773721854304636	1.92291390728477	2.1435761589404	2.74437086092715				0.932026490066225	0.0354966887417219	0.00593377483443711	-2.8482119205298	4.53192052980133	0.502516556291392				0.703788079470199	-0.238834437086093	-0.548238410596027	1.70039735099338	0.437615894039735	-0.474701986754968			
164	3300	0.967841059602649	0.0827549668874172	-0.00752317880794696	-5.28662251655629	0.695364238410596	-0.624900662251656				0.928953642384106	-0.0482119205298013	-0.0988609271523179	-20.0060927152318	13.4678145695364	4.45403973509934				0.933827814569536	-0.0972715231788079	-0.18394701986755	-3.35258278145695	7.98649006622517	-1.04026490066225				0.576529801324503	-0.0965298013245033	-0.789721854304636	-0.877086092715232	2.9835761589404	-0.0556291390728476				0.948026490066225	0.0194966887417219	0.00593377483443711	-2.0082119205298	6.77192052980133	0.502516556291392				0.703788079470199	-0.238834437086093	-0.564238410596026	2.82039735099338	-1.24238410596026	-2.15470198675497			
165	3320	0.967841059602649	0.0667549668874172	-0.039523178807947	-8.08662251655629	-0.984635761589404	-0.0649006622516557				0.896953642384106	-0.160211920529801	-0.162860927152318	-22.5260927152318	21.5878145695364	3.89403973509934				0.965827814569536	-0.0812715231788079	-0.18394701986755	-12.592582781457	6.30649006622517	-1.32026490066225				0.592529801324503	-0.0805298013245033	-0.773721854304636	-1.71708609271523	3.8235761589404	-0.0556291390728476				0.948026490066225	0.0354966887417219	0.0379337748344371	-0.0482119205298018	5.93192052980133	-0.0574834437086077				0.719788079470199	-0.270834437086093	-0.564238410596026	1.42039735099338	-0.682384105960265	-1.59470198675497			
166	3340	0.967841059602649	0.0987549668874172	-0.039523178807947	-6.96662251655629	0.135364238410596	-0.344900662251656				0.992953642384106	-0.0322119205298013	-0.0348609271523178	-22.8060927152318	24.6678145695364	4.73403973509934				0.965827814569536	-0.0492715231788079	-0.18394701986755	-15.952582781457	4.06649006622517	-1.04026490066225				0.608529801324503	-0.0965298013245033	-0.757721854304636	-0.0370860927152318	2.7035761589404	1.34437086092715				0.964026490066225	0.0354966887417219	0.00593377483443711	-0.328211920529802	5.65192052980133	-0.617483443708608				0.735788079470199	-0.286834437086093	-0.564238410596026	5.90039735099338	1.55761589403974	-2.71470198675497			
167	3360	0.967841059602649	0.0987549668874172	-0.055523178807947	-6.96662251655629	0.695364238410596	-0.0649006622516557				0.992953642384106	-0.000211920529801304	-0.0348609271523178	-20.8460927152318	20.1878145695364	1.37403973509934				0.949827814569536	-0.0332715231788079	-0.23194701986755	-16.232582781457	-1.53350993377483	-1.04026490066225				0.608529801324503	-0.112529801324503	-0.773721854304636	-1.43708609271523	1.8635761589404	1.06437086092715				0.980026490066225	0.0354966887417219	0.0379337748344371	-0.888211920529802	7.05192052980133	-0.337483443708608				0.735788079470199	-0.302834437086093	-0.564238410596026	6.74039735099338	0.157615894039735	-2.99470198675497			
168	3380	0.983841059602649	0.130754966887417	-0.087523178807947	-5.00662251655629	2.3753642384106	-0.624900662251656				0.976953642384106	-0.000211920529801304	-0.0668609271523178	-11.0460927152318	14.3078145695364	0.25403973509934				0.933827814569536	-0.00127152317880793	-0.23194701986755	-13.712582781457	-2.09350993377483	1.75973509933775				0.608529801324503	-0.112529801324503	-0.773721854304636	-4.23708609271523	0.7435761589404	0.504370860927152				0.964026490066225	0.0354966887417219	0.0219337748344371	-1.4482119205298	5.65192052980133	-1.45748344370861				0.719788079470199	-0.286834437086093	-0.564238410596026	0.580397350993377	0.997615894039735	-1.87470198675497			
169	3400	0.967841059602649	0.130754966887417	-0.087523178807947	0.0333774834437086	0.695364238410596	-0.624900662251656				1.00895364238411	-0.0162119205298013	-0.0668609271523178	-1.24609271523179	14.3078145695364	0.25403973509934				0.949827814569536	-0.00127152317880793	-0.23194701986755	-13.712582781457	-2.93350993377483	2.59973509933775				0.608529801324503	-0.0805298013245033	-0.773721854304636	-5.63708609271523	1.3035761589404	0.224370860927152				0.980026490066225	0.0354966887417219	0.0219337748344371	0.791788079470198	5.37192052980133	-1.45748344370861				0.703788079470199	-0.270834437086093	-0.564238410596026	2.26039735099338	0.717615894039735	-1.87470198675497			
