No	Time	12-AccX	12-AccY	12-AccZ	12-GyroX	12-GyroY	12-GyroZ	13-AccX	13-AccY	13-AccZ	13-GyroX	13-GyroY	13-GyroZ	14-AccX	14-AccY	14-AccZ	14-GyroX	14-GyroY	14-GyroZ	15-AccX	15-AccY	15-AccZ	15-GyroX	15-GyroY	15-GyroZ	16-AccX	16-AccY	16-AccZ	16-GyroX	16-GyroY	16-GyroZ	17-AccX	17-AccY	17-AccZ	17-GyroX	17-GyroY	17-GyroZ
0	0	0	0	0	0	0	0				0	0	0	0	0	0				-0.250172185430464	-0.0812715231788079	-0.87194701986755	2.80741721854305	-0.133509933774833	-3.56026490066225				0	0	0	0	0	0				0.964026490066225	0.0994966887417219	0.133933774834437	-2.5682119205298	-0.788079470198675	-1.45748344370861				0.143788079470199	-0.350834437086093	-0.868238410596026	2.54039735099338	0.437615894039735	-1.87470198675497			
1	20	-0.264158940397351	0.226754966887417	-0.919523178807947	0.593377483443709	-1.8246357615894	-2.58490066225166				0.976953642384106	0.143788079470199	0.237139072847682	1.55390728476821	-1.37218543046358	-0.0259602649006601				-0.234172185430464	-0.0812715231788079	-0.88794701986755	3.08741721854305	0.426490066225167	-3.00026490066225				0.272529801324503	-0.0805298013245033	-0.933721854304636	-2.27708609271523	-5.4164238410596	-1.45562913907285				0.980026490066225	0.115496688741722	0.133933774834437	-1.4482119205298	-0.508079470198675	-1.73748344370861				0.143788079470199	-0.366834437086093	-0.884238410596026	1.70039735099338	1.83761589403974	-3.27470198675497			
2	40	-0.264158940397351	0.226754966887417	-0.935523178807947	0.313377483443709	-0.704635761589404	-2.30490066225166				0.960953642384106	0.143788079470199	0.237139072847682	-0.966092715231788	-2.49218543046358	-0.86596026490066				-0.250172185430464	-0.0812715231788079	-0.88794701986755	1.96741721854305	-0.133509933774833	-2.16026490066225				0.256529801324503	-0.0805298013245033	-0.949721854304636	-3.11708609271523	-2.8964238410596	-0.335629139072848				0.964026490066225	0.147496688741722	0.149933774834437	-1.4482119205298	-1.34807947019868	-1.17748344370861				0.127788079470199	-0.366834437086093	-0.868238410596026	0.300397350993377	2.11761589403974	-2.43470198675497			
3	60	-0.264158940397351	0.210754966887417	-0.919523178807947	0.0333774834437086	-0.144635761589404	-2.58490066225166				0.976953642384106	0.159788079470199	0.253139072847682	0.153907284768212	-0.532185430463576	-0.30596026490066				-0.266172185430464	-0.0812715231788079	-0.88794701986755	1.12741721854305	-0.413509933774833	-0.48026490066225				0.240529801324503	-0.0645298013245033	-0.933721854304636	-1.15708609271523	1.8635761589404	0.504370860927152				0.964026490066225	0.147496688741722	0.149933774834437	-0.888211920529802	-0.788079470198675	0.222516556291392				0.127788079470199	-0.366834437086093	-0.884238410596026	-1.93960264900662	1.55761589403974	-2.43470198675497			
4	80	-0.264158940397351	0.210754966887417	-0.919523178807947	0.313377483443709	0.695364238410596	-1.74490066225166				0.976953642384106	0.159788079470199	0.269139072847682	1.27390728476821	-1.37218543046358	1.09403973509934				-0.250172185430464	-0.0812715231788079	-0.87194701986755	3.08741721854305	0.426490066225167	-0.20026490066225				0.240529801324503	-0.0325298013245033	-0.917721854304636	-0.317086092715232	4.1035761589404	0.784370860927152				0.964026490066225	0.147496688741722	0.133933774834437	-1.1682119205298	0.331920529801325	-0.617483443708608				0.143788079470199	-0.366834437086093	-0.884238410596026	-1.37960264900662	2.39761589403974	-1.31470198675497			
5	100	-0.248158940397351	0.226754966887417	-0.919523178807947	0.313377483443709	0.975364238410596	-1.18490066225166				0.976953642384106	0.143788079470199	0.253139072847682	0.713907284768212	-2.21218543046358	1.93403973509934				-0.234172185430464	-0.0812715231788079	-0.88794701986755	2.52741721854305	0.426490066225167	0.63973509933775				0.272529801324503	-0.0485298013245033	-0.933721854304636	3.32291390728477	5.5035761589404	-0.335629139072848				0.948026490066225	0.131496688741722	0.149933774834437	0.511788079470198	1.73192052980133	-0.617483443708608				0.159788079470199	-0.350834437086093	-0.884238410596026	1.14039735099338	2.11761589403974	-1.31470198675497			
6	120	-0.248158940397351	0.210754966887417	-0.919523178807947	0.0333774834437086	1.2553642384106	-1.46490066225166				0.976953642384106	0.143788079470199	0.253139072847682	1.27390728476821	-3.33218543046358	1.93403973509934				-0.234172185430464	-0.0652715231788079	-0.88794701986755	1.40741721854305	0.426490066225167	0.35973509933775				0.272529801324503	-0.0805298013245033	-0.933721854304636	5.00291390728477	6.6235761589404	-0.615629139072848				0.964026490066225	0.115496688741722	0.149933774834437	1.3517880794702	1.17192052980133	0.222516556291392				0.159788079470199	-0.366834437086093	-0.900238410596026	4.78039735099338	1.55761589403974	-1.03470198675497			
7	140	-0.232158940397351	0.210754966887417	-0.919523178807947	0.0333774834437086	1.5353642384106	-0.344900662251656				0.960953642384106	0.159788079470199	0.237139072847682	1.27390728476821	-3.05218543046358	1.93403973509934				-0.234172185430464	-0.0812715231788079	-0.88794701986755	1.12741721854305	0.706490066225167	0.91973509933775				0.272529801324503	-0.0805298013245033	-0.933721854304636	1.36291390728477	6.6235761589404	-1.45562913907285				0.948026490066225	0.115496688741722	0.165933774834437	1.6317880794702	1.17192052980133	0.782516556291392				0.159788079470199	-0.366834437086093	-0.884238410596026	2.82039735099338	0.437615894039735	-0.754701986754968			
8	160	-0.248158940397351	0.210754966887417	-0.919523178807947	0.873377483443709	1.8153642384106	-0.0649006622516557				0.960953642384106	0.143788079470199	0.253139072847682	0.993907284768212	-0.532185430463576	1.65403973509934				-0.234172185430464	-0.0652715231788079	-0.88794701986755	1.68741721854305	0.426490066225167	0.91973509933775				0.256529801324503	-0.0805298013245033	-0.933721854304636	1.08291390728477	6.3435761589404	-1.17562913907285				0.948026490066225	0.115496688741722	0.149933774834437	2.7517880794702	1.17192052980133	1.62251655629139				0.159788079470199	-0.366834437086093	-0.884238410596026	0.580397350993377	-0.682384105960265	-0.474701986754968			
9	180	-0.248158940397351	0.210754966887417	-0.903523178807947	0.593377483443709	1.8153642384106	0.215099337748344				0.944953642384106	0.143788079470199	0.253139072847682	1.83390728476821	-1.65218543046358	1.65403973509934				-0.218172185430464	-0.0652715231788079	-0.88794701986755	1.96741721854305	0.986490066225167	0.35973509933775				0.256529801324503	-0.0645298013245033	-0.917721854304636	3.88291390728477	7.4635761589404	-1.17562913907285				0.948026490066225	0.131496688741722	0.165933774834437	2.4717880794702	1.17192052980133	1.90251655629139				0.159788079470199	-0.366834437086093	-0.852238410596026	0.860397350993377	-1.24238410596026	-0.474701986754968			
10	200	-0.232158940397351	0.226754966887417	-0.919523178807947	0.0333774834437086	0.415364238410596	-0.0649006622516557				0.944953642384106	0.143788079470199	0.237139072847682	1.55390728476821	-1.93218543046358	1.93403973509934				-0.234172185430464	-0.0812715231788079	-0.87194701986755	1.68741721854305	-0.133509933774833	0.0797350993377501				0.256529801324503	-0.0645298013245033	-0.917721854304636	5.00291390728477	6.6235761589404	0.224370860927152				0.932026490066225	0.115496688741722	0.149933774834437	1.9117880794702	1.17192052980133	2.18251655629139				0.143788079470199	-0.350834437086093	-0.836238410596026	2.26039735099338	-1.52238410596026	-1.59470198675497			
11	220	-0.232158940397351	0.242754966887417	-0.919523178807947	-0.526622516556291	0.415364238410596	0.215099337748344				0.944953642384106	0.143788079470199	0.237139072847682	0.993907284768212	0.307814569536424	1.65403973509934				-0.234172185430464	-0.0652715231788079	-0.87194701986755	0.287417218543046	0.426490066225167	0.35973509933775				0.256529801324503	-0.0805298013245033	-0.917721854304636	5.56291390728477	3.2635761589404	-1.17562913907285				0.948026490066225	0.115496688741722	0.149933774834437	2.4717880794702	0.891920529801325	1.34251655629139				0.159788079470199	-0.366834437086093	-0.852238410596026	3.10039735099338	-0.962384105960265	-1.31470198675497			
12	240	-0.232158940397351	0.226754966887417	-0.903523178807947	-0.526622516556291	0.135364238410596	-0.0649006622516557				0.944953642384106	0.143788079470199	0.237139072847682	1.83390728476821	1.42781456953642	1.37403973509934				-0.234172185430464	-0.0652715231788079	-0.88794701986755	0.567417218543046	-0.133509933774833	-0.20026490066225				0.288529801324503	-0.0965298013245033	-0.949721854304636	5.28291390728477	0.7435761589404	-1.17562913907285				0.932026490066225	0.131496688741722	0.165933774834437	2.4717880794702	3.41192052980132	0.222516556291392				0.143788079470199	-0.366834437086093	-0.852238410596026	4.78039735099338	-0.962384105960265	-1.31470198675497			
13	260	-0.248158940397351	0.242754966887417	-0.919523178807947	-1.08662251655629	-0.424635761589404	-0.344900662251656				0.960953642384106	0.143788079470199	0.237139072847682	3.51390728476821	2.26781456953642	1.09403973509934				-0.250172185430464	-0.0492715231788079	-0.88794701986755	1.40741721854305	-0.413509933774833	-1.04026490066225				0.288529801324503	-0.112529801324503	-0.949721854304636	1.64291390728477	-1.2164238410596	-1.45562913907285				0.932026490066225	0.115496688741722	0.149933774834437	-0.328211920529802	-0.508079470198675	0.782516556291392				0.127788079470199	-0.382834437086093	-0.836238410596026	5.06039735099338	0.717615894039735	-3.27470198675497			
14	280	-0.248158940397351	0.242754966887417	-0.919523178807947	-0.246622516556291	-0.424635761589404	-0.0649006622516557				0.960953642384106	0.159788079470199	0.253139072847682	3.51390728476821	1.14781456953642	1.09403973509934				-0.234172185430464	-0.0652715231788079	-0.88794701986755	1.40741721854305	-0.133509933774833	-1.32026490066225				0.256529801324503	-0.0805298013245033	-0.949721854304636	-1.71708609271523	-3.7364238410596	-4.53562913907285				0.948026490066225	0.0994966887417219	0.149933774834437	0.511788079470198	1.45192052980132	-0.337483443708608				0.127788079470199	-0.366834437086093	-0.836238410596026	0.860397350993377	1.83761589403974	-2.71470198675497			
15	300	-0.248158940397351	0.226754966887417	-0.919523178807947	-0.246622516556291	-0.424635761589404	-0.624900662251656				0.944953642384106	0.159788079470199	0.221139072847682	1.27390728476821	5.06781456953642	0.53403973509934				-0.234172185430464	-0.0652715231788079	-0.88794701986755	2.52741721854305	0.426490066225167	-1.60026490066225				0.256529801324503	-0.0805298013245033	-0.949721854304636	-3.39708609271523	-1.4964238410596	-5.09562913907285				0.948026490066225	0.131496688741722	0.149933774834437	0.791788079470198	2.29192052980133	-1.73748344370861				0.127788079470199	-0.350834437086093	-0.836238410596026	0.300397350993377	1.83761589403974	-3.55470198675497			
16	320	-0.248158940397351	0.242754966887417	-0.919523178807947	-0.246622516556291	-0.424635761589404	-0.0649006622516557				0.976953642384106	0.175788079470199	0.285139072847682	0.153907284768212	5.90781456953642	0.25403973509934				-0.250172185430464	-0.0652715231788079	-0.88794701986755	2.24741721854305	-0.133509933774833	-1.60026490066225				0.256529801324503	-0.0805298013245033	-0.933721854304636	-2.83708609271523	-1.7764238410596	-5.09562913907285				0.948026490066225	0.147496688741722	0.149933774834437	1.9117880794702	4.81192052980133	-1.73748344370861				0.127788079470199	-0.350834437086093	-0.868238410596026	2.54039735099338	3.51761589403974	-5.51470198675497			
17	340	-0.248158940397351	0.226754966887417	-0.919523178807947	0.593377483443709	0.695364238410596	-0.624900662251656				0.992953642384106	0.159788079470199	0.269139072847682	0.433907284768212	1.70781456953642	1.93403973509934				-0.250172185430464	-0.0652715231788079	-0.88794701986755	1.68741721854305	-0.413509933774833	-0.76026490066225				0.272529801324503	-0.0805298013245033	-0.917721854304636	-3.39708609271523	1.0235761589404	-4.81562913907285				0.948026490066225	0.115496688741722	0.149933774834437	3.5917880794702	3.41192052980132	-0.897483443708608				0.159788079470199	-0.382834437086093	-0.868238410596026	2.82039735099338	3.51761589403974	-6.63470198675497			
18	360	-0.248158940397351	0.226754966887417	-0.919523178807947	0.593377483443709	1.2553642384106	0.495099337748344				0.976953642384106	0.143788079470199	0.253139072847682	0.993907284768212	1.42781456953642	0.81403973509934				-0.234172185430464	-0.0812715231788079	-0.88794701986755	2.24741721854305	0.706490066225167	-0.76026490066225				0.272529801324503	-0.0645298013245033	-0.933721854304636	-0.317086092715232	4.1035761589404	-3.41562913907285				0.964026490066225	0.147496688741722	0.149933774834437	2.7517880794702	4.81192052980133	-2.57748344370861				0.191788079470199	-0.382834437086093	-0.884238410596026	1.42039735099338	4.63761589403974	-6.63470198675497			
19	380	-0.248158940397351	0.210754966887417	-0.919523178807947	-0.246622516556291	1.8153642384106	-0.0649006622516557				0.960953642384106	0.143788079470199	0.253139072847682	1.27390728476821	3.38781456953642	1.37403973509934				-0.250172185430464	-0.0972715231788079	-0.88794701986755	2.80741721854305	0.986490066225167	-1.04026490066225				0.240529801324503	-0.0645298013245033	-0.949721854304636	0.522913907284768	6.3435761589404	-3.41562913907285				0.964026490066225	0.147496688741722	0.165933774834437	3.0317880794702	2.57192052980133	-1.17748344370861				0.191788079470199	-0.366834437086093	-0.884238410596026	0.300397350993377	4.35761589403974	-6.35470198675497			
20	400	-0.248158940397351	0.210754966887417	-0.903523178807947	-0.806622516556291	1.5353642384106	0.215099337748344				0.960953642384106	0.159788079470199	0.269139072847682	0.993907284768212	2.54781456953642	2.21403973509934				-0.250172185430464	-0.0972715231788079	-0.88794701986755	3.08741721854305	0.706490066225167	-1.60026490066225				0.256529801324503	-0.0645298013245033	-0.917721854304636	1.36291390728477	7.4635761589404	-2.57562913907285				0.948026490066225	0.131496688741722	0.165933774834437	3.8717880794702	4.25192052980133	-0.337483443708608				0.175788079470199	-0.382834437086093	-0.884238410596026	2.82039735099338	4.35761589403974	-4.67470198675497			
21	420	-0.248158940397351	0.226754966887417	-0.919523178807947	-0.526622516556291	1.5353642384106	-0.0649006622516557				0.960953642384106	0.159788079470199	0.269139072847682	-0.406092715231788	1.98781456953642	2.21403973509934				-0.234172185430464	-0.0812715231788079	-0.88794701986755	1.96741721854305	1.82649006622517	-1.04026490066225				0.256529801324503	-0.0645298013245033	-0.917721854304636	1.36291390728477	6.3435761589404	-3.13562913907285				0.948026490066225	0.131496688741722	0.165933774834437	1.3517880794702	3.41192052980132	-0.617483443708608				0.191788079470199	-0.382834437086093	-0.852238410596026	3.66039735099338	3.51761589403974	-3.27470198675497			
22	440	-0.248158940397351	0.210754966887417	-0.919523178807947	-1.08662251655629	2.3753642384106	-0.344900662251656				0.960953642384106	0.143788079470199	0.253139072847682	0.153907284768212	0.867814569536424	2.49403973509934				-0.234172185430464	-0.0812715231788079	-0.87194701986755	2.24741721854305	1.54649006622517	-0.48026490066225				0.256529801324503	-0.0645298013245033	-0.933721854304636	0.802913907284768	4.9435761589404	-2.29562913907285				0.948026490066225	0.131496688741722	0.165933774834437	-0.328211920529802	3.69192052980133	0.502516556291392				0.191788079470199	-0.382834437086093	-0.868238410596026	2.54039735099338	3.51761589403974	-2.71470198675497			
23	460	-0.248158940397351	0.226754966887417	-0.903523178807947	-0.526622516556291	1.8153642384106	0.775099337748344				0.944953642384106	0.143788079470199	0.237139072847682	1.83390728476821	0.867814569536424	2.49403973509934				-0.234172185430464	-0.0812715231788079	-0.87194701986755	3.08741721854305	0.426490066225167	0.0797350993377501				0.272529801324503	-0.0965298013245033	-0.933721854304636	0.802913907284768	4.1035761589404	-0.0556291390728476				0.932026490066225	0.115496688741722	0.165933774834437	-0.328211920529802	4.25192052980133	1.62251655629139				0.175788079470199	-0.366834437086093	-0.852238410596026	3.94039735099338	4.63761589403974	-2.43470198675497			
24	480	-0.232158940397351	0.226754966887417	-0.903523178807947	-0.806622516556291	1.2553642384106	0.495099337748344				0.944953642384106	0.159788079470199	0.237139072847682	3.79390728476821	0.587814569536424	2.49403973509934				-0.234172185430464	-0.0812715231788079	-0.87194701986755	3.08741721854305	-0.413509933774833	0.0797350993377501				0.256529801324503	-0.0965298013245033	-0.949721854304636	-0.877086092715232	2.7035761589404	0.784370860927152				0.932026490066225	0.115496688741722	0.165933774834437	-0.888211920529802	4.53192052980133	0.502516556291392				0.175788079470199	-0.382834437086093	-0.852238410596026	8.14039735099338	5.19761589403974	-3.27470198675497			
25	500	-0.248158940397351	0.226754966887417	-0.903523178807947	-1.36662251655629	0.695364238410596	-0.0649006622516557				0.944953642384106	0.159788079470199	0.237139072847682	4.63390728476821	0.867814569536424	1.37403973509934				-0.250172185430464	-0.0812715231788079	-0.88794701986755	3.92741721854305	-0.133509933774833	1.19973509933775				0.256529801324503	-0.0645298013245033	-0.933721854304636	-3.95708609271523	1.0235761589404	0.504370860927152				0.948026490066225	0.115496688741722	0.149933774834437	-2.5682119205298	3.13192052980133	0.502516556291392				0.175788079470199	-0.382834437086093	-0.836238410596026	4.78039735099338	5.47761589403974	-2.15470198675497			
26	520	-0.248158940397351	0.226754966887417	-0.919523178807947	-0.806622516556291	1.5353642384106	1.33509933774834				0.944953642384106	0.159788079470199	0.237139072847682	2.11390728476821	2.54781456953642	2.77403973509934				-0.234172185430464	-0.0812715231788079	-0.88794701986755	3.64741721854305	0.706490066225167	0.35973509933775				0.272529801324503	-0.0325298013245033	-0.917721854304636	-1.99708609271523	-0.0964238410596001	2.74437086092715				0.932026490066225	0.163496688741722	0.165933774834437	-2.5682119205298	4.25192052980133	0.782516556291392				0.159788079470199	-0.366834437086093	-0.852238410596026	1.98039735099338	5.19761589403974	-1.03470198675497			
27	540	-0.248158940397351	0.242754966887417	-0.919523178807947	-1.36662251655629	2.6553642384106	-0.624900662251656				0.960953642384106	0.127788079470199	0.253139072847682	0.153907284768212	7.02781456953642	1.93403973509934				-0.234172185430464	-0.0652715231788079	-0.87194701986755	3.36741721854305	0.426490066225167	-0.20026490066225				0.272529801324503	-0.0805298013245033	-0.933721854304636	1.64291390728477	2.1435761589404	3.30437086092715				0.932026490066225	0.147496688741722	0.181933774834437	-2.0082119205298	4.81192052980133	0.502516556291392				0.159788079470199	-0.366834437086093	-0.836238410596026	3.38039735099338	7.15761589403974	-0.474701986754968			
28	560	-0.248158940397351	0.258754966887417	-0.919523178807947	-1.64662251655629	2.0953642384106	-0.344900662251656				0.976953642384106	0.159788079470199	0.285139072847682	-2.36609271523179	6.74781456953642	1.37403973509934				-0.250172185430464	-0.0812715231788079	-0.87194701986755	3.36741721854305	0.426490066225167	-0.20026490066225				0.256529801324503	-0.0805298013245033	-0.933721854304636	-0.597086092715232	3.8235761589404	3.02437086092715				0.964026490066225	0.0994966887417219	0.181933774834437	-2.8482119205298	3.69192052980133	1.34251655629139				0.159788079470199	-0.414834437086093	-0.852238410596026	5.34039735099338	10.2376158940397	-0.754701986754968			
29	580	-0.232158940397351	0.242754966887417	-0.919523178807947	-1.64662251655629	2.6553642384106	-0.344900662251656				0.960953642384106	0.143788079470199	0.285139072847682	-2.08609271523179	3.66781456953642	1.09403973509934				-0.250172185430464	-0.0812715231788079	-0.88794701986755	3.08741721854305	0.706490066225167	0.0797350993377501				0.256529801324503	-0.0965298013245033	-0.949721854304636	-2.55708609271523	4.1035761589404	2.46437086092715				0.964026490066225	0.0994966887417219	0.181933774834437	-4.8082119205298	3.41192052980132	1.62251655629139				0.175788079470199	-0.414834437086093	-0.852238410596026	2.26039735099338	12.1976158940397	-2.15470198675497			
30	600	-0.216158940397351	0.226754966887417	-0.919523178807947	-0.246622516556291	2.6553642384106	-0.344900662251656				0.944953642384106	0.159788079470199	0.269139072847682	-1.24609271523179	1.98781456953642	0.81403973509934				-0.234172185430464	-0.0972715231788079	-0.88794701986755	3.64741721854305	0.986490066225167	-0.48026490066225				0.240529801324503	-0.0965298013245033	-0.965721854304636	-1.15708609271523	4.6635761589404	1.90437086092715				0.964026490066225	0.0834966887417219	0.133933774834437	-7.0482119205298	3.13192052980133	0.782516556291392				0.191788079470199	-0.382834437086093	-0.868238410596026	-2.21960264900662	12.4776158940397	-1.03470198675497			
31	620	-0.232158940397351	0.226754966887417	-0.919523178807947	-0.806622516556291	1.2553642384106	-1.18490066225166				0.944953642384106	0.143788079470199	0.253139072847682	-0.406092715231788	2.26781456953642	0.81403973509934				-0.218172185430464	-0.0812715231788079	-0.87194701986755	3.36741721854305	0.426490066225167	-0.76026490066225				0.256529801324503	-0.0965298013245033	-0.933721854304636	-5.63708609271523	1.5835761589404	1.06437086092715				0.932026490066225	0.115496688741722	0.117933774834437	-7.3282119205298	3.97192052980133	-0.617483443708608				0.175788079470199	-0.366834437086093	-0.852238410596026	1.70039735099338	11.0776158940397	-0.194701986754968			
32	640	-0.232158940397351	0.226754966887417	-0.919523178807947	-1.64662251655629	0.975364238410596	-0.624900662251656				0.944953642384106	0.143788079470199	0.221139072847682	-2.36609271523179	6.74781456953642	0.25403973509934				-0.218172185430464	-0.0972715231788079	-0.88794701986755	4.48741721854305	0.426490066225167	-0.48026490066225				0.224529801324503	-0.128529801324503	-0.933721854304636	-7.87708609271523	2.4235761589404	1.06437086092715				0.916026490066225	0.0994966887417219	0.117933774834437	-7.3282119205298	5.93192052980133	-1.45748344370861				0.159788079470199	-0.350834437086093	-0.852238410596026	7.86039735099338	10.2376158940397	-0.194701986754968			
33	660	-0.232158940397351	0.226754966887417	-0.935523178807947	-2.48662251655629	0.135364238410596	-0.0649006622516557				0.944953642384106	0.159788079470199	0.253139072847682	-4.04609271523179	9.82781456953643	-1.70596026490066				-0.234172185430464	-0.0812715231788079	-0.88794701986755	4.20741721854305	0.146490066225167	-1.04026490066225				0.224529801324503	-0.112529801324503	-0.917721854304636	-12.0770860927152	4.6635761589404	-0.895629139072848				0.932026490066225	0.115496688741722	0.149933774834437	-6.2082119205298	8.73192052980133	-2.29748344370861				0.127788079470199	-0.382834437086093	-0.836238410596026	6.18039735099338	11.9176158940397	0.0852980132450323			
34	680	-0.248158940397351	0.226754966887417	-0.919523178807947	-1.92662251655629	0.415364238410596	-0.0649006622516557				0.960953642384106	0.159788079470199	0.269139072847682	-2.08609271523179	11.5078145695364	-1.42596026490066				-0.250172185430464	-0.0652715231788079	-0.88794701986755	5.32741721854305	0.146490066225167	-1.60026490066225				0.240529801324503	-0.0485298013245033	-0.901721854304636	-12.6370860927152	9.7035761589404	-0.895629139072848				0.932026490066225	0.147496688741722	0.117933774834437	-4.5282119205298	11.5319205298013	-2.57748344370861				0.0957880794701987	-0.366834437086093	-0.852238410596026	-1.09960264900662	13.3176158940397	1.76529801324503			
35	700	-0.248158940397351	0.226754966887417	-0.919523178807947	-0.806622516556291	1.2553642384106	0.775099337748344				0.944953642384106	0.159788079470199	0.269139072847682	1.83390728476821	13.7478145695364	1.09403973509934				-0.250172185430464	-0.0652715231788079	-0.87194701986755	6.16741721854305	-0.133509933774833	-0.76026490066225				0.240529801324503	-0.0485298013245033	-0.933721854304636	-5.35708609271523	13.9035761589404	-2.29562913907285				0.964026490066225	0.131496688741722	0.133933774834437	-2.2882119205298	14.8919205298013	-2.29748344370861				0.111788079470199	-0.334834437086093	-0.884238410596026	-1.37960264900662	14.4376158940397	1.48529801324503			
36	720	-0.264158940397351	0.226754966887417	-0.903523178807947	-2.48662251655629	2.3753642384106	1.61509933774834				0.944953642384106	0.127788079470199	0.237139072847682	1.83390728476821	18.2278145695364	3.05403973509934				-0.234172185430464	-0.113271523178808	-0.88794701986755	5.04741721854305	-0.413509933774833	-0.20026490066225				0.240529801324503	-0.0645298013245033	-0.917721854304636	0.802913907284768	18.9435761589404	-6.49562913907285				0.932026490066225	0.0834966887417219	0.133933774834437	-2.8482119205298	16.5719205298013	-2.85748344370861				0.127788079470199	-0.318834437086093	-0.884238410596026	7.02039735099338	15.5576158940397	-2.15470198675497			
37	740	-0.248158940397351	0.258754966887417	-0.919523178807947	-1.92662251655629	1.8153642384106	3.29509933774834				0.944953642384106	0.111788079470199	0.205139072847682	-0.686092715231788	22.4278145695364	1.37403973509934				-0.186172185430464	-0.113271523178808	-0.87194701986755	3.64741721854305	0.706490066225167	-0.76026490066225				0.288529801324503	-0.0485298013245033	-0.869721854304636	-3.95708609271523	16.1435761589404	-6.21562913907285				0.980026490066225	0.115496688741722	0.165933774834437	-2.2882119205298	17.1319205298013	-3.97748344370861				0.111788079470199	-0.366834437086093	-0.900238410596026	10.3803973509934	15.2776158940397	-4.67470198675497			
38	760	-0.248158940397351	0.226754966887417	-0.919523178807947	-0.246622516556291	4.6153642384106	5.81509933774834				0.896953642384106	0.127788079470199	0.205139072847682	-3.20609271523179	21.3078145695364	0.53403973509934				-0.218172185430464	-0.0972715231788079	-0.87194701986755	3.64741721854305	-0.693509933774834	-0.76026490066225				0.272529801324503	-0.0165298013245033	-0.949721854304636	1.08291390728477	16.4235761589404	-5.93562913907285				0.980026490066225	0.147496688741722	0.149933774834437	-5.6482119205298	10.9719205298013	0.502516556291392				0.111788079470199	-0.382834437086093	-0.900238410596026	7.86039735099338	20.3176158940397	-2.99470198675497			
39	780	-0.232158940397351	0.210754966887417	-0.887523178807947	-5.56662251655629	2.9353642384106	6.37509933774834				0.912953642384106	0.0957880794701987	0.253139072847682	-9.64609271523179	27.7478145695364	-1.42596026490066				-0.234172185430464	-0.0972715231788079	-0.87194701986755	2.80741721854305	-1.25350993377483	-0.76026490066225				0.256529801324503	-0.0485298013245033	-0.901721854304636	0.802913907284768	24.5435761589404	-3.97562913907285				0.916026490066225	0.131496688741722	0.0859337748344371	-2.5682119205298	4.53192052980133	5.54251655629139				0.159788079470199	-0.334834437086093	-0.868238410596026	-0.259602649006623	22.8376158940397	-0.194701986754968			
40	800	-0.248158940397351	0.178754966887417	-0.903523178807947	-3.32662251655629	-1.2646357615894	4.69509933774834				0.912953642384106	0.111788079470199	0.269139072847682	-13.0060927152318	31.6678145695364	-1.98596026490066				-0.250172185430464	-0.113271523178808	-0.88794701986755	1.12741721854305	-0.133509933774833	-0.76026490066225				0.224529801324503	-0.0645298013245033	-0.885721854304636	3.88291390728477	16.7035761589404	-5.93562913907285				0.868026490066225	0.147496688741722	0.117933774834437	3.3117880794702	9.57192052980133	4.70251655629139				0.175788079470199	-0.286834437086093	-0.868238410596026	1.70039735099338	16.6776158940397	5.12529801324503			
41	820	-0.232158940397351	0.194754966887417	-0.919523178807947	-8.36662251655629	0.975364238410596	2.17509933774834				0.880953642384106	0.143788079470199	0.253139072847682	-6.28609271523179	40.6278145695364	2.77403973509934				-0.266172185430464	-0.145271523178808	-0.85594701986755	1.96741721854305	0.146490066225167	-0.48026490066225				0.160529801324503	-0.0645298013245033	-0.917721854304636	1.08291390728477	14.4635761589404	-6.77562913907285				0.884026490066225	0.115496688741722	0.101933774834437	2.4717880794702	13.2119205298013	4.42251655629139				0.175788079470199	-0.286834437086093	-0.836238410596026	7.86039735099338	11.3576158940397	6.24529801324503			
42	840	-0.248158940397351	0.210754966887417	-0.919523178807947	-8.36662251655629	0.135364238410596	1.89509933774834				0.912953642384106	0.143788079470199	0.285139072847682	-1.52609271523179	52.3878145695364	7.53403973509934				-0.266172185430464	-0.145271523178808	-0.87194701986755	2.24741721854305	-3.21350993377483	-1.32026490066225				0.0645298013245033	-0.144529801324503	-0.949721854304636	-4.51708609271523	15.8635761589404	-7.05562913907285				0.884026490066225	0.0834966887417219	0.101933774834437	-1.7282119205298	19.3719205298013	2.74251655629139				0.175788079470199	-0.334834437086093	-0.836238410596026	5.34039735099338	6.87761589403974	5.96529801324503			
43	860	-0.232158940397351	0.242754966887417	-0.903523178807947	-9.20662251655629	0.695364238410596	1.33509933774834				0.912953642384106	0.159788079470199	0.301139072847682	-4.88609271523179	56.3078145695364	9.77403973509934				-0.234172185430464	-0.129271523178808	-0.88794701986755	4.20741721854305	-1.53350993377483	-1.04026490066225				0.160529801324503	-0.0805298013245033	-0.949721854304636	-9.27708609271523	16.9835761589404	-3.41562913907285				0.884026490066225	0.131496688741722	0.149933774834437	-4.5282119205298	28.8919205298013	0.782516556291392				0.175788079470199	-0.334834437086093	-0.852238410596026	8.14039735099338	4.91761589403974	8.20529801324503			
44	880	-0.248158940397351	0.242754966887417	-0.871523178807947	-11.1666225165563	0.695364238410596	1.05509933774834				0.928953642384106	0.127788079470199	0.365139072847682	-16.0860927152318	60.7878145695364	11.7340397350993				-0.218172185430464	-0.113271523178808	-0.88794701986755	-0.832582781456954	-1.53350993377483	-0.76026490066225				0.208529801324503	-0.112529801324503	-0.869721854304636	-12.6370860927152	15.8635761589404	-3.69562913907285				0.948026490066225	0.0674966887417219	0.133933774834437	-9.5682119205298	30.2919205298013	-1.17748344370861				0.223788079470199	-0.350834437086093	-0.804238410596027	14.3003973509934	16.9576158940397	5.12529801324503			
45	900	-0.248158940397351	0.258754966887417	-0.903523178807947	-9.48662251655629	-1.2646357615894	0.215099337748344				0.928953642384106	0.127788079470199	0.493139072847682	-23.6460927152318	56.0278145695364	9.77403973509934				-0.234172185430464	-0.0812715231788079	-0.91994701986755	-4.75258278145695	-3.21350993377483	-2.44026490066225				0.368529801324503	0.0154701986754967	-0.885721854304636	-4.23708609271523	6.6235761589404	-1.45562913907285				0.948026490066225	0.0994966887417219	0.277933774834437	-5.0882119205298	33.0919205298013	0.782516556291392				0.271788079470199	-0.382834437086093	-0.852238410596026	18.5003973509934	24.7976158940397	4.84529801324503			
46	920	-0.248158940397351	0.274754966887417	-0.903523178807947	-9.76662251655629	-0.424635761589404	0.215099337748344				0.928953642384106	0.143788079470199	0.461139072847682	-20.8460927152318	48.7478145695364	6.97403973509934				-0.250172185430464	-0.0332715231788079	-0.90394701986755	1.68741721854305	0.146490066225167	-4.68026490066225				0.480529801324503	-0.000529801324503289	-0.853721854304636	5.56291390728477	1.3035761589404	0.504370860927152				0.916026490066225	0.163496688741722	0.325933774834437	-8.4482119205298	26.9319205298013	2.18251655629139				0.335788079470199	-0.414834437086093	-0.820238410596026	28.8603973509934	26.4776158940397	6.52529801324503			
47	940	-0.216158940397351	0.274754966887417	-0.903523178807947	-7.24662251655629	0.415364238410596	0.775099337748344				0.944953642384106	0.191788079470199	0.413139072847682	-16.0860927152318	53.5078145695364	5.57403973509934				-0.266172185430464	-0.0172715231788079	-0.90394701986755	5.60741721854305	0.426490066225167	-4.96026490066225				0.560529801324503	0.0154701986754967	-0.901721854304636	-1.15708609271523	2.9835761589404	-2.57562913907285				0.884026490066225	0.211496688741722	0.341933774834437	-0.608211920529802	27.2119205298013	4.42251655629139				0.351788079470199	-0.414834437086093	-0.820238410596026	24.1003973509934	21.1576158940397	7.08529801324503			
48	960	0	0	0	0	0	0				0.928953642384106	0.287788079470199	0.493139072847682	-1.24609271523179	45.3878145695364	9.49403973509934				-0.330172185430464	-0.0172715231788079	-0.90394701986755	7.28741721854305	1.82649006622517	-4.96026490066225				0.640529801324503	0.159470198675497	-0.917721854304636	-10.3970860927152	-2.0564238410596	-3.69562913907285				0	0	0	0	0	0				0	0	0	0	0	0			
49	980	-0.200158940397351	0.306754966887417	-0.919523178807947	-2.76662251655629	-1.8246357615894	4.41509933774834				0.944953642384106	0.287788079470199	0.605139072847682	4.35390728476821	41.4678145695364	18.1740397350993				-0.330172185430464	0.0147284768211921	-0.88794701986755	15.967417218543	4.62649006622517	-1.88026490066225				0.544529801324503	0.0474701986754967	-0.885721854304636	-7.31708609271523	-2.6164238410596	2.18437086092715				0.820026490066225	0.403496688741722	0.373933774834437	11.1517880794702	34.4919205298013	3.58251655629139				0.463788079470199	-0.462834437086093	-0.868238410596026	8.70039735099338	14.7176158940397	8.20529801324503			
50	1000	-0.216158940397351	0.322754966887417	-0.887523178807947	5.63337748344371	3.2153642384106	4.69509933774834				0.848953642384106	0.319788079470199	0.669139072847682	3.23390728476821	37.5478145695364	20.1340397350993				-0.282172185430464	-0.0492715231788079	-0.91994701986755	15.967417218543	5.74649006622517	-2.16026490066225				0.752529801324503	0.0794701986754967	-1.02972185430464	-15.7170860927152	-0.9364238410596	3.02437086092715				0.868026490066225	0.483496688741722	0.405933774834437	14.7917880794702	52.9719205298013	0.782516556291392				0.351788079470199	-0.398834437086093	-0.820238410596026	9.54039735099338	11.3576158940397	4.56529801324503			
51	1020	-0.152158940397351	0.306754966887417	-0.903523178807947	7.31337748344371	3.4953642384106	4.97509933774835				0.880953642384106	0.239788079470199	0.621139072847682	2.11390728476821	35.3078145695364	30.2140397350993				-0.154172185430464	-0.145271523178808	-1.03194701986755	4.48741721854305	10.5064900662252	-8.60026490066225				0.576529801324503	0.0154701986754967	-1.06172185430464	-26.6370860927152	26.7835761589404	3.30437086092715				0.916026490066225	0.387496688741722	0.437933774834437	32.9917880794702	57.7319205298013	0.222516556291392				0.287788079470199	-0.414834437086093	-0.804238410596027	8.42039735099338	9.95761589403974	-1.03470198675497			
52	1040	-0.120158940397351	0.338754966887417	-0.887523178807947	12.0733774834437	0.135364238410596	4.97509933774835				0.736953642384106	0.191788079470199	0.621139072847682	3.51390728476821	24.3878145695364	39.4540397350993				-0.106172185430464	-0.193271523178808	-1.03194701986755	24.3674172185431	6.86649006622517	-26.2402649006623				0.464529801324503	0.0794701986754967	-0.933721854304636	-27.1970860927152	31.2635761589404	4.42437086092715				0.932026490066225	0.179496688741722	0.389933774834437	31.5917880794702	49.3319205298013	-2.57748344370861				0.319788079470199	-0.446834437086093	-0.740238410596026	13.7403973509934	1.83761589403974	7.64529801324503			
53	1060	-0.088158940397351	0.322754966887417	-0.887523178807947	13.1933774834437	-6.5846357615894	4.13509933774834				0.672953642384106	0.143788079470199	0.525139072847682	-5.72609271523179	32.7878145695364	42.8140397350993				-0.0581721854304636	-0.145271523178808	-0.79194701986755	52.6474172185431	8.26649006622517	-25.6802649006623				0.240529801324503	-0.000529801324503289	-0.821721854304636	-24.6770860927152	17.2635761589404	10.5843708609272				0.884026490066225	0.0194966887417219	0.293933774834437	32.7117880794702	27.2119205298013	-4.81748344370861				0.255788079470199	-0.478834437086093	-0.708238410596026	-5.85960264900662	0.717615894039735	21.365298013245			
54	1080	-0.104158940397351	0.306754966887417	-0.871523178807947	18.2333774834437	-11.0646357615894	1.61509933774834				0.688953642384106	0.111788079470199	0.397139072847682	3.23390728476821	32.2278145695364	49.5340397350993				-0.122172185430464	0.0147284768211921	-0.75994701986755	35.007417218543	-10.7735099337748	-17.5602649006623				0.160529801324503	-0.0165298013245033	-0.789721854304636	-22.4370860927152	-4.5764238410596	12.8243708609272				0.772026490066225	0.0514966887417219	0.245933774834437	24.8717880794702	17.1319205298013	-8.73748344370861				0.255788079470199	-0.430834437086093	-0.644238410596026	-20.6996026490066	-7.40238410596027	23.325298013245			
55	1100	-0.184158940397351	0.274754966887417	-0.871523178807947	18.7933774834437	-13.5846357615894	-1.18490066225166				0.704953642384106	0.0317880794701987	0.397139072847682	-0.966092715231788	46.5078145695364	48.4140397350993				-0.218172185430464	-0.00127152317880793	-0.77594701986755	27.1674172185431	-7.97350993377484	-6.64026490066225				0.112529801324503	-0.0805298013245033	-0.837721854304636	-21.5970860927152	-14.9364238410596	6.66437086092715				0.772026490066225	-0.0125033112582781	0.277933774834437	26.5517880794702	21.0519205298013	-10.6974834437086				0.271788079470199	-0.382834437086093	-0.724238410596026	-12.8596026490066	-8.24238410596027	26.685298013245			
56	1120	-0.296158940397351	0.290754966887417	-0.903523178807947	17.6733774834437	-14.4246357615894	-5.10490066225166				0.720953642384106	-0.0482119205298013	0.573139072847682	-4.88609271523179	58.5478145695364	35.5340397350993				-0.314172185430464	-0.145271523178808	-0.85594701986755	32.4874172185431	-5.17350993377483	0.0797350993377501				0.144529801324503	-0.0805298013245033	-0.773721854304636	-35.5970860927152	-15.7764238410596	8.62437086092715				0.756026490066225	0.0194966887417219	0.389933774834437	26.2717880794702	24.4119205298013	-6.49748344370861				0.271788079470199	-0.366834437086093	-0.708238410596026	3.38039735099338	-6.56238410596027	25.845298013245			
57	1140	-0.344158940397351	0.322754966887417	-0.919523178807947	14.5933774834437	-13.0246357615894	-5.66490066225166				0.912953642384106	0.0477880794701987	0.653139072847682	-10.2060927152318	61.6278145695364	26.8540397350993				-0.346172185430464	-0.225271523178808	-0.83994701986755	41.1674172185431	-1.25350993377483	1.47973509933775				0.144529801324503	-0.0325298013245033	-0.757721854304636	-39.2370860927152	-13.8164238410596	11.7043708609272				0.740026490066225	0.0194966887417219	0.485933774834437	14.7917880794702	31.4119205298013	-5.65748344370861				0.271788079470199	-0.430834437086093	-0.724238410596026	27.7403973509934	1.83761589403974	20.525298013245			
58	1160	-0.344158940397351	0.274754966887417	-0.855523178807947	9.27337748344371	-4.6246357615894	-8.46490066225166				0.912953642384106	0.0477880794701987	0.765139072847682	-4.88609271523179	59.1078145695364	26.5740397350993				-0.346172185430464	-0.241271523178808	-0.88794701986755	25.4874172185431	2.38649006622517	4.27973509933775				0.176529801324503	-0.000529801324503289	-0.869721854304636	-26.9170860927152	-2.8964238410596	10.5843708609272				0.852026490066225	0.0834966887417219	0.469933774834437	-1.7282119205298	34.7719205298013	-17.1374834437086				0.255788079470199	-0.462834437086093	-0.756238410596026	90.7403973509934	5.47761589403974	10.445298013245			
59	1180	-0.280158940397351	0.242754966887417	-0.887523178807947	19.9133774834437	-3.7846357615894	-14.0649006622517				1.00895364238411	-0.208211920529801	0.829139072847682	11.9139072847682	44.2678145695364	25.1740397350993				-0.202172185430464	-0.257271523178808	-0.90394701986755	15.967417218543	4.62649006622517	2.31973509933775				0.256529801324503	-0.000529801324503289	-0.981721854304636	-5.07708609271523	17.2635761589404	4.70437086092715				0.900026490066225	0.00349668874172187	0.517933774834437	-1.7282119205298	51.5719205298013	-15.1774834437086				0.223788079470199	-0.606834437086093	-0.676238410596026	41.1803973509934	25.9176158940397	-3.55470198675497			
60	1200	-0.280158940397351	0.226754966887417	-0.999523178807947	18.5133774834437	-3.7846357615894	-12.1049006622517				0.896953642384106	-0.0162119205298013	0.573139072847682	-20.5660927152318	11.2278145695364	8.09403973509934				-0.138172185430464	-0.209271523178808	-0.83994701986755	15.967417218543	0.706490066225167	-1.32026490066225				0.368529801324503	0.0154701986754967	-0.997721854304636	-1.15708609271523	20.6235761589404	-2.01562913907285				1.04402649006623	0.0354966887417219	0.501933774834437	-17.4082119205298	42.3319205298013	-20.2174834437086				0.271788079470199	-0.638834437086093	-0.820238410596026	48.7403973509934	20.0376158940397	-8.59470198675497			
61	1220	-0.264158940397351	0.114754966887417	-0.999523178807947	11.7933774834437	-0.984635761589404	-7.06490066225166				0.784953642384106	-0.128211920529801	0.589139072847682	-12.7260927152318	13.1878145695364	10.8940397350993				-0.154172185430464	-0.209271523178808	-0.85594701986755	20.727417218543	4.62649006622517	-0.20026490066225				0.448529801324503	-0.000529801324503289	-0.965721854304636	-2.27708609271523	11.1035761589404	-5.09562913907285				1.04402649006623	0.0514966887417219	0.389933774834437	-15.7282119205298	30.0119205298013	-17.6974834437086				0.223788079470199	-0.686834437086093	-0.852238410596026	40.9003973509934	17.7976158940397	-4.67470198675497			
62	1240	-0.264158940397351	0.0827549668874172	-0.983523178807947	13.4733774834437	0.415364238410596	-7.06490066225166				0.736953642384106	-0.0322119205298013	0.509139072847682	-5.44609271523179	35.0278145695364	6.69403973509934				-0.218172185430464	-0.321271523178808	-0.83994701986755	14.567417218543	4.62649006622517	2.87973509933775				0.416529801324503	-0.0485298013245033	-0.949721854304636	-19.0770860927152	2.7035761589404	-10.4156291390728				0.948026490066225	0.0994966887417219	0.373933774834437	-22.1682119205298	26.3719205298013	-12.0974834437086				0.223788079470199	-0.590834437086093	-0.868238410596026	26.9003973509934	23.1176158940397	3.44529801324503			
63	1260	-0.296158940397351	0.114754966887417	-0.935523178807947	11.7933774834437	2.3753642384106	-6.22490066225166				0.864953642384106	-0.0802119205298013	0.429139072847682	-7.40609271523179	50.7078145695364	5.29403973509934				-0.298172185430464	-0.337271523178808	-0.82394701986755	10.367417218543	6.30649006622517	5.39973509933775				0.416529801324503	-0.0325298013245033	-0.885721854304636	-39.5170860927152	-7.3764238410596	-6.21562913907285				0.852026490066225	0.195496688741722	0.437933774834437	-16.8482119205298	26.3719205298013	-7.61748344370861				0.207788079470199	-0.542834437086093	-0.804238410596027	26.0603973509934	16.3976158940397	9.32529801324503			
64	1280	-0.392158940397351	0.130754966887417	-0.935523178807947	-1.64662251655629	4.8953642384106	-3.14490066225166				0.960953642384106	-0.000211920529801304	0.477139072847682	-9.08609271523179	52.9478145695364	5.29403973509934				-0.346172185430464	-0.273271523178808	-0.82394701986755	3.92741721854305	7.42649006622517	5.95973509933775				0.416529801324503	0.0634701986754967	-0.901721854304636	-36.1570860927152	-5.1364238410596	-0.615629139072848				0.900026490066225	0.195496688741722	0.549933774834437	-7.3282119205298	35.6119205298013	-6.21748344370861				0.223788079470199	-0.622834437086093	-0.724238410596026	22.4203973509934	10.2376158940397	8.76529801324503			
65	1300	-0.424158940397351	0.0987549668874172	-0.871523178807947	-6.68662251655629	11.8953642384106	-2.58490066225166				0.928953642384106	-0.0322119205298013	0.749139072847682	-3.48609271523179	42.3078145695364	8.65403973509934				-0.378172185430464	-0.209271523178808	-0.87194701986755	0.287417218543046	8.54649006622517	6.23973509933775				0.496529801324503	0.127470198675497	-0.949721854304636	-18.5170860927152	8.3035761589404	3.86437086092715				0.932026490066225	0.195496688741722	0.645933774834437	-7.3282119205298	38.6919205298013	-7.05748344370861				0.303788079470199	-0.670834437086093	-0.740238410596026	14.0203973509934	11.9176158940397	1.76529801324503			
66	1320	-0.360158940397351	0.0987549668874172	-0.903523178807947	3.67337748344371	10.7753642384106	-0.344900662251656				0.832953642384106	-0.0962119205298013	0.925139072847682	7.43390728476821	30.8278145695364	13.4140397350993				-0.314172185430464	-0.177271523178808	-0.87194701986755	10.087417218543	11.3464900662252	2.87973509933775				0.544529801324503	0.0794701986754967	-0.917721854304636	0.802913907284768	18.6635761589404	4.14437086092715				0.948026490066225	0.147496688741722	0.613933774834437	-9.8482119205298	32.8119205298013	-5.93748344370861				0.319788079470199	-0.654834437086093	-0.740238410596026	6.74039735099338	15.8376158940397	-5.51470198675497			
67	1340	-0.264158940397351	0.114754966887417	-0.935523178807947	-3.32662251655629	11.0553642384106	4.97509933774835				0.784953642384106	-0.0162119205298013	0.781139072847682	-0.406092715231788	12.6278145695364	8.93403973509934				-0.202172185430464	-0.177271523178808	-0.87194701986755	14.847417218543	7.14649006622517	-2.44026490066225				0.544529801324503	0.0314701986754967	-0.917721854304636	1.64291390728477	23.9835761589404	-0.615629139072848				0.868026490066225	0.115496688741722	0.565933774834437	-4.2482119205298	20.4919205298013	-4.25748344370861				0.319788079470199	-0.590834437086093	-0.724238410596026	7.30039735099338	14.4376158940397	-11.674701986755			
68	1360	-0.184158940397351	0.130754966887417	-0.951523178807947	-4.44662251655629	10.2153642384106	8.33509933774834				0.704953642384106	0.0157880794701987	0.653139072847682	6.87390728476821	8.98781456953643	10.3340397350993				-0.154172185430464	-0.193271523178808	-0.85594701986755	14.287417218543	6.58649006622517	-5.52026490066225				0.480529801324503	0.0314701986754967	-0.885721854304636	-15.1570860927152	20.0635761589404	-4.25562913907285				0.788026490066225	0.179496688741722	0.517933774834437	-0.888211920529802	19.3719205298013	-4.81748344370861				0.319788079470199	-0.622834437086093	-0.708238410596026	17.9403973509934	11.3576158940397	-12.514701986755			
69	1380	-0.136158940397351	0.130754966887417	-0.951523178807947	-2.76662251655629	8.2553642384106	9.17509933774834				0.704953642384106	-0.0962119205298013	0.637139072847682	20.0339072847682	15.1478145695364	18.4540397350993				-0.138172185430464	-0.225271523178808	-0.83994701986755	13.447417218543	5.18649006622517	-5.80026490066225				0.416529801324503	0.0794701986754967	-0.821721854304636	-23.2770860927152	15.3035761589404	-7.61562913907285				0.756026490066225	0.179496688741722	0.485933774834437	3.0317880794702	17.6919205298013	-3.41748344370861				0.319788079470199	-0.622834437086093	-0.724238410596026	16.8203973509934	4.35761589403974	-7.47470198675497			
70	1400	-0.152158940397351	0.162754966887417	-0.951523178807947	-3.88662251655629	6.2953642384106	7.49509933774834				0.752953642384106	-0.160211920529801	0.589139072847682	-3.76609271523179	0.307814569536424	10.3340397350993				-0.106172185430464	-0.305271523178808	-0.83994701986755	14.847417218543	2.94649006622517	-4.68026490066225				0.400529801324503	0.0954701986754967	-0.805721854304636	-17.9570860927152	9.4235761589404	-8.45562913907285				0.788026490066225	0.115496688741722	0.533933774834437	2.1917880794702	21.3319205298013	-2.57748344370861				0.335788079470199	-0.622834437086093	-0.692238410596026	13.1803973509934	-0.682384105960265	-0.754701986754968			
71	1420	-0.216158940397351	0.194754966887417	-0.919523178807947	-12.0066225165563	5.7353642384106	7.49509933774834				0.672953642384106	-0.112211920529801	0.685139072847682	-17.2060927152318	-1.09218543046358	5.01403973509934				-0.106172185430464	-0.337271523178808	-0.83994701986755	8.12741721854305	2.66649006622517	-2.72026490066225				0.416529801324503	0.0634701986754967	-0.821721854304636	-6.47708609271523	6.6235761589404	-3.97562913907285				0.772026490066225	0.0994966887417219	0.581933774834437	8.6317880794702	22.4519205298013	-0.617483443708608				0.319788079470199	-0.590834437086093	-0.692238410596026	9.82039735099338	-5.72238410596027	3.72529801324503			
72	1440	-0.296158940397351	0.274754966887417	-0.887523178807947	-14.2466225165563	5.4553642384106	3.29509933774834				0.736953642384106	-0.0962119205298013	0.781139072847682	-11.3260927152318	1.70781456953642	4.73403973509934				-0.186172185430464	-0.273271523178808	-0.85594701986755	2.24741721854305	1.26649006622517	-3.56026490066225				0.448529801324503	0.0474701986754967	-0.869721854304636	-3.39708609271523	2.9835761589404	-0.895629139072848				0.788026490066225	0.131496688741722	0.613933774834437	6.3917880794702	18.2519205298013	2.46251655629139				0.303788079470199	-0.654834437086093	-0.692238410596026	6.46039735099338	-7.12238410596027	3.44529801324503			
73	1460	-0.264158940397351	0.274754966887417	-0.887523178807947	-12.2866225165563	6.2953642384106	-0.344900662251656				0.864953642384106	-0.0962119205298013	0.797139072847682	7.43390728476821	-0.252185430463576	5.01403973509934				-0.250172185430464	-0.241271523178808	-0.83994701986755	6.16741721854305	0.146490066225167	-6.08026490066225				0.464529801324503	0.0954701986754967	-0.901721854304636	-2.83708609271523	-0.3764238410596	-0.0556291390728476				0.852026490066225	0.147496688741722	0.581933774834437	3.0317880794702	15.4519205298013	0.782516556291392				0.383788079470199	-0.686834437086093	-0.660238410596027	3.38039735099338	-4.88238410596027	-1.03470198675497			
74	1480	-0.232158940397351	0.226754966887417	-0.935523178807947	-9.76662251655629	4.8953642384106	0.495099337748344				0.832953642384106	-0.0322119205298013	0.685139072847682	11.0739072847682	-18.7321854304636	1.09403973509934				-0.282172185430464	-0.209271523178808	-0.83994701986755	4.48741721854305	0.706490066225167	-5.24026490066225				0.480529801324503	0.127470198675497	-0.949721854304636	4.44291390728477	-3.4564238410596	-4.81562913907285				0.868026490066225	0.131496688741722	0.581933774834437	3.5917880794702	16.5719205298013	-1.45748344370861				0.367788079470199	-0.606834437086093	-0.660238410596027	-4.45960264900662	-6.00238410596027	-6.07470198675497			
75	1500	-0.216158940397351	0.242754966887417	-0.935523178807947	-11.7266225165563	6.2953642384106	0.495099337748344				0.736953642384106	0.0637880794701987	0.685139072847682	7.71390728476821	-23.2121854304636	-4.22596026490066				-0.266172185430464	-0.209271523178808	-0.88794701986755	3.08741721854305	1.54649006622517	-3.84026490066225				0.496529801324503	0.0954701986754967	-0.933721854304636	4.16291390728477	-5.6964238410596	-9.85562913907285				0.804026490066225	0.195496688741722	0.613933774834437	-5.6482119205298	8.45192052980133	-2.29748344370861				0.319788079470199	-0.574834437086093	-0.692238410596026	9.26039735099338	-1.80238410596026	-11.674701986755			
76	1520	-0.200158940397351	0.258754966887417	-0.935523178807947	-10.0466225165563	6.0153642384106	-0.344900662251656				0.752953642384106	-0.000211920529801304	0.765139072847682	21.7139072847682	-17.8921854304636	3.33403973509934				-0.250172185430464	-0.209271523178808	-0.88794701986755	10.087417218543	-0.133509933774833	-3.28026490066225				0.512529801324503	0.0794701986754967	-0.933721854304636	-7.03708609271523	-6.2564238410596	-10.4156291390728				0.804026490066225	0.259496688741722	0.597933774834437	-5.6482119205298	5.93192052980133	-2.85748344370861				0.303788079470199	-0.622834437086093	-0.708238410596026	17.9403973509934	0.157615894039735	-14.194701986755			
77	1540	-0.216158940397351	0.274754966887417	-1.01552317880795	-3.88662251655629	3.2153642384106	0.215099337748344				0.720953642384106	0.0157880794701987	0.861139072847682	43.2739072847682	-6.41218543046358	10.0540397350993				-0.234172185430464	-0.273271523178808	-0.90394701986755	14.287417218543	2.66649006622517	-4.96026490066225				0.496529801324503	0.0794701986754967	-0.981721854304636	-16.5570860927152	-4.8564238410596	-8.45562913907285				0.788026490066225	0.291496688741722	0.549933774834437	-1.1682119205298	12.6519205298013	-3.97748344370861				0.287788079470199	-0.670834437086093	-0.724238410596026	14.5803973509934	-2.08238410596027	-9.43470198675497			
78	1560	-0.200158940397351	0.290754966887417	-0.903523178807947	-13.1266225165563	7.6953642384106	0.495099337748344				0.784953642384106	0.0157880794701987	0.701139072847682	30.1139072847682	6.74781456953642	16.4940397350993				-0.218172185430464	-0.305271523178808	-0.87194701986755	4.48741721854305	3.78649006622517	-10.0002649006623				0.464529801324503	0.111470198675497	-0.933721854304636	-15.7170860927152	-2.8964238410596	-7.89562913907285				0.772026490066225	0.275496688741722	0.501933774834437	-2.2882119205298	7.33192052980133	-3.13748344370861				0.319788079470199	-0.638834437086093	-0.708238410596026	0.580397350993377	-7.68238410596027	0.0852980132450323			
79	1580	-0.168158940397351	0.258754966887417	-0.871523178807947	0.873377483443709	6.8553642384106	-3.98490066225166				0.768953642384106	0.0797880794701987	0.685139072847682	28.9939072847682	12.9078145695364	21.2540397350993				-0.218172185430464	-0.305271523178808	-0.90394701986755	5.04741721854305	7.42649006622517	-16.1602649006623				0.448529801324503	0.127470198675497	-0.917721854304636	-12.6370860927152	-10.4564238410596	-7.33562913907285				0.804026490066225	0.227496688741722	0.533933774834437	-1.7282119205298	7.89192052980133	-5.09748344370861				0.335788079470199	-0.574834437086093	-0.772238410596026	-2.77960264900662	-12.4423841059603	6.80529801324503			
80	1600	-0.232158940397351	0.306754966887417	-1.09552317880795	-9.20662251655629	14.6953642384106	-4.26490066225166				0.752953642384106	0.0157880794701987	0.733139072847682	42.1539072847682	5.90781456953642	26.2940397350993				-0.202172185430464	-0.353271523178808	-0.80794701986755	23.5274172185431	2.94649006622517	-22.3202649006623				0.416529801324503	0.0794701986754967	-0.901721854304636	-12.0770860927152	-12.9764238410596	-5.93562913907285				0.804026490066225	0.195496688741722	0.565933774834437	2.4717880794702	10.6919205298013	-4.25748344370861				0.303788079470199	-0.526834437086093	-0.804238410596027	-3.05960264900662	-21.9623841059603	6.80529801324503			
81	1620	-0.200158940397351	0.258754966887417	-0.983523178807947	-38.6066225165563	18.3353642384106	-1.18490066225166				0.736953642384106	-0.0322119205298013	0.781139072847682	48.8739072847682	16.8278145695364	24.0540397350993				-0.234172185430464	-0.369271523178808	-0.88794701986755	10.367417218543	0.146490066225167	-16.4402649006623				0.416529801324503	0.0474701986754967	-0.917721854304636	-23.8370860927152	-5.9764238410596	-6.49562913907285				0.788026490066225	0.227496688741722	0.533933774834437	5.2717880794702	5.09192052980133	-3.41748344370861				0.239788079470199	-0.590834437086093	-0.772238410596026	3.10039735099338	-25.8823841059603	9.32529801324503			
82	1640	-0.168158940397351	0.354754966887417	-0.807523178807947	-10.6066225165563	17.7753642384106	-11.8249006622517				0.800953642384106	-0.0642119205298013	0.717139072847682	41.0339072847682	19.9078145695364	22.9340397350993				-0.234172185430464	-0.305271523178808	-0.90394701986755	8.40741721854305	2.66649006622517	-13.0802649006623				0.336529801324503	0.159470198675497	-0.853721854304636	-31.6770860927152	2.9835761589404	-7.05562913907285				0.804026490066225	0.243496688741722	0.517933774834437	-1.4482119205298	12.3719205298013	-3.41748344370861				0.223788079470199	-0.670834437086093	-0.724238410596026	-4.45960264900662	-27.5623841059603	13.245298013245			
83	1660	-0.264158940397351	0.434754966887417	-0.919523178807947	-2.20662251655629	19.1753642384106	-15.1849006622517				0.704953642384106	0.0957880794701987	0.765139072847682	25.9139072847682	19.9078145695364	14.5340397350993				-0.218172185430464	-0.337271523178808	-0.88794701986755	10.647417218543	6.02649006622517	-10.8402649006623				0.304529801324503	0.239470198675497	-0.821721854304636	-22.9970860927152	8.0235761589404	-7.89562913907285				0.820026490066225	0.179496688741722	0.597933774834437	0.511788079470198	17.6919205298013	2.74251655629139				0.239788079470199	-0.606834437086093	-0.788238410596027	-22.9396026490066	-26.4423841059603	18.565298013245			
84	1680	-0.216158940397351	0.274754966887417	-0.871523178807947	7.31337748344371	21.9753642384106	-17.7049006622517				0.880953642384106	-0.144211920529801	0.685139072847682	14.1539072847682	19.3478145695364	16.7740397350993				-0.218172185430464	-0.305271523178808	-0.95194701986755	8.96741721854305	11.9064900662252	-8.04026490066225				0.288529801324503	0.223470198675497	-0.853721854304636	3.60291390728477	11.3835761589404	-8.45562913907285				0.852026490066225	0.115496688741722	0.613933774834437	-3.1282119205298	13.7719205298013	1.90251655629139				0.239788079470199	-0.526834437086093	-0.852238410596026	-14.2596026490066	-14.9623841059603	16.325298013245			
85	1700	-0.248158940397351	0.194754966887417	-1.03152317880795	8.43337748344371	24.7753642384106	-17.9849006622517				0.848953642384106	-0.0802119205298013	0.845139072847682	8.55390728476821	38.3878145695364	6.69403973509934				-0.202172185430464	-0.273271523178808	-0.82394701986755	-0.272582781456954	15.5464900662252	-5.80026490066225				0.352529801324503	0.127470198675497	-0.981721854304636	15.3629139072848	19.5035761589404	-12.9356291390728				0.884026490066225	0.147496688741722	0.629933774834437	-8.1682119205298	10.6919205298013	-3.97748344370861				0.271788079470199	-0.558834437086093	-0.804238410596027	16.2603973509934	-9.36238410596027	5.12529801324503			
86	1720	-0.216158940397351	0.114754966887417	-0.999523178807947	1.71337748344371	25.8953642384106	-14.9049006622517				0.864953642384106	-0.0962119205298013	0.765139072847682	-0.686092715231788	4.22781456953642	5.01403973509934				-0.202172185430464	-0.289271523178808	-0.87194701986755	-6.71258278145695	15.2664900662252	-2.44026490066225				0.384529801324503	0.127470198675497	-1.01372185430464	1.64291390728477	22.0235761589404	-12.0956291390728				0.916026490066225	0.179496688741722	0.629933774834437	-4.2482119205298	15.7319205298013	-2.29748344370861				0.239788079470199	-0.670834437086093	-0.772238410596026	19.9003973509934	-8.24238410596027	5.68529801324503			
87	1740	-0.216158940397351	0.178754966887417	-0.983523178807947	-1.36662251655629	28.1353642384106	-12.1049006622517				0.784953642384106	-0.0642119205298013	0.797139072847682	4.35390728476821	2.26781456953642	4.17403973509934				-0.202172185430464	-0.353271523178808	-0.87194701986755	-5.31258278145695	20.5864900662252	-3.56026490066225				0.400529801324503	0.175470198675497	-0.997721854304636	-0.597086092715232	14.1835761589404	-10.1356291390728				0.948026490066225	0.147496688741722	0.613933774834437	-1.1682119205298	19.9319205298013	0.782516556291392				0.239788079470199	-0.686834437086093	-0.756238410596026	12.6203973509934	-2.64238410596027	7.08529801324503			
88	1760	-0.216158940397351	0.210754966887417	-0.967523178807947	2.83337748344371	31.7753642384106	-10.1449006622517				0.816953642384106	-0.000211920529801304	0.829139072847682	11.6339072847682	14.3078145695364	-2.26596026490066				-0.218172185430464	-0.337271523178808	-0.93594701986755	-10.912582781457	27.5864900662252	-5.80026490066225				0.416529801324503	0.143470198675497	-1.01372185430464	2.48291390728477	6.9035761589404	-11.2556291390728				0.852026490066225	0.147496688741722	0.629933774834437	-5.9282119205298	13.4919205298013	1.90251655629139				0.271788079470199	-0.622834437086093	-0.772238410596026	3.38039735099338	4.35761589403974	7.36529801324503			
89	1780	-0.168158940397351	0.178754966887417	-0.903523178807947	12.0733774834437	33.1753642384106	-7.90490066225166				0.816953642384106	0.0797880794701987	0.765139072847682	32.9139072847682	16.2678145695364	3.33403973509934				-0.218172185430464	-0.257271523178808	-0.93594701986755	-11.192582781457	34.0264900662252	-7.48026490066225				0.400529801324503	0.0954701986754967	-1.02972185430464	-9.27708609271523	1.3035761589404	-10.6956291390728				0.820026490066225	0.227496688741722	0.613933774834437	-7.6082119205298	15.4519205298013	-3.69748344370861				0.287788079470199	-0.606834437086093	-0.740238410596026	14.3003973509934	4.07761589403974	5.68529801324503			
90	1800	-0.168158940397351	0.194754966887417	-0.919523178807947	16.8333774834437	31.2153642384106	-5.10490066225166				0.736953642384106	0.127788079470199	0.685139072847682	32.9139072847682	11.7878145695364	7.81403973509934				-0.154172185430464	-0.193271523178808	-0.87194701986755	-8.95258278145695	35.7064900662252	-8.60026490066225				0.432529801324503	0.127470198675497	-0.997721854304636	-21.8770860927152	1.0235761589404	-7.89562913907285				0.804026490066225	0.259496688741722	0.597933774834437	-12.9282119205298	14.8919205298013	-6.49748344370861				0.287788079470199	-0.638834437086093	-0.692238410596026	9.82039735099338	-0.122384105960265	5.12529801324503			
91	1820	-0.168158940397351	0.306754966887417	-0.967523178807947	21.3133774834437	33.1753642384106	-7.06490066225166				0.720953642384106	-0.000211920529801304	0.813139072847682	27.8739072847682	25.7878145695364	12.5740397350993				-0.138172185430464	-0.225271523178808	-0.83994701986755	-9.23258278145695	28.7064900662252	-11.1202649006623				0.416529801324503	0.223470198675497	-0.885721854304636	-29.9970860927152	1.8635761589404	-6.21562913907285				0.740026490066225	0.259496688741722	0.565933774834437	-15.4482119205298	14.6119205298013	-7.33748344370861				0.303788079470199	-0.638834437086093	-0.660238410596027	-8.37960264900662	0.157615894039735	9.04529801324503			
92	1840	-0.088158940397351	0.194754966887417	-0.919523178807947	31.1133774834437	33.7353642384106	-10.7049006622517				0.720953642384106	-0.0162119205298013	0.685139072847682	6.59390728476821	15.7078145695364	16.4940397350993				-0.122172185430464	-0.257271523178808	-0.83994701986755	-2.51258278145695	28.9864900662252	-16.1602649006623				0.432529801324503	0.287470198675497	-0.773721854304636	-26.6370860927152	-7.9364238410596	-4.81562913907285				0.756026490066225	0.243496688741722	0.645933774834437	-15.4482119205298	12.9319205298013	-5.09748344370861				0.303788079470199	-0.606834437086093	-0.692238410596026	-1.65960264900662	4.07761589403974	9.60529801324503			
93	1860	-0.072158940397351	0.178754966887417	-0.871523178807947	32.5133774834437	33.1753642384106	-13.2249006622517				0.624953642384106	-0.0162119205298013	0.749139072847682	21.4339072847682	35.3078145695364	17.8940397350993				-0.138172185430464	-0.225271523178808	-0.87194701986755	-6.71258278145695	26.7464900662252	-20.0802649006623				0.496529801324503	0.223470198675497	-0.821721854304636	-1.43708609271523	-14.6564238410596	-5.93562913907285				0.788026490066225	0.115496688741722	0.661933774834437	-10.4082119205298	8.17192052980133	4.42251655629139				0.255788079470199	-0.622834437086093	-0.788238410596027	1.70039735099338	4.63761589403974	-0.474701986754968			
94	1880	-0.104158940397351	0.114754966887417	-0.951523178807947	26.0733774834437	30.3753642384106	-11.8249006622517				0.816953642384106	-0.176211920529801	0.845139072847682	29.2739072847682	29.7078145695364	20.1340397350993				-0.106172185430464	-0.161271523178808	-0.85594701986755	4.48741721854305	25.3464900662252	-24.8402649006623				0.512529801324503	0.143470198675497	-0.901721854304636	-1.15708609271523	-12.4164238410596	-10.9756291390728				0.724026490066225	0.115496688741722	0.597933774834437	-4.5282119205298	3.41192052980132	1.06251655629139				0.319788079470199	-0.606834437086093	-0.756238410596026	4.22039735099338	-5.44238410596027	-2.43470198675497			
95	1900	-0.200158940397351	0.0187549668874172	-0.999523178807947	18.7933774834437	29.5353642384106	-7.62490066225166				0.832953642384106	0.127788079470199	0.589139072847682	0.433907284768212	2.26781456953642	6.13403973509934				-0.0901721854304636	-0.321271523178808	-0.87194701986755	18.2074172185431	26.7464900662252	-24.0002649006623				0.400529801324503	0.239470198675497	-0.917721854304636	-21.8770860927152	-15.7764238410596	-7.61562913907285				0.772026490066225	0.259496688741722	0.645933774834437	-5.9282119205298	5.37192052980133	-5.37748344370861				0.223788079470199	-0.670834437086093	-0.756238410596026	1.42039735099338	-11.0423841059603	9.88529801324503			
96	1920	-0.168158940397351	0.146754966887417	-1.01552317880795	13.7533774834437	30.9353642384106	-3.70490066225166				0.768953642384106	-0.0162119205298013	0.733139072847682	-16.0860927152318	-2.77218543046358	18.7340397350993				-0.0101721854304636	-0.401271523178808	-0.91994701986755	9.80741721854305	28.9864900662252	-18.4002649006623				0.352529801324503	0.319470198675497	-0.965721854304636	-11.5170860927152	-19.9764238410596	-8.45562913907285				0.900026490066225	0.243496688741722	0.661933774834437	-12.9282119205298	2.01192052980133	-4.25748344370861				0.223788079470199	-0.718834437086093	-0.788238410596027	-3.33960264900662	-8.80238410596027	10.725298013245			
97	1940	-0.072158940397351	0.162754966887417	-1.03152317880795	9.83337748344371	38.2153642384106	0.775099337748344				0.736953642384106	-0.0802119205298013	0.829139072847682	-22.5260927152318	0.867814569536424	21.5340397350993				0	0	0	0	0	0				0.400529801324503	0.223470198675497	-0.965721854304636	8.92291390728477	-18.8564238410596	-10.9756291390728				0.932026490066225	0.131496688741722	0.645933774834437	-8.1682119205298	-1.62807947019868	-2.29748344370861				0.255788079470199	-0.670834437086093	-0.868238410596026	-4.17960264900662	-6.28238410596027	9.60529801324503			
98	1960	0	0	0	0	0	0				0	0	0	0	0	0				0.00582781456953642	-0.257271523178808	-0.91994701986755	3.64741721854305	35.7064900662252	-14.7602649006622				0.384529801324503	0.191470198675497	-1.02972185430464	5.28291390728477	-21.9364238410596	-6.49562913907285				1.06002649006623	0.0514966887417219	0.677933774834437	-5.3682119205298	-6.38807947019868	1.62251655629139				0.159788079470199	-0.734834437086093	-0.932238410596026	5.62039735099338	-5.72238410596027	9.32529801324503			
99	1980	-0.120158940397351	0.130754966887417	-1.06352317880795	1.71337748344371	46.3353642384106	10.0150993377483				0.832953642384106	-0.112211920529801	0.989139072847682	9.67390728476821	22.9878145695364	8.65403973509934				-0.0421721854304636	-0.321271523178808	-0.93594701986755	9.80741721854305	39.9064900662252	-12.2402649006623				0.384529801324503	0.143470198675497	-1.09372185430464	2.20291390728477	-10.4564238410596	-2.57562913907285				1.04402649006623	0.0194966887417219	0.789933774834437	2.7517880794702	-12.2680794701987	9.18251655629139				0.175788079470199	-0.798834437086093	-0.932238410596026	3.66039735099338	-1.52238410596026	-0.754701986754968			
100	2000	-0.184158940397351	0.258754966887417	-1.06352317880795	-2.48662251655629	54.1753642384106	14.4950993377483				1.00895364238411	-0.0642119205298013	1.14913907284768	23.1139072847682	4.78781456953642	0.53403973509934				-0.0741721854304636	-0.385271523178808	-1.01594701986755	5.04741721854305	48.0264900662252	-14.4802649006623				0.352529801324503	0.223470198675497	-1.06172185430464	8.36291390728477	6.0635761589404	-1.45562913907285				0.932026490066225	0.227496688741722	0.757933774834437	-11.8082119205298	-2.18807947019868	2.74251655629139				0.223788079470199	-0.766834437086093	-0.964238410596026	-1.93960264900662	-0.402384105960265	0.645298013245032			
101	2020	-0.136158940397351	0.210754966887417	-1.12752317880795	10.3933774834437	65.6553642384106	13.0950993377483				1.00895364238411	0.0317880794701987	0.973139072847682	-5.44609271523179	-12.5721854304636	-13.7459602649007				-0.0261721854304636	-0.305271523178808	-0.98394701986755	3.08741721854305	53.9064900662252	-13.9202649006623				0.352529801324503	0.239470198675497	-1.09372185430464	15.3629139072848	16.4235761589404	1.06437086092715				0.980026490066225	0.243496688741722	0.741933774834437	-0.888211920529802	6.77192052980133	4.14251655629139				0.239788079470199	-0.702834437086093	-0.948238410596026	-12.5796026490066	-0.682384105960265	4.28529801324503			
102	2040	-0.024158940397351	0.0987549668874172	-1.07952317880795	7.31337748344371	75.1753642384106	13.6550993377483				0.960953642384106	-0.0642119205298013	0.973139072847682	-16.6460927152318	-1.09218543046358	-6.46596026490066				-0.0101721854304636	-0.289271523178808	-0.98394701986755	5.32741721854305	62.8664900662252	-16.1602649006623				0.368529801324503	0.207470198675497	-1.04572185430464	14.8029139072848	32.9435761589404	1.62437086092715				1.02802649006623	0.195496688741722	0.677933774834437	-9.2882119205298	6.21192052980133	4.42251655629139				0.207788079470199	-0.670834437086093	-0.900238410596026	-6.69960264900662	3.23761589403974	2.88529801324503			
103	2060	0.103841059602649	0.162754966887417	-1.09552317880795	2.27337748344371	75.7353642384106	12.2550993377483				0.944953642384106	-0.0642119205298013	0.861139072847682	13.5939072847682	-3.33218543046358	3.33403973509934				0.0378278145695364	-0.305271523178808	-0.99994701986755	12.327417218543	71.5464900662252	-23.1602649006623				0.352529801324503	0.207470198675497	-1.02972185430464	15.0829139072848	46.1035761589404	4.14437086092715				1.01202649006623	0.179496688741722	0.661933774834437	-6.4882119205298	6.77192052980133	3.86251655629139				0.127788079470199	-0.670834437086093	-0.900238410596026	3.66039735099338	10.2376158940397	-1.59470198675497			
104	2080	0.119841059602649	0.258754966887417	-1.03152317880795	6.47337748344371	80.7753642384106	12.5350993377483				0.832953642384106	-0.0322119205298013	0.813139072847682	16.6739072847682	-13.6921854304636	3.05403973509934				0.0538278145695364	-0.305271523178808	-0.95194701986755	10.087417218543	77.4264900662252	-26.5202649006623				0.320529801324503	0.207470198675497	-1.04572185430464	19.8429139072848	61.5035761589404	5.82437086092715				0.964026490066225	0.163496688741722	0.661933774834437	-10.4082119205298	6.77192052980133	5.54251655629139				0.127788079470199	-0.654834437086093	-0.964238410596026	12.6203973509934	18.9176158940397	-6.35470198675497			
105	2100	0.071841059602649	0.226754966887417	-0.983523178807947	19.3533774834437	88.3353642384106	9.73509933774834				0.784953642384106	0.0477880794701987	0.845139072847682	12.4739072847682	-5.85218543046358	-1.98596026490066				0.0378278145695364	-0.305271523178808	-0.90394701986755	8.68741721854305	82.1864900662252	-27.3602649006623				0.304529801324503	0.159470198675497	-0.949721854304636	22.3629139072848	65.1435761589404	7.50437086092715				0.852026490066225	0.179496688741722	0.597933774834437	-14.0482119205298	7.33192052980133	8.06251655629139				0.207788079470199	-0.606834437086093	-0.916238410596027	13.1803973509934	8.55761589403974	-0.754701986754968			
106	2120	0.087841059602649	0.0987549668874172	-0.935523178807947	33.9133774834437	91.4153642384106	6.09509933774834				0.912953642384106	-0.0162119205298013	0.877139072847682	6.03390728476821	6.46781456953642	2.49403973509934				0.0698278145695364	-0.385271523178808	-0.88794701986755	9.52741721854305	84.9864900662252	-27.9202649006623				0.352529801324503	0.143470198675497	-0.965721854304636	33.5629139072848	64.0235761589404	7.50437086092715				0.836026490066225	0.0834966887417219	0.661933774834437	-9.5682119205298	15.1719205298013	7.78251655629139				0.239788079470199	-0.654834437086093	-0.836238410596026	0.0203973509933773	-0.402384105960265	9.60529801324503			
107	2140	0.087841059602649	0.146754966887417	-0.919523178807947	28.5933774834437	85.8153642384106	7.21509933774835				0.912953642384106	-0.000211920529801304	0.829139072847682	-6.84609271523179	2.82781456953642	-3.94596026490066				0.117827814569536	-0.369271523178808	-0.88794701986755	8.96741721854305	88.9064900662252	-27.0802649006623				0.448529801324503	0.111470198675497	-0.981721854304636	36.6429139072848	67.3835761589404	10.3043708609272				0.916026490066225	0.0994966887417219	0.741933774834437	-4.2482119205298	21.3319205298013	-2.01748344370861				0.239788079470199	-0.702834437086093	-0.836238410596026	-6.41960264900662	0.437615894039735	5.68529801324503			
108	2160	0.103841059602649	0.194754966887417	-0.935523178807947	29.7133774834437	91.9753642384106	7.21509933774835				0.864953642384106	-0.112211920529801	0.813139072847682	-0.686092715231788	-5.29218543046358	0.25403973509934				0.149827814569536	-0.337271523178808	-0.85594701986755	3.64741721854305	93.3864900662252	-24.8402649006623				0.592529801324503	0.127470198675497	-0.917721854304636	32.1629139072848	79.7035761589404	11.9843708609272				0.900026490066225	0.179496688741722	0.597933774834437	-5.9282119205298	15.7319205298013	-0.337483443708608				0.255788079470199	-0.622834437086093	-0.884238410596026	5.90039735099338	1.27761589403974	-4.39470198675497			
109	2180	0.167841059602649	0.0987549668874172	-0.967523178807947	37.2733774834437	94.2153642384106	1.89509933774834				0.832953642384106	-0.0482119205298013	0.765139072847682	-4.32609271523179	-3.05218543046358	-1.98596026490066				0.229827814569536	-0.289271523178808	-0.79194701986755	7.28741721854305	97.3064900662252	-24.2802649006623				0.528529801324503	0.127470198675497	-0.757721854304636	43.0829139072848	76.0635761589404	11.1443708609272				0.852026490066225	0.163496688741722	0.581933774834437	-5.6482119205298	11.5319205298013	6.66251655629139				0.239788079470199	-0.622834437086093	-0.820238410596026	11.5003973509934	-4.32238410596027	-4.11470198675497			
110	2200	0.279841059602649	-0.0292450331125828	-0.919523178807947	25.5133774834437	95.8953642384106	1.05509933774834				0.752953642384106	-0.000211920529801304	0.685139072847682	-2.92609271523179	-2.21218543046358	1.09403973509934				0.245827814569536	-0.209271523178808	-0.79194701986755	8.68741721854305	96.7464900662252	-25.4002649006623				0.576529801324503	0.239470198675497	-0.757721854304636	52.8829139072848	71.8635761589404	12.8243708609272				0.772026490066225	0.147496688741722	0.629933774834437	-9.5682119205298	9.29192052980133	11.4225165562914				0.239788079470199	-0.606834437086093	-0.724238410596026	-5.29960264900662	-9.64238410596027	6.52529801324503			
111	2220	0.311841059602649	0.0347549668874172	-0.887523178807947	10.9533774834437	91.6953642384106	2.17509933774834				0.768953642384106	-0.128211920529801	0.653139072847682	0.993907284768212	17.6678145695364	0.81403973509934				0.277827814569536	-0.225271523178808	-0.82394701986755	4.76741721854305	92.5464900662252	-28.4802649006623				0.560529801324503	0.143470198675497	-0.805721854304636	73.6029139072848	66.2635761589404	9.46437086092715				0.788026490066225	0.115496688741722	0.693933774834437	5.8317880794702	9.85192052980133	11.9825165562914				0.223788079470199	-0.574834437086093	-0.660238410596027	-8.09960264900662	-13.8423841059603	12.125298013245			
112	2240	0.247841059602649	0.0667549668874172	-0.887523178807947	7.31337748344371	89.7353642384106	3.85509933774834				0.736953642384106	-0.0482119205298013	0.701139072847682	-9.64609271523179	13.4678145695364	-1.98596026490066				0.325827814569536	-0.193271523178808	-0.77594701986755	6.44741721854305	89.1864900662252	-30.7202649006623				0.528529801324503	-0.0325298013245033	-0.757721854304636	68.8429139072848	63.4635761589404	9.46437086092715				0.756026490066225	0.0514966887417219	0.613933774834437	-15.4482119205298	6.77192052980133	3.58251655629139				0.207788079470199	-0.606834437086093	-0.676238410596026	-3.61960264900662	-13.2823841059603	5.96529801324503			
113	2260	0.311841059602649	0.0667549668874172	-0.823523178807947	9.55337748344371	93.3753642384106	3.57509933774835				0.704953642384106	0.0637880794701987	0.781139072847682	-3.48609271523179	18.7878145695364	-5.62596026490066				0.373827814569536	-0.225271523178808	-0.75994701986755	4.20741721854305	90.3064900662252	-31.5602649006623				0.640529801324503	-0.0805298013245033	-0.805721854304636	68.2829139072848	69.9035761589404	11.7043708609272				0.740026490066225	0.115496688741722	0.661933774834437	-20.7682119205298	2.57192052980133	2.18251655629139				0.191788079470199	-0.654834437086093	-0.724238410596026	-12.2996026490066	-14.9623841059603	-1.59470198675497			
114	2280	0.359841059602649	0.0187549668874172	-0.839523178807947	18.2333774834437	98.4153642384106	4.69509933774834				0.800953642384106	-0.0802119205298013	0.829139072847682	-1.52609271523179	8.42781456953642	-1.98596026490066				0.453827814569536	-0.289271523178808	-0.74394701986755	3.08741721854305	90.0264900662252	-30.7202649006623				0.720529801324503	0.0154701986754967	-0.725721854304636	57.0829139072848	86.7035761589404	19.5443708609272				0.772026490066225	0.147496688741722	0.757933774834437	-18.2482119205298	5.09192052980133	3.58251655629139				0.239788079470199	-0.622834437086093	-0.676238410596026	-12.0196026490066	-22.8023841059603	-5.23470198675497			
115	2300	0.359841059602649	-0.0772450331125828	-0.855523178807947	3.39337748344371	99.5353642384106	7.49509933774834				0.784953642384106	-0.0642119205298013	0.717139072847682	-23.9260927152318	8.98781456953643	-4.50596026490066				0.469827814569536	-0.321271523178808	-0.74394701986755	4.48741721854305	95.3464900662252	-31.2802649006623				0.688529801324503	0.111470198675497	-0.565721854304636	71.0829139072848	81.6635761589404	29.3443708609272				0.772026490066225	0.0674966887417219	0.773933774834437	3.8717880794702	9.01192052980133	4.70251655629139				0.223788079470199	-0.702834437086093	-0.692238410596026	-12.0196026490066	-12.4423841059603	-2.99470198675497			
116	2320	0.375841059602649	0.0507549668874172	-0.871523178807947	-2.76662251655629	97.2953642384106	8.61509933774835				0.672953642384106	-0.000211920529801304	0.861139072847682	-23.6460927152318	-3.89218543046358	-4.78596026490066				0.453827814569536	-0.353271523178808	-0.71194701986755	9.80741721854305	95.3464900662252	-31.8402649006623				0.672529801324503	0.0314701986754967	-0.613721854304636	108.042913907285	63.7435761589404	33.8243708609272				0.708026490066225	0.131496688741722	0.709933774834437	10.5917880794702	-1.34807947019868	11.4225165562914				0.255788079470199	-0.750834437086093	-0.692238410596026	-29.3796026490066	-15.2423841059603	-17.554701986755			
117	2340	0.423841059602649	0.130754966887417	-0.775523178807947	5.91337748344371	98.6953642384106	7.77509933774834				0.656953642384106	-0.176211920529801	0.829139072847682	-8.52609271523179	-3.89218543046358	-4.22596026490066				0.517827814569536	-0.321271523178808	-0.63194701986755	3.92741721854305	96.4664900662252	-25.1202649006623				0.736529801324503	-0.0965298013245033	-0.677721854304636	113.642913907285	65.4235761589404	28.2243708609272				0.628026490066225	0.163496688741722	0.805933774834437	9.7517880794702	0.331920529801325	15.9025165562914				0.271788079470199	-0.702834437086093	-0.660238410596027	-25.1796026490066	-35.1223841059603	-16.714701986755			
118	2360	0.535841059602649	0.0347549668874172	-0.759523178807947	9.83337748344371	105.415364238411	9.73509933774834				0.640953642384106	-0.0802119205298013	0.749139072847682	-33.7260927152318	-0.252185430463576	-8.70596026490066				0.613827814569536	-0.289271523178808	-0.63194701986755	-10.632582781457	96.7464900662252	-19.8002649006623				0.752529801324503	-0.128529801324503	-0.661721854304636	112.522913907285	55.6235761589404	17.0243708609272				0.644026490066225	0.0194966887417219	0.789933774834437	34.9517880794702	16.0119205298013	14.2225165562914				0.319788079470199	-0.654834437086093	-0.612238410596026	-35.8196026490066	-20.2823841059603	-14.194701986755			
119	2380	0.567841059602649	-0.0612450331125828	-0.679523178807947	-0.526622516556291	106.535364238411	9.45509933774835				0.736953642384106	0.0797880794701987	0.653139072847682	-47.1660927152318	-3.89218543046358	-13.1859602649007				0.613827814569536	-0.241271523178808	-0.59994701986755	-13.432582781457	94.7864900662252	-18.6802649006623				0.768529801324503	-0.0645298013245033	-0.581721854304636	107.202913907285	44.1435761589404	16.7443708609272				0.708026490066225	0.179496688741722	0.965933774834437	73.5917880794702	-26.2680794701987	26.8225165562914				0.287788079470199	-0.606834437086093	-0.708238410596026	-15.6596026490066	2.39761589403974	-30.994701986755			
120	2400	0.535841059602649	0.0187549668874172	-0.679523178807947	-14.5266225165563	101.215364238411	9.73509933774834				0.720953642384106	0.0317880794701987	0.749139072847682	-15.2460927152318	-12.0121854304636	-10.9459602649007				0.533827814569536	-0.289271523178808	-0.61594701986755	-19.032582781457	88.0664900662252	-10.0002649006623				0.880529801324503	-0.112529801324503	-0.581721854304636	112.522913907285	43.8635761589404	20.1043708609272				0.756026490066225	0.0674966887417219	0.677933774834437	69.1117880794702	-105.788079470199	42.7825165562914				0.271788079470199	-0.718834437086093	-0.676238410596026	10.6603973509934	8.27761589403974	-38.554701986755			
121	2420	0.583841059602649	0.0987549668874172	-0.663523178807947	-15.6466225165563	100.375364238411	6.93509933774835				0.576953642384106	-0.160211920529801	0.861139072847682	-3.76609271523179	-5.29218543046358	-1.98596026490066				0.549827814569536	-0.273271523178808	-0.58394701986755	-20.992582781457	90.0264900662252	-4.12026490066225				0.976529801324503	-0.352529801324503	-0.597721854304636	61.0029139072848	32.3835761589404	23.7443708609272				0.404026490066225	0.275496688741722	0.821933774834437	64.6317880794702	-183.348079470199	49.7825165562914				0.255788079470199	-0.654834437086093	-0.580238410596026	2.26039735099338	-7.96238410596027	-28.194701986755			
122	2440	0.631841059602649	0.130754966887417	-0.631523178807947	-13.6866225165563	100.655364238411	4.13509933774834				0.464953642384106	-0.0322119205298013	0.765139072847682	-26.7260927152318	-21.5321854304636	-9.82596026490066				0.725827814569536	-0.241271523178808	-0.67994701986755	-25.752582781457	87.5064900662252	-3.56026490066225				1.0725298013245	-0.272529801324503	-0.629721854304636	21.8029139072848	38.8235761589404	8.06437086092715				0.820026490066225	0.115496688741722	0.725933774834437	-36.7282119205298	-192.028079470199	46.1425165562914				0.351788079470199	-0.478834437086093	-0.580238410596026	-1.37960264900662	4.07761589403974	-32.114701986755			
123	2460	0.647841059602649	0.162754966887417	-0.599523178807947	-8.36662251655629	99.8153642384106	3.85509933774834				0.704953642384106	-0.000211920529801304	0.733139072847682	-41.0060927152318	-36.3721854304636	-5.34596026490066				0.805827814569536	-0.193271523178808	-0.53594701986755	-34.992582781457	85.5464900662252	-13.0802649006623				0.928529801324503	-0.128529801324503	-0.517721854304636	9.76291390728477	28.7435761589404	-3.13562913907285				0.756026490066225	0.0514966887417219	0.197933774834437	-60.8082119205298	-150.308079470199	38.0225165562914				0.351788079470199	-0.622834437086093	-0.564238410596026	18.2203973509934	7.71761589403974	-34.914701986755			
124	2480	0.727841059602649	0.0827549668874172	-0.567523178807947	-0.246622516556291	93.9353642384106	3.29509933774834				0.656953642384106	0.0637880794701987	0.797139072847682	-48.5660927152318	-54.2921854304636	-0.30596026490066				0.725827814569536	-0.113271523178808	-0.53594701986755	-29.392582781457	82.1864900662252	-27.6402649006623				0.800529801324503	-0.144529801324503	-0.533721854304636	-2.83708609271523	22.8635761589404	-9.29562913907285				0.740026490066225	0.147496688741722	0.597933774834437	-24.6882119205298	-93.7480794701987	12.8225165562914				0.287788079470199	-0.622834437086093	-0.564238410596026	10.6603973509934	13.0376158940397	-25.674701986755			
125	2500	0.791841059602649	0.0667549668874172	-0.503523178807947	0.0333774834437086	95.3353642384106	-2.86490066225166				0.544953642384106	0.175788079470199	0.781139072847682	-15.2460927152318	-52.6121854304636	3.05403973509934				0.693827814569536	-0.113271523178808	-0.53594701986755	-20.432582781457	81.3464900662252	-29.0402649006623				0.784529801324503	-0.128529801324503	-0.405721854304636	7.24291390728477	9.7035761589404	-8.73562913907285				0.724026490066225	0.0834966887417219	0.501933774834437	-33.6482119205298	-82.2680794701987	6.66251655629139				0.287788079470199	-0.702834437086093	-0.596238410596026	3.38039735099338	18.0776158940397	-14.754701986755			
126	2520	0.855841059602649	0.0667549668874172	-0.375523178807947	-8.36662251655629	94.7753642384106	-7.62490066225166				0.672953642384106	0.0317880794701987	0.797139072847682	1.83390728476821	-59.8921854304636	4.45403973509934				0.677827814569536	-0.0972715231788079	-0.39194701986755	3.36741721854305	86.6664900662252	-29.6002649006623				0.928529801324503	-0.144529801324503	-0.469721854304636	17.6029139072848	-3.1764238410596	-10.9756291390728				0.820026490066225	0.0194966887417219	0.469933774834437	-38.4082119205298	-72.7480794701987	-5.93748344370861				0.383788079470199	-0.622834437086093	-0.628238410596026	6.46039735099338	16.9576158940397	-14.754701986755			
127	2540	0.887841059602649	0.114754966887417	-0.359523178807947	-6.68662251655629	94.7753642384106	-10.1449006622517				0.736953642384106	-0.0802119205298013	0.765139072847682	5.75390728476821	-66.3321854304636	2.77403973509934				0.725827814569536	-0.161271523178808	-0.27994701986755	-9.51258278145695	92.2664900662252	-18.6802649006623				1.0085298013245	-0.112529801324503	-0.501721854304636	5.84291390728477	-9.6164238410596	-14.3356291390729				0.932026490066225	0.0834966887417219	0.309933774834437	-46.2482119205298	-65.1880794701987	-11.5374834437086				0.351788079470199	-0.526834437086093	-0.612238410596026	20.7403973509934	2.39761589403974	-18.954701986755			
128	2560	0.935841059602649	0.0987549668874172	-0.343523178807947	-8.64662251655629	95.3353642384106	-9.30490066225166				0.592953642384106	-0.000211920529801304	0.781139072847682	16.3939072847682	-74.4521854304636	-9.82596026490066				0.853827814569536	-0.129271523178808	-0.24794701986755	-25.752582781457	85.8264900662252	-10.5602649006623				0.816529801324503	-0.112529801324503	-0.533721854304636	1.92291390728477	-18.0164238410596	-16.5756291390728				0.884026490066225	0.0354966887417219	0.373933774834437	-42.6082119205298	-67.4280794701987	-3.13748344370861				0.287788079470199	-0.478834437086093	-0.596238410596026	18.7803973509934	6.31761589403974	-21.194701986755			
129	2580	0.935841059602649	0.0507549668874172	-0.391523178807947	-13.1266225165563	94.2153642384106	-7.62490066225166				0.576953642384106	-0.0962119205298013	0.637139072847682	15.8339072847682	-88.7321854304636	-5.34596026490066				0.965827814569536	-0.113271523178808	-0.32794701986755	-23.512582781457	81.3464900662252	-7.48026490066225				0.704529801324503	-0.208529801324503	-0.501721854304636	-5.35708609271523	-35.3764238410596	-21.0556291390728				0.676026490066225	0.00349668874172187	0.421933774834437	-85.4482119205298	-26.2680794701987	-12.6574834437086				0.223788079470199	-0.510834437086093	-0.580238410596026	26.3403973509934	13.3176158940397	-28.194701986755			
130	2600	0.903841059602649	0.0667549668874172	-0.439523178807947	-15.6466225165563	94.2153642384106	-5.94490066225166				0.592953642384106	-0.128211920529801	0.541139072847682	-1.80609271523179	-75.8521854304636	-7.02596026490066				1.01382781456954	-0.0332715231788079	-0.37594701986755	-15.672582781457	75.1864900662252	-5.24026490066225				0.720529801324503	-0.224529801324503	-0.501721854304636	-7.87708609271523	-62.2564238410596	-17.4156291390728				0.676026490066225	0.0994966887417219	0.309933774834437	-68.6482119205298	-18.7080794701987	-16.5774834437086				0.271788079470199	-0.510834437086093	-0.708238410596026	49.5803973509934	-6.28238410596027	-30.994701986755			
131	2620	0.903841059602649	0.0827549668874172	-0.359523178807947	-14.5266225165563	88.0553642384106	-7.06490066225166				0.608953642384106	-0.0482119205298013	0.701139072847682	-8.52609271523179	-53.1721854304636	-10.6659602649007				1.02982781456954	-0.0972715231788079	-0.34394701986755	-12.872582781457	74.9064900662252	-1.88026490066225				0.704529801324503	-0.144529801324503	-0.485721854304636	3.88291390728477	-56.3764238410596	-13.7756291390728				0.772026490066225	0.115496688741722	0.293933774834437	-44.5682119205298	-11.1480794701987	-14.8974834437086				0.319788079470199	-0.462834437086093	-0.452238410596026	-7.53960264900662	17.7976158940397	-27.634701986755			
132	2640	0.871841059602649	0.0667549668874172	-0.311523178807947	-16.4866225165563	86.6553642384106	-6.50490066225166				0.624953642384106	0.0317880794701987	0.765139072847682	-9.64609271523179	-52.6121854304636	-17.6659602649007				0.853827814569536	-0.161271523178808	-0.29594701986755	-2.51258278145695	77.1464900662252	-13.0802649006623				0.704529801324503	-0.272529801324503	-0.517721854304636	8.08291390728477	-55.2564238410596	-5.37562913907285				0.596026490066225	0.115496688741722	0.309933774834437	-34.2082119205298	-9.46807947019868	-17.4174834437086				0.351788079470199	-0.398834437086093	-0.516238410596026	32.7803973509934	19.4776158940397	-39.674701986755			
133	2660	0.855841059602649	0.0827549668874172	-0.279523178807947	-20.1266225165563	89.1753642384106	-3.70490066225166				0.672953642384106	-0.0642119205298013	0.765139072847682	-1.24609271523179	-47.0121854304636	-17.3859602649007				0.773827814569536	-0.145271523178808	-0.19994701986755	-27.712582781457	79.9464900662252	-12.2402649006623				0.544529801324503	-0.192529801324503	-0.581721854304636	-15.4370860927152	-43.7764238410596	3.58437086092715				0.724026490066225	0.00349668874172187	0.341933774834437	-27.2082119205298	-11.1480794701987	-16.8574834437086				0.159788079470199	-0.814834437086093	-0.356238410596026	26.9003973509934	21.4376158940397	-45.274701986755			
134	2680	0.871841059602649	0.114754966887417	-0.167523178807947	-16.7666225165563	100.655364238411	1.89509933774834				0.688953642384106	-0.000211920529801304	0.733139072847682	-9.08609271523179	-28.2521854304636	-19.6259602649007				1.02982781456954	-0.129271523178808	-0.15194701986755	-52.632582781457	87.7864900662252	7.91973509933775				0.480529801324503	-0.0325298013245033	-0.405721854304636	-44.2770860927152	-24.1764238410596	1.06437086092715				0.660026490066225	0.0674966887417219	0.357933774834437	-8.7282119205298	-7.50807947019868	-11.8174834437086				0.271788079470199	-0.558834437086093	-0.596238410596026	-71.6596026490066	33.1976158940397	-28.194701986755			
135	2700	0.903841059602649	0.0827549668874172	-0.167523178807947	-12.5666225165563	102.895364238411	9.45509933774835				0.512953642384106	0.239788079470199	0.541139072847682	-16.0860927152318	-43.3721854304636	-21.8659602649007				0.997827814569536	-0.161271523178808	-0.15194701986755	-48.152582781457	71.8264900662252	19.1197350993378				0.448529801324503	0.0634701986754967	-0.357721854304636	-21.5970860927152	-1.7764238410596	-0.0556291390728476				0.852026490066225	0.0194966887417219	0.245933774834437	4.4317880794702	-4.42807947019868	4.70251655629139				0.319788079470199	-0.414834437086093	-0.516238410596026	-85.3796026490066	25.9176158940397	-10.834701986755			
136	2720	0.967841059602649	0.130754966887417	-0.151523178807947	-14.8066225165563	103.175364238411	12.5350993377483				0.480953642384106	0.159788079470199	0.589139072847682	0.433907284768212	-40.0121854304636	-16.5459602649007				0.933827814569536	-0.129271523178808	-0.18394701986755	-43.952582781457	60.0664900662252	16.0397350993378				0.384529801324503	-0.0325298013245033	-0.421721854304636	8.08291390728477	-2.6164238410596	0.784370860927152				0.836026490066225	0.0354966887417219	0.293933774834437	12.2717880794702	-2.18807947019868	11.7025165562914				0.383788079470199	-0.414834437086093	-0.596238410596026	-81.7396026490066	16.1176158940397	3.44529801324503			
137	2740	0.999841059602649	0.146754966887417	-0.119523178807947	-1.92662251655629	97.2953642384106	9.45509933774835				0.576953642384106	-0.112211920529801	0.589139072847682	24.7939072847682	-26.8521854304636	-15.4259602649007				0.821827814569536	-0.0492715231788079	-0.18394701986755	-38.352582781457	41.3064900662252	16.8797350993378				0.416529801324503	-0.0645298013245033	-0.629721854304636	2.48291390728477	-5.9764238410596	-5.65562913907285				0.436026490066225	0.163496688741722	0.309933774834437	11.7117880794702	-5.54807947019868	7.78251655629139				0.335788079470199	-0.270834437086093	-0.740238410596026	-65.7796026490066	12.4776158940397	-11.954701986755			
138	2760	0.967841059602649	0.162754966887417	-0.023523178807947	-13.4066225165563	84.1353642384106	8.05509933774835				0.560953642384106	-0.000211920529801304	0.461139072847682	14.1539072847682	-19.8521854304636	-23.5459602649007				0.837827814569536	-0.0652715231788079	-0.15194701986755	-19.312582781457	42.4264900662252	11.2797350993378				0.576529801324503	-0.0645298013245033	-0.549721854304636	-15.7170860927152	-6.8164238410596	-9.29562913907285				0.724026490066225	0.0994966887417219	0.277933774834437	10.0317880794702	-4.98807947019868	2.74251655629139				0.303788079470199	-0.270834437086093	-0.740238410596026	-14.8196026490066	7.71761589403974	-18.114701986755			
139	2780	0.807841059602649	0.194754966887417	-0.055523178807947	-24.8866225165563	70.4153642384106	3.57509933774835				0.560953642384106	0.0957880794701987	0.445139072847682	10.5139072847682	-19.2921854304636	-18.5059602649007				0.789827814569536	-0.0972715231788079	-0.11994701986755	-25.192582781457	45.5064900662252	9.03973509933775				0.624529801324503	-0.0805298013245033	-0.437721854304636	-19.6370860927152	-7.0964238410596	-5.37562913907285				0.724026490066225	-0.0125033112582781	0.277933774834437	5.2717880794702	0.331920529801325	-2.85748344370861				0.303788079470199	-0.334834437086093	-0.628238410596026	1.98039735099338	0.717615894039735	-17.554701986755			
140	2800	0.695841059602649	0.306754966887417	-0.055523178807947	-13.4066225165563	62.5753642384106	-5.10490066225166				0.672953642384106	-0.0962119205298013	0.509139072847682	13.3139072847682	-14.2521854304636	-6.74596026490066				0.789827814569536	-0.0972715231788079	-0.18394701986755	-29.672582781457	37.3864900662252	9.87973509933775				0.560529801324503	-0.0165298013245033	-0.421721854304636	-4.79708609271523	-6.5364238410596	-1.45562913907285				0.836026490066225	0.0514966887417219	0.229933774834437	10.0317880794702	-2.18807947019868	-5.37748344370861				0.351788079470199	-0.414834437086093	-0.644238410596026	4.50039735099338	-6.84238410596027	-15.874701986755			
141	2820	0.711841059602649	0.274754966887417	-0.023523178807947	14.5933774834437	63.6953642384106	-14.6249006622517				0.688953642384106	-0.128211920529801	0.509139072847682	-7.12609271523179	-19.2921854304636	-7.86596026490066				0.853827814569536	-0.0172715231788079	-0.21594701986755	-18.752582781457	39.3464900662252	4.55973509933775				0.496529801324503	0.0314701986754967	-0.485721854304636	12.8429139072848	-7.0964238410596	1.90437086092715				0.724026490066225	0.0834966887417219	0.245933774834437	11.1517880794702	-1.34807947019868	1.90251655629139				0.383788079470199	-0.494834437086093	-0.612238410596026	6.18039735099338	-6.56238410596027	-11.674701986755			
142	2840	0.855841059602649	0.0827549668874172	-0.055523178807947	41.4733774834437	62.2953642384106	-15.4649006622517				0.640953642384106	0.0957880794701987	0.413139072847682	-14.6860927152318	-24.0521854304636	-13.1859602649007				0.805827814569536	-0.0332715231788079	-0.26394701986755	-12.312582781457	35.4264900662252	-3.00026490066225				0.512529801324503	-0.0165298013245033	-0.565721854304636	21.8029139072848	-11.2964238410596	-1.17562913907285				0.756026490066225	0.0834966887417219	0.341933774834437	1.6317880794702	-1.06807947019868	1.06251655629139				0.383788079470199	-0.462834437086093	-0.612238410596026	-8.93960264900662	-2.64238410596027	-2.99470198675497			
143	2860	1.01584105960265	-0.109245033112583	-0.087523178807947	44.5533774834437	61.4553642384106	-9.86490066225166				0.784953642384106	0.0797880794701987	0.381139072847682	-5.44609271523179	-15.0921854304636	-9.26596026490066				0.789827814569536	-0.0812715231788079	-0.24794701986755	4.20741721854305	27.3064900662252	-3.28026490066225				0.592529801324503	-0.144529801324503	-0.629721854304636	18.1629139072848	-12.6964238410596	-0.335629139072848				0.724026490066225	0.0994966887417219	0.341933774834437	-5.3682119205298	-0.228079470198675	-1.45748344370861				0.399788079470199	-0.414834437086093	-0.676238410596026	-8.37960264900662	-1.80238410596026	-1.31470198675497			
144	2880	0.967841059602649	-0.109245033112583	-0.055523178807947	18.2333774834437	59.2153642384106	-2.30490066225166				0.848953642384106	-0.0802119205298013	0.429139072847682	11.3539072847682	-11.7321854304636	-1.14596026490066				0.869827814569536	-0.209271523178808	-0.27994701986755	19.607417218543	15.5464900662252	-4.40026490066225				0.640529801324503	-0.160529801324503	-0.645721854304636	-2.55708609271523	-8.2164238410596	2.46437086092715				0.884026490066225	0.0514966887417219	0.277933774834437	-0.608211920529802	2.01192052980133	4.42251655629139				0.319788079470199	-0.462834437086093	-0.724238410596026	9.54039735099338	-4.60238410596027	0.925298013245032			
145	2900	0.967841059602649	-0.0772450331125828	-0.119523178807947	-1.36662251655629	59.7753642384106	6.65509933774834				0.768953642384106	-0.0482119205298013	0.621139072847682	0.153907284768212	-2.21218543046358	-5.90596026490066				0.901827814569536	-0.241271523178808	-0.31194701986755	5.32741721854305	6.86649006622517	-1.04026490066225				0.512529801324503	-0.0805298013245033	-0.581721854304636	-3.39708609271523	2.1435761589404	5.82437086092715				0.932026490066225	0.0514966887417219	0.245933774834437	4.7117880794702	3.69192052980133	6.10251655629139				0.287788079470199	-0.462834437086093	-0.692238410596026	-1.37960264900662	-0.962384105960265	9.32529801324503			
146	2920	1.01584105960265	-0.0452450331125828	-0.167523178807947	3.95337748344371	51.6553642384106	3.57509933774835				0.784953642384106	0.0317880794701987	0.573139072847682	-6.00609271523179	-13.4121854304636	-3.10596026490066				1.01382781456954	-0.129271523178808	-0.35994701986755	-16.792582781457	7.14649006622517	0.63973509933775				0.464529801324503	-0.0485298013245033	-0.597721854304636	8.92291390728477	11.1035761589404	-2.85562913907285				0.836026490066225	0.0354966887417219	0.309933774834437	1.9117880794702	7.33192052980133	5.26251655629139				0.303788079470199	-0.398834437086093	-0.740238410596026	-11.1796026490066	11.9176158940397	10.445298013245			
147	2940	1.06384105960265	-0.0132450331125828	-0.167523178807947	7.87337748344371	41.8553642384106	0.495099337748344				0.864953642384106	-0.0162119205298013	0.541139072847682	-4.04609271523179	-6.41218543046358	2.77403973509934				1.02982781456954	-0.113271523178808	-0.31194701986755	-5.59258278145695	6.30649006622517	-1.32026490066225				0.544529801324503	-0.128529801324503	-0.629721854304636	13.1229139072848	15.3035761589404	-5.93562913907285				0.804026490066225	0.0834966887417219	0.293933774834437	-1.7282119205298	7.05192052980133	6.94251655629139				0.335788079470199	-0.398834437086093	-0.788238410596027	4.78039735099338	8.27761589403974	5.96529801324503			
148	2960	1.06384105960265	0.0507549668874172	-0.135523178807947	-8.92662251655629	29.5353642384106	1.61509933774834				0.896953642384106	-0.0482119205298013	0.477139072847682	0.433907284768212	14.8678145695364	1.09403973509934				0.997827814569536	-0.225271523178808	-0.16794701986755	18.767417218543	3.22649006622517	-4.68026490066225				0	0	0	0	0	0				0	0	0	0	0	0				0	0	0	0	0	0			
149	2980	0.983841059602649	0.130754966887417	-0.151523178807947	-13.1266225165563	17.2153642384106	2.17509933774834				0.864953642384106	-0.0322119205298013	0.509139072847682	-1.52609271523179	12.3478145695364	5.01403973509934				0.933827814569536	-0.225271523178808	-0.15194701986755	24.647417218543	-4.33350993377483	-5.24026490066225				0.688529801324503	-0.144529801324503	-0.741721854304636	15.3629139072848	15.5835761589404	-4.53562913907285				0.932026490066225	0.0834966887417219	0.293933774834437	-2.0082119205298	11.5319205298013	9.74251655629139				0.303788079470199	-0.446834437086093	-0.804238410596027	14.0203973509934	4.07761589403974	1.48529801324503			
150	3000	0.967841059602649	0.0507549668874172	-0.119523178807947	-0.246622516556291	9.9353642384106	-0.344900662251656				0.880953642384106	-0.000211920529801304	0.525139072847682	-5.44609271523179	14.3078145695364	7.81403973509934				0.949827814569536	-0.161271523178808	-0.16794701986755	21.287417218543	-6.01350993377483	-3.28026490066225				0.704529801324503	-0.112529801324503	-0.693721854304636	-0.877086092715232	12.2235761589404	-8.73562913907285				0.916026490066225	0.0514966887417219	0.341933774834437	-3.1282119205298	9.01192052980133	9.46251655629139				0.351788079470199	-0.462834437086093	-0.740238410596026	24.6603973509934	7.71761589403974	-2.15470198675497			
151	3020	0.967841059602649	-0.0132450331125828	-0.087523178807947	11.2333774834437	6.0153642384106	-1.46490066225166				0.896953642384106	-0.000211920529801304	0.525139072847682	-6.28609271523179	13.7478145695364	10.0540397350993				0.917827814569536	-0.145271523178808	-0.18394701986755	12.047417218543	-1.81350993377483	-4.40026490066225				0.736529801324503	-0.128529801324503	-0.629721854304636	2.20291390728477	11.3835761589404	-9.85562913907285				0.916026490066225	0.0354966887417219	0.357933774834437	-0.888211920529802	9.85192052980133	8.90251655629139				0.383788079470199	-0.510834437086093	-0.740238410596026	25.2203973509934	5.75761589403974	-1.87470198675497			
152	3040	0.967841059602649	0.00275496688741723	-0.055523178807947	0.873377483443709	6.2953642384106	1.61509933774834				0.880953642384106	0.0157880794701987	0.461139072847682	-2.92609271523179	18.7878145695364	9.77403973509934				0.901827814569536	-0.129271523178808	-0.18394701986755	-3.35258278145695	1.54649006622517	-4.68026490066225				0.736529801324503	-0.144529801324503	-0.645721854304636	9.48291390728477	11.3835761589404	-7.61562913907285				0.916026490066225	0.0674966887417219	0.325933774834437	1.3517880794702	9.01192052980133	7.78251655629139				0.399788079470199	-0.542834437086093	-0.740238410596026	20.7403973509934	1.27761589403974	-1.59470198675497			
153	3060	0.967841059602649	0.0827549668874172	-0.00752317880794696	-7.24662251655629	3.7753642384106	4.13509933774834				0.880953642384106	0.0477880794701987	0.477139072847682	2.39390728476821	15.1478145695364	10.6140397350993				0.901827814569536	-0.113271523178808	-0.23194701986755	-7.55258278145695	4.34649006622517	-5.80026490066225				0.736529801324503	-0.160529801324503	-0.693721854304636	13.4029139072848	9.1435761589404	-5.09562913907285				0.964026490066225	0.0674966887417219	0.341933774834437	3.3117880794702	7.89192052980133	9.74251655629139				0.383788079470199	-0.510834437086093	-0.724238410596026	11.7803973509934	-1.24238410596026	0.0852980132450323			
154	3080	0.983841059602649	0.146754966887417	-0.023523178807947	-3.88662251655629	4.0553642384106	1.33509933774834				0.928953642384106	0.0157880794701987	0.509139072847682	-1.80609271523179	10.6678145695364	11.7340397350993				0.949827814569536	-0.0812715231788079	-0.24794701986755	-7.83258278145695	2.66649006622517	-4.68026490066225				0.736529801324503	-0.160529801324503	-0.677721854304636	5.84291390728477	7.4635761589404	-4.53562913907285				0.932026490066225	0.0514966887417219	0.357933774834437	1.9117880794702	5.37192052980133	10.8625165562914				0.399788079470199	-0.510834437086093	-0.708238410596026	15.4203973509934	1.27761589403974	-2.99470198675497			
155	3100	0.999841059602649	0.130754966887417	-0.023523178807947	-1.92662251655629	4.8953642384106	-2.30490066225166				0.928953642384106	0.0157880794701987	0.525139072847682	-1.52609271523179	5.06781456953642	8.65403973509934				0.949827814569536	-0.0492715231788079	-0.24794701986755	0.00741721854304636	2.94649006622517	-1.88026490066225				0.736529801324503	-0.160529801324503	-0.661721854304636	4.72291390728477	4.1035761589404	-4.81562913907285				0.900026490066225	0.0194966887417219	0.357933774834437	2.1917880794702	4.53192052980133	12.5425165562914				0.399788079470199	-0.558834437086093	-0.740238410596026	19.3403973509934	-1.52238410596026	-6.07470198675497			
156	3120	0.935841059602649	0.146754966887417	-0.023523178807947	0.593377483443709	5.7353642384106	-2.86490066225166				0.864953642384106	-0.000211920529801304	0.477139072847682	0.713907284768212	4.22781456953642	4.73403973509934				0.917827814569536	-0.0812715231788079	-0.26394701986755	3.36741721854305	4.62649006622517	-1.32026490066225				0.720529801324503	-0.160529801324503	-0.677721854304636	6.40291390728477	0.1835761589404	-7.05562913907285				0.964026490066225	0.00349668874172187	0.325933774834437	6.1117880794702	4.25192052980133	10.0225165562914				0.399788079470199	-0.574834437086093	-0.756238410596026	18.7803973509934	-4.88238410596027	-5.51470198675497			
157	3140	0.951841059602649	0.162754966887417	0.00847682119205304	-2.48662251655629	7.9753642384106	1.61509933774834				0.880953642384106	0.0317880794701987	0.541139072847682	2.95390728476821	10.3878145695364	1.09403973509934				0.901827814569536	-0.0812715231788079	-0.26394701986755	6.16741721854305	3.50649006622517	-3.28026490066225				0.704529801324503	-0.192529801324503	-0.677721854304636	5.56291390728477	1.3035761589404	-7.61562913907285				0.964026490066225	0.00349668874172187	0.325933774834437	6.6717880794702	3.97192052980133	7.78251655629139				0.335788079470199	-0.510834437086093	-0.676238410596026	14.5803973509934	-4.60238410596027	-0.194701986754968			
158	3160	0.983841059602649	0.130754966887417	0.024476821192053	1.43337748344371	9.0953642384106	1.05509933774834				0.896953642384106	0.0317880794701987	0.573139072847682	-0.126092715231788	6.18781456953642	2.49403973509934				0.981827814569536	-0.0332715231788079	-0.23194701986755	5.60741721854305	3.50649006622517	-2.44026490066225				0.672529801324503	-0.224529801324503	-0.645721854304636	5.00291390728477	4.3835761589404	-4.81562913907285				0.916026490066225	0.0194966887417219	0.325933774834437	5.2717880794702	2.57192052980133	4.70251655629139				0.335788079470199	-0.542834437086093	-0.660238410596027	11.2203973509934	-3.48238410596027	0.925298013245032			
159	3180	0.999841059602649	0.114754966887417	0.00847682119205304	8.15337748344371	9.3753642384106	-0.0649006622516557				0.864953642384106	0.0317880794701987	0.509139072847682	-2.36609271523179	0.587814569536424	1.65403973509934				0.981827814569536	-0.0652715231788079	-0.21594701986755	7.56741721854305	3.78649006622517	0.63973509933775				0.656529801324503	-0.208529801324503	-0.629721854304636	5.28291390728477	9.4235761589404	-0.895629139072848				0.884026490066225	0.0194966887417219	0.341933774834437	3.8717880794702	1.45192052980132	5.54251655629139				0.319788079470199	-0.558834437086093	-0.676238410596026	2.82039735099338	-4.04238410596027	0.925298013245032			
160	3200	0.967841059602649	0.0987549668874172	-0.00752317880794696	7.03337748344371	5.7353642384106	-2.02490066225166				0.832953642384106	0.0157880794701987	0.525139072847682	1.83390728476821	2.26781456953642	-0.0259602649006601				0.917827814569536	-0.145271523178808	-0.18394701986755	6.72741721854305	2.10649006622517	1.47973509933775				0.688529801324503	-0.192529801324503	-0.677721854304636	13.4029139072848	12.7835761589404	2.18437086092715				0.916026490066225	0.0194966887417219	0.341933774834437	0.791788079470198	2.57192052980133	4.70251655629139				0.367788079470199	-0.526834437086093	-0.708238410596026	0.580397350993377	-0.962384105960265	-1.59470198675497			
161	3220	0.983841059602649	0.0667549668874172	-0.039523178807947	2.27337748344371	2.3753642384106	-0.344900662251656				0.880953642384106	-0.0162119205298013	0.557139072847682	3.23390728476821	5.90781456953642	0.81403973509934				0.917827814569536	-0.177271523178808	-0.16794701986755	6.44741721854305	0.986490066225167	2.59973509933775				0.736529801324503	-0.208529801324503	-0.693721854304636	9.76291390728477	10.8235761589404	1.90437086092715				0.932026490066225	-0.0125033112582781	0.325933774834437	0.791788079470198	2.57192052980133	2.46251655629139				0.351788079470199	-0.526834437086093	-0.692238410596026	7.30039735099338	-1.24238410596026	-3.55470198675497			
162	3240	0.983841059602649	0.0507549668874172	0.00847682119205304	0.873377483443709	3.4953642384106	2.17509933774834				0.864953642384106	-0.0162119205298013	0.541139072847682	0.433907284768212	1.98781456953642	1.09403973509934				0.933827814569536	-0.193271523178808	-0.15194701986755	3.92741721854305	0.706490066225167	6.23973509933775				0.736529801324503	-0.208529801324503	-0.677721854304636	-0.597086092715232	6.6235761589404	-0.335629139072848				0.916026490066225	-0.0125033112582781	0.325933774834437	-0.0482119205298018	1.45192052980132	0.782516556291392				0.335788079470199	-0.574834437086093	-0.676238410596026	6.74039735099338	-1.52238410596026	0.645298013245032			
163	3260	0.983841059602649	0.0347549668874172	0.024476821192053	-0.246622516556291	4.6153642384106	1.89509933774834				0.880953642384106	-0.0162119205298013	0.541139072847682	-1.80609271523179	2.26781456953642	2.21403973509934				0.981827814569536	-0.193271523178808	-0.16794701986755	-5.31258278145695	-0.413509933774833	9.59973509933775				0.704529801324503	-0.176529801324503	-0.645721854304636	-4.23708609271523	0.1835761589404	-0.0556291390728476				0.916026490066225	0.0194966887417219	0.357933774834437	-0.888211920529802	2.29192052980133	0.222516556291392				0.351788079470199	-0.558834437086093	-0.660238410596027	0.0203973509933773	1.83761589403974	1.48529801324503			
164	3280	0.935841059602649	0.0507549668874172	0.040476821192053	-5.28662251655629	6.5753642384106	0.775099337748344				0.880953642384106	-0.0482119205298013	0.509139072847682	-0.126092715231788	2.26781456953642	2.77403973509934				0.997827814569536	-0.161271523178808	-0.21594701986755	-7.83258278145695	-3.21350993377483	7.07973509933775				0.736529801324503	-0.176529801324503	-0.661721854304636	-0.597086092715232	-3.4564238410596	2.18437086092715				0.916026490066225	0.0354966887417219	0.357933774834437	-2.0082119205298	3.41192052980132	0.222516556291392				0.351788079470199	-0.542834437086093	-0.660238410596027	-0.259602649006623	4.35761589403974	-1.31470198675497			
165	3300	0.951841059602649	0.0347549668874172	0.024476821192053	-7.24662251655629	7.9753642384106	0.215099337748344				0.816953642384106	-0.0482119205298013	0.525139072847682	-1.52609271523179	12.0678145695364	1.65403973509934				0.965827814569536	-0.113271523178808	-0.21594701986755	-9.51258278145695	-5.45350993377483	3.99973509933775				0.752529801324503	-0.192529801324503	-0.693721854304636	-0.597086092715232	-5.1364238410596	3.30437086092715				0.916026490066225	0.0194966887417219	0.357933774834437	-3.1282119205298	3.69192052980133	1.06251655629139				0.335788079470199	-0.526834437086093	-0.692238410596026	-6.13960264900662	8.83761589403974	-2.71470198675497			
166	3320	0.983841059602649	0.0347549668874172	0.00847682119205304	-5.56662251655629	4.8953642384106	-0.0649006622516557				0.848953642384106	-0.0162119205298013	0.573139072847682	-2.64609271523179	12.9078145695364	2.77403973509934				0.933827814569536	-0.0812715231788079	-0.21594701986755	-5.31258278145695	-3.77350993377483	2.31973509933775				0.752529801324503	-0.192529801324503	-0.661721854304636	-12.9170860927152	-7.9364238410596	1.06437086092715				0.884026490066225	0.00349668874172187	0.357933774834437	-2.0082119205298	3.97192052980133	1.34251655629139				0.383788079470199	-0.542834437086093	-0.724238410596026	-0.819602649006623	7.15761589403974	-4.11470198675497			
167	3340	0.983841059602649	0.0507549668874172	-0.00752317880794696	-5.56662251655629	3.2153642384106	0.775099337748344				0.832953642384106	0.0317880794701987	0.589139072847682	-4.60609271523179	8.42781456953642	1.37403973509934				0.917827814569536	-0.0492715231788079	-0.19994701986755	-0.552582781456954	-4.89350993377483	-0.20026490066225				0.704529801324503	-0.160529801324503	-0.597721854304636	-19.9170860927152	-7.3764238410596	0.784370860927152				0.884026490066225	0.00349668874172187	0.357933774834437	0.511788079470198	3.97192052980133	2.18251655629139				0.399788079470199	-0.558834437086093	-0.708238410596026	1.70039735099338	3.79761589403974	-3.27470198675497			
168	3360	0.983841059602649	0.0667549668874172	-0.00752317880794696	-8.08662251655629	1.8153642384106	3.57509933774835				0.848953642384106	0.0317880794701987	0.541139072847682	-2.36609271523179	8.70781456953642	0.25403973509934				0.885827814569536	-0.0652715231788079	-0.19994701986755	5.04741721854305	-4.05350993377483	-1.32026490066225				0.656529801324503	-0.0965298013245033	-0.549721854304636	-10.6770860927152	-1.7764238410596	1.90437086092715				0.884026490066225	0.0194966887417219	0.357933774834437	1.9117880794702	2.85192052980133	1.34251655629139				0.383788079470199	-0.558834437086093	-0.692238410596026	4.22039735099338	1.27761589403974	-2.99470198675497			
169	3380	0.951841059602649	0.114754966887417	0.040476821192053	-5.56662251655629	1.8153642384106	2.73509933774834				0.864953642384106	-0.000211920529801304	0.509139072847682	1.55390728476821	9.54781456953642	1.37403973509934				0.869827814569536	-0.0812715231788079	-0.21594701986755	5.32741721854305	-2.37350993377483	-1.32026490066225				0.672529801324503	-0.0805298013245033	-0.549721854304636	1.64291390728477	5.2235761589404	3.86437086092715				0.884026490066225	0.0194966887417219	0.373933774834437	3.5917880794702	2.85192052980133	2.46251655629139				0.351788079470199	-0.558834437086093	-0.708238410596026	5.62039735099338	3.51761589403974	-3.27470198675497			
170	3400	0.951841059602649	0.130754966887417	0.00847682119205304	-0.246622516556291	0.415364238410596	2.73509933774834				0.848953642384106	0.0157880794701987	0.525139072847682	4.35390728476821	8.14781456953643	2.21403973509934				0.885827814569536	-0.0972715231788079	-0.21594701986755	8.68741721854305	0.146490066225167	-1.88026490066225				0.672529801324503	-0.112529801324503	-0.613721854304636	9.48291390728477	10.2635761589404	2.18437086092715				0.900026490066225	0.0194966887417219	0.357933774834437	5.2717880794702	3.69192052980133	3.58251655629139				0.367788079470199	-0.558834437086093	-0.692238410596026	5.34039735099338	4.91761589403974	-1.59470198675497			
171	3420	0.967841059602649	0.0827549668874172	-0.00752317880794696	5.35337748344371	-1.2646357615894	1.05509933774834				0.848953642384106	-0.000211920529801304	0.573139072847682	5.47390728476821	5.90781456953642	2.77403973509934				0.885827814569536	-0.0972715231788079	-0.21594701986755	7.00741721854305	2.66649006622517	-3.56026490066225				0.704529801324503	-0.144529801324503	-0.661721854304636	7.52291390728477	10.8235761589404	-2.29562913907285				0.900026490066225	0.0194966887417219	0.357933774834437	4.7117880794702	2.85192052980133	2.74251655629139				0.367788079470199	-0.542834437086093	-0.692238410596026	2.82039735099338	5.19761589403974	0.925298013245032			
172	3440	0.999841059602649	0.0507549668874172	0.00847682119205304	8.99337748344371	-2.9446357615894	0.215099337748344				0.864953642384106	-0.0322119205298013	0.557139072847682	3.79390728476821	8.98781456953643	2.21403973509934				0.933827814569536	-0.0972715231788079	-0.19994701986755	5.60741721854305	6.02649006622517	-5.80026490066225				0.752529801324503	-0.160529801324503	-0.661721854304636	2.76291390728477	9.1435761589404	-4.25562913907285				0.916026490066225	0.00349668874172187	0.373933774834437	4.7117880794702	2.29192052980133	3.30251655629139				0.367788079470199	-0.542834437086093	-0.740238410596026	2.26039735099338	3.51761589403974	-0.754701986754968			
173	3460	0.999841059602649	0.0347549668874172	0.040476821192053	7.03337748344371	0.415364238410596	1.33509933774834				0.880953642384106	-0.0322119205298013	0.557139072847682	0.153907284768212	13.7478145695364	-0.0259602649006601				0.965827814569536	-0.129271523178808	-0.18394701986755	5.88741721854305	7.14649006622517	-5.52026490066225				0.752529801324503	-0.160529801324503	-0.645721854304636	1.08291390728477	7.7435761589404	-5.93562913907285				0.932026490066225	0.00349668874172187	0.357933774834437	5.5517880794702	2.29192052980133	4.14251655629139				0.367788079470199	-0.542834437086093	-0.756238410596026	4.22039735099338	-2.08238410596027	-2.15470198675497			
174	3480	1.01584105960265	0.0507549668874172	0.120476821192053	0.313377483443709	4.8953642384106	3.57509933774835				0.864953642384106	0.0157880794701987	0.573139072847682	2.67390728476821	10.6678145695364	-0.0259602649006601				0.949827814569536	-0.161271523178808	-0.18394701986755	8.40741721854305	5.46649006622517	-4.96026490066225				0.752529801324503	-0.160529801324503	-0.629721854304636	1.08291390728477	6.6235761589404	-7.89562913907285				0.932026490066225	0.00349668874172187	0.357933774834437	5.2717880794702	1.45192052980132	2.18251655629139				0.367788079470199	-0.542834437086093	-0.740238410596026	8.70039735099338	-3.20238410596026	-2.43470198675497			
175	3500	0.983841059602649	0.0827549668874172	0.072476821192053	-0.806622516556291	4.3353642384106	1.61509933774834				0.864953642384106	-0.0162119205298013	0.557139072847682	6.31390728476821	7.30781456953642	2.77403973509934				0.981827814569536	-0.193271523178808	-0.19994701986755	8.40741721854305	2.38649006622517	-1.60026490066225				0.736529801324503	-0.176529801324503	-0.645721854304636	4.44291390728477	5.2235761589404	-7.61562913907285				0.932026490066225	0.00349668874172187	0.357933774834437	4.4317880794702	0.331920529801325	1.06251655629139				0.351788079470199	-0.574834437086093	-0.708238410596026	13.7403973509934	-3.76238410596027	-5.23470198675497			
176	3520	0.967841059602649	0.0667549668874172	0.00847682119205304	1.99337748344371	0.975364238410596	-0.0649006622516557				0.848953642384106	-0.0322119205298013	0.573139072847682	6.59390728476821	9.26781456953642	2.21403973509934				0.981827814569536	-0.225271523178808	-0.19994701986755	3.64741721854305	3.78649006622517	2.31973509933775				0.752529801324503	-0.176529801324503	-0.629721854304636	4.44291390728477	4.9435761589404	-8.17562913907285				0.916026490066225	0.00349668874172187	0.389933774834437	7.7917880794702	1.17192052980133	1.62251655629139				0.351788079470199	-0.574834437086093	-0.692238410596026	8.70039735099338	-5.16238410596027	-5.51470198675497			
177	3540	0.951841059602649	0.0507549668874172	-0.055523178807947	3.67337748344371	-3.7846357615894	-0.0649006622516557				0.832953642384106	-0.0322119205298013	0.605139072847682	4.63390728476821	12.6278145695364	0.53403973509934				0.965827814569536	-0.193271523178808	-0.21594701986755	-1.39258278145695	5.18649006622517	4.83973509933775				0.752529801324503	-0.176529801324503	-0.661721854304636	2.20291390728477	2.4235761589404	-7.89562913907285				0.900026490066225	0.0194966887417219	0.357933774834437	8.6317880794702	2.01192052980133	1.34251655629139				0.351788079470199	-0.542834437086093	-0.660238410596027	4.50039735099338	-7.68238410596027	-4.95470198675497			
178	3560	0.967841059602649	0.00275496688741723	-0.055523178807947	4.79337748344371	-5.7446357615894	1.61509933774834				0.832953642384106	-0.0322119205298013	0.589139072847682	2.95390728476821	12.0678145695364	1.09403973509934				0.933827814569536	-0.145271523178808	-0.19994701986755	-1.39258278145695	5.18649006622517	4.27973509933775				0.736529801324503	-0.176529801324503	-0.629721854304636	-0.317086092715232	1.0235761589404	-6.49562913907285				0.884026490066225	0.0194966887417219	0.389933774834437	6.9517880794702	0.611920529801325	0.502516556291392				0.383788079470199	-0.558834437086093	-0.644238410596026	2.82039735099338	-7.12238410596027	-4.11470198675497			
