No	Time	12-AccX	12-AccY	12-AccZ	12-GyroX	12-GyroY	12-GyroZ	13-AccX	13-AccY	13-AccZ	13-GyroX	13-GyroY	13-GyroZ	14-AccX	14-AccY	14-AccZ	14-GyroX	14-GyroY	14-GyroZ	15-AccX	15-AccY	15-AccZ	15-GyroX	15-GyroY	15-GyroZ	16-AccX	16-AccY	16-AccZ	16-GyroX	16-GyroY	16-GyroZ	17-AccX	17-AccY	17-AccZ	17-GyroX	17-GyroY	17-GyroZ
0	0	0	0	0	0	0	0				0	0	0	0	0	0				-0.266172185430464	-0.193271523178808	-0.85594701986755	-0.272582781456954	1.82649006622517	-0.20026490066225				0	0	0	0	0	0				0	0	0	0	0	0				0	0	0	0	0	0			
1	20	-0.248158940397351	0.130754966887417	-0.951523178807947	-0.526622516556291	-0.144635761589404	-1.18490066225166				0.960953642384106	0.0637880794701987	0.125139072847682	-3.76609271523179	13.7478145695364	0.25403973509934				-0.250172185430464	-0.193271523178808	-0.87194701986755	0.00741721854304636	1.54649006622517	-0.20026490066225				0	0	0	0	0	0				0.916026490066225	0.0354966887417219	0.165933774834437	3.5917880794702	5.93192052980133	0.502516556291392				0.479788079470199	-0.126834437086093	-0.836238410596026	-0.259602649006623	0.437615894039735	-1.03470198675497			
2	40	-0.232158940397351	0.130754966887417	-0.935523178807947	-0.246622516556291	0.415364238410596	-1.74490066225166				0.976953642384106	0.0637880794701987	0.205139072847682	-4.88609271523179	14.0278145695364	-1.14596026490066				-0.250172185430464	-0.209271523178808	-0.85594701986755	0.847417218543046	1.82649006622517	0.0797350993377501				0.528529801324503	-0.272529801324503	-0.709721854304636	-1.15708609271523	-0.0964238410596001	-1.17562913907285				0.932026490066225	0.0194966887417219	0.117933774834437	1.6317880794702	-0.788079470198675	0.502516556291392				0.447788079470199	-0.126834437086093	-0.804238410596027	2.54039735099338	-0.962384105960265	-1.03470198675497			
3	60	-0.232158940397351	0.130754966887417	-0.935523178807947	-0.806622516556291	0.135364238410596	-1.18490066225166				0.992953642384106	0.0637880794701987	0.205139072847682	-4.60609271523179	5.90781456953642	0.53403973509934				-0.250172185430464	-0.209271523178808	-0.87194701986755	0.00741721854304636	-0.973509933774833	-0.76026490066225				0.544529801324503	-0.272529801324503	-0.709721854304636	0.802913907284768	0.7435761589404	-0.0556291390728476				0.948026490066225	0.0194966887417219	0.149933774834437	0.231788079470198	2.57192052980133	-0.337483443708608				0.447788079470199	-0.142834437086093	-0.804238410596027	1.14039735099338	-2.08238410596027	0.0852980132450323			
4	80	-0.200158940397351	0.146754966887417	-0.935523178807947	-1.36662251655629	-1.2646357615894	-0.904900662251656				0.976953642384106	0.0477880794701987	0.173139072847682	-4.88609271523179	2.26781456953642	-0.585960264900661				-0.250172185430464	-0.193271523178808	-0.85594701986755	1.40741721854305	-1.25350993377483	-0.76026490066225				0.560529801324503	-0.272529801324503	-0.725721854304636	3.32291390728477	2.4235761589404	-0.0556291390728476				0.932026490066225	0.0354966887417219	0.165933774834437	-2.2882119205298	2.57192052980133	-1.45748344370861				0.447788079470199	-0.142834437086093	-0.804238410596027	1.70039735099338	-1.80238410596026	0.365298013245032			
5	100	-0.232158940397351	0.130754966887417	-0.951523178807947	0.873377483443709	-1.2646357615894	-0.904900662251656				0.976953642384106	0.0477880794701987	0.189139072847682	-1.80609271523179	0.0278145695364242	0.25403973509934				-0.250172185430464	-0.193271523178808	-0.85594701986755	0.567417218543046	0.146490066225167	-0.20026490066225				0.576529801324503	-0.288529801324503	-0.725721854304636	0.802913907284768	2.9835761589404	-1.73562913907285				0.964026490066225	0.00349668874172187	0.181933774834437	-0.0482119205298018	3.97192052980133	-1.45748344370861				0.447788079470199	-0.142834437086093	-0.820238410596026	2.54039735099338	-0.402384105960265	-0.754701986754968			
6	120	-0.248158940397351	0.146754966887417	-0.935523178807947	1.15337748344371	-0.704635761589404	-0.344900662251656				0.992953642384106	0.0477880794701987	0.173139072847682	-0.686092715231788	1.14781456953642	-0.30596026490066				-0.266172185430464	-0.209271523178808	-0.85594701986755	-0.272582781456954	0.426490066225167	-0.48026490066225				0.576529801324503	-0.288529801324503	-0.725721854304636	-0.317086092715232	4.1035761589404	-2.01562913907285				0.964026490066225	0.0194966887417219	0.149933774834437	1.3517880794702	5.09192052980133	-0.337483443708608				0.463788079470199	-0.142834437086093	-0.836238410596026	1.98039735099338	2.67761589403974	-1.03470198675497			
7	140	-0.264158940397351	0.130754966887417	-0.935523178807947	0.313377483443709	-0.144635761589404	-0.904900662251656				0.992953642384106	0.0477880794701987	0.173139072847682	-0.126092715231788	1.70781456953642	-0.30596026490066				-0.266172185430464	-0.209271523178808	-0.88794701986755	0.847417218543046	1.26649006622517	-0.20026490066225				0.576529801324503	-0.272529801324503	-0.725721854304636	-2.27708609271523	4.1035761589404	-2.01562913907285				0.964026490066225	0.0354966887417219	0.149933774834437	2.7517880794702	7.05192052980133	-0.617483443708608				0.463788079470199	-0.142834437086093	-0.836238410596026	1.14039735099338	3.23761589403974	-0.194701986754968			
8	160	-0.248158940397351	0.146754966887417	-0.919523178807947	0.873377483443709	-0.144635761589404	-0.904900662251656				0.992953642384106	0.0477880794701987	0.157139072847682	0.153907284768212	-2.49218543046358	-0.0259602649006601				-0.250172185430464	-0.193271523178808	-0.85594701986755	-0.552582781456954	-2.09350993377483	0.0797350993377501				0.608529801324503	-0.272529801324503	-0.709721854304636	-0.877086092715232	3.2635761589404	-1.17562913907285				0.964026490066225	0.0354966887417219	0.149933774834437	2.7517880794702	5.93192052980133	-0.897483443708608				0.479788079470199	-0.142834437086093	-0.820238410596026	1.42039735099338	1.55761589403974	1.48529801324503			
9	180	-0.248158940397351	0.146754966887417	-0.919523178807947	0.0333774834437086	-0.424635761589404	-1.74490066225166				0.960953642384106	0.0637880794701987	0.141139072847682	-0.406092715231788	-3.61218543046358	-0.0259602649006601				-0.266172185430464	-0.193271523178808	-0.85594701986755	-2.51258278145695	-1.25350993377483	0.91973509933775				0.608529801324503	-0.272529801324503	-0.709721854304636	1.64291390728477	3.2635761589404	-0.335629139072848				0.980026490066225	0.0194966887417219	0.165933774834437	2.7517880794702	1.73192052980133	-0.337483443708608				0.495788079470199	-0.158834437086093	-0.836238410596026	-1.09960264900662	0.437615894039735	-0.474701986754968			
10	200	-0.248158940397351	0.130754966887417	-0.935523178807947	-0.526622516556291	-0.144635761589404	-1.46490066225166				0.976953642384106	0.0637880794701987	0.141139072847682	0.993907284768212	-2.49218543046358	0.53403973509934				-0.266172185430464	-0.193271523178808	-0.85594701986755	-0.832582781456954	-0.133509933774833	0.0797350993377501				0.592529801324503	-0.288529801324503	-0.725721854304636	3.88291390728477	1.5835761589404	-2.01562913907285				0.980026490066225	0.0194966887417219	0.149933774834437	2.4717880794702	-3.58807947019868	-0.0574834437086077				0.479788079470199	-0.142834437086093	-0.836238410596026	-0.259602649006623	0.157615894039735	-2.15470198675497			
11	220	-0.248158940397351	0.130754966887417	-0.935523178807947	-0.806622516556291	0.695364238410596	-1.46490066225166				0.976953642384106	0.0637880794701987	0.157139072847682	2.11390728476821	0.0278145695364242	0.25403973509934				-0.266172185430464	-0.177271523178808	-0.87194701986755	-0.832582781456954	1.54649006622517	0.35973509933775				0.576529801324503	-0.288529801324503	-0.725721854304636	3.32291390728477	1.0235761589404	-2.29562913907285				0.964026490066225	0.0194966887417219	0.149933774834437	1.3517880794702	-4.98807947019868	-0.617483443708608				0.463788079470199	-0.158834437086093	-0.820238410596026	-1.09960264900662	1.55761589403974	-1.59470198675497			
12	240	-0.248158940397351	0.130754966887417	-0.935523178807947	-0.526622516556291	0.415364238410596	-1.18490066225166				0.992953642384106	0.0637880794701987	0.141139072847682	1.55390728476821	0.307814569536424	0.25403973509934				-0.266172185430464	-0.193271523178808	-0.87194701986755	0.847417218543046	1.26649006622517	0.0797350993377501				0.560529801324503	-0.272529801324503	-0.709721854304636	1.92291390728477	-0.9364238410596	-3.13562913907285				0.948026490066225	0.0354966887417219	0.149933774834437	1.0717880794702	-5.26807947019868	-0.337483443708608				0.447788079470199	-0.142834437086093	-0.820238410596026	-1.65960264900662	1.55761589403974	-1.31470198675497			
13	260	-0.232158940397351	0.130754966887417	-0.935523178807947	-1.08662251655629	0.975364238410596	-0.904900662251656				0.976953642384106	0.0477880794701987	0.173139072847682	1.83390728476821	-1.09218543046358	0.53403973509934				-0.250172185430464	-0.177271523178808	-0.87194701986755	0.567417218543046	-0.413509933774833	-0.76026490066225				0.560529801324503	-0.272529801324503	-0.709721854304636	1.64291390728477	-3.4564238410596	-1.73562913907285				0.948026490066225	0.0354966887417219	0.133933774834437	1.3517880794702	-4.70807947019868	0.502516556291392				0.463788079470199	-0.126834437086093	-0.836238410596026	-1.37960264900662	2.67761589403974	0.365298013245032			
14	280	-0.232158940397351	0.130754966887417	-0.935523178807947	-0.806622516556291	0.415364238410596	-0.904900662251656				0.976953642384106	0.0477880794701987	0.157139072847682	1.83390728476821	0.0278145695364242	0.81403973509934				-0.266172185430464	-0.193271523178808	-0.85594701986755	0.00741721854304636	0.426490066225167	-1.04026490066225				0.560529801324503	-0.272529801324503	-0.709721854304636	3.88291390728477	-3.1764238410596	-2.29562913907285				0.964026490066225	0.0354966887417219	0.149933774834437	2.7517880794702	-4.70807947019868	-0.337483443708608				0.463788079470199	-0.126834437086093	-0.836238410596026	-0.819602649006623	1.55761589403974	0.925298013245032			
15	300	-0.248158940397351	0.146754966887417	-0.951523178807947	0.873377483443709	0.135364238410596	-0.344900662251656				0.976953642384106	0.0797880794701987	0.157139072847682	2.95390728476821	1.42781456953642	0.81403973509934				-0.250172185430464	-0.177271523178808	-0.87194701986755	0.00741721854304636	2.66649006622517	-0.48026490066225				0.576529801324503	-0.272529801324503	-0.725721854304636	5.28291390728477	-2.3364238410596	-2.57562913907285				0.948026490066225	0.0354966887417219	0.133933774834437	1.3517880794702	-4.70807947019868	0.782516556291392				0.463788079470199	-0.142834437086093	-0.820238410596026	-0.259602649006623	0.997615894039735	0.925298013245032			
16	320	-0.232158940397351	0.146754966887417	-0.935523178807947	-0.526622516556291	0.695364238410596	-0.904900662251656				0.992953642384106	0.0637880794701987	0.157139072847682	2.11390728476821	-0.252185430463576	1.09403973509934				-0.250172185430464	-0.193271523178808	-0.88794701986755	1.12741721854305	2.94649006622517	-0.76026490066225				0.544529801324503	-0.272529801324503	-0.725721854304636	5.00291390728477	-1.4964238410596	-3.69562913907285				0.948026490066225	0.0354966887417219	0.133933774834437	2.1917880794702	-5.26807947019868	-0.0574834437086077				0.431788079470199	-0.142834437086093	-0.788238410596027	-4.17960264900662	0.717615894039735	1.76529801324503			
17	340	-0.232158940397351	0.146754966887417	-0.919523178807947	0.313377483443709	0.695364238410596	-0.0649006622516557				0.992953642384106	0.0637880794701987	0.173139072847682	2.39390728476821	-8.65218543046358	2.49403973509934				-0.250172185430464	-0.209271523178808	-0.85594701986755	1.12741721854305	-2.37350993377483	-1.32026490066225				0.544529801324503	-0.288529801324503	-0.725721854304636	5.00291390728477	-3.1764238410596	-5.37562913907285				0.932026490066225	0.0194966887417219	0.149933774834437	3.3117880794702	-3.30807947019868	-0.617483443708608				0.447788079470199	-0.126834437086093	-0.820238410596026	-5.85960264900662	-1.24238410596026	0.365298013245032			
18	360	-0.216158940397351	0.146754966887417	-0.935523178807947	0.313377483443709	-0.144635761589404	0.215099337748344				1.05695364238411	0.0477880794701987	0.221139072847682	5.19390728476821	-26.8521854304636	4.45403973509934				-0.234172185430464	-0.209271523178808	-0.85594701986755	1.68741721854305	0.146490066225167	-2.16026490066225				0.560529801324503	-0.288529801324503	-0.741721854304636	1.64291390728477	-9.8964238410596	-7.33562913907285				0.932026490066225	0.0354966887417219	0.133933774834437	2.1917880794702	0.891920529801325	-1.45748344370861				0.447788079470199	-0.158834437086093	-0.836238410596026	-8.09960264900662	0.157615894039735	3.44529801324503			
19	380	-0.232158940397351	0.146754966887417	-0.919523178807947	-1.08662251655629	-0.704635761589404	-0.624900662251656				1.02495364238411	0.0317880794701987	0.173139072847682	12.1939072847682	-74.1721854304636	6.41403973509934				-0.234172185430464	-0.193271523178808	-0.83994701986755	-1.95258278145695	-1.25350993377483	-2.44026490066225				0.560529801324503	-0.272529801324503	-0.757721854304636	-5.35708609271523	-11.8564238410596	-9.01562913907285				0.948026490066225	0.0194966887417219	0.101933774834437	1.3517880794702	1.73192052980133	-1.73748344370861				0.415788079470199	-0.174834437086093	-0.804238410596027	-11.4596026490066	-1.24238410596026	4.28529801324503			
20	400	-0.232158940397351	0.114754966887417	-0.935523178807947	-0.806622516556291	-0.704635761589404	-0.344900662251656				0.816953642384106	0.0637880794701987	-0.00286092715231785	12.4739072847682	-53.7321854304636	4.45403973509934				-0.266172185430464	-0.177271523178808	-0.88794701986755	-2.51258278145695	-0.693509933774834	-0.48026490066225				0.576529801324503	-0.256529801324503	-0.773721854304636	-4.23708609271523	-13.5364238410596	-14.8956291390728				0.932026490066225	0.0194966887417219	0.117933774834437	1.0717880794702	3.69192052980133	-3.41748344370861				0.415788079470199	-0.142834437086093	-0.804238410596027	-14.5396026490066	1.27761589403974	4.28529801324503			
21	420	-0.248158940397351	0.146754966887417	-0.935523178807947	-2.48662251655629	-1.2646357615894	-0.624900662251656				0.944953642384106	0.0637880794701987	0.0451390728476822	4.63390728476821	-10.3321854304636	3.33403973509934				-0.250172185430464	-0.209271523178808	-0.87194701986755	2.24741721854305	-0.693509933774834	-1.04026490066225				0.544529801324503	-0.288529801324503	-0.757721854304636	-5.91708609271523	-14.3764238410596	-17.1356291390729				0.916026490066225	0.0194966887417219	0.101933774834437	1.3517880794702	5.93192052980133	-3.97748344370861				0.399788079470199	-0.110834437086093	-0.836238410596026	-17.0596026490066	3.51761589403974	8.20529801324503			
22	440	-0.248158940397351	0.130754966887417	-0.935523178807947	-2.48662251655629	-0.144635761589404	0.495099337748344				0.992953642384106	0.0637880794701987	0.0771390728476822	0.993907284768212	-7.81218543046358	3.61403973509934				-0.266172185430464	-0.193271523178808	-0.85594701986755	3.64741721854305	-1.81350993377483	-1.32026490066225				0.512529801324503	-0.288529801324503	-0.725721854304636	-10.9570860927152	-14.3764238410596	-17.6956291390729				0.932026490066225	0.0194966887417219	0.133933774834437	1.6317880794702	10.4119205298013	-5.09748344370861				0.431788079470199	-0.0948344370860927	-0.836238410596026	-10.6196026490066	4.35761589403974	9.88529801324503			
23	460	-0.248158940397351	0.130754966887417	-0.919523178807947	-6.40662251655629	-0.704635761589404	0.775099337748344				0.976953642384106	0.0637880794701987	0.0611390728476822	0.713907284768212	-5.01218543046358	2.49403973509934				-0.266172185430464	-0.177271523178808	-0.85594701986755	0.567417218543046	-0.693509933774834	-0.48026490066225				0.528529801324503	-0.256529801324503	-0.757721854304636	-13.7570860927152	-12.9764238410596	-15.1756291390728				0.964026490066225	0.0354966887417219	0.133933774834437	1.3517880794702	12.6519205298013	-6.49748344370861				0.415788079470199	-0.110834437086093	-0.820238410596026	-4.45960264900662	6.31761589403974	10.725298013245			
24	480	-0.248158940397351	0.146754966887417	-0.935523178807947	-2.48662251655629	-0.424635761589404	1.05509933774834				0.992953642384106	0.0637880794701987	0.109139072847682	2.39390728476821	-3.05218543046358	1.37403973509934				-0.266172185430464	-0.177271523178808	-0.85594701986755	0.847417218543046	-0.133509933774833	0.63973509933775				0.560529801324503	-0.320529801324503	-0.805721854304636	-8.15708609271523	-12.6964238410596	-14.6156291390728				0.948026490066225	0.0514966887417219	0.133933774834437	2.4717880794702	12.6519205298013	-5.93748344370861				0.447788079470199	-0.110834437086093	-0.868238410596026	1.42039735099338	6.31761589403974	11.845298013245			
25	500	-0.232158940397351	0.130754966887417	-0.935523178807947	0.873377483443709	0.695364238410596	1.05509933774834				0.960953642384106	0.0477880794701987	0.0611390728476822	3.51390728476821	2.82781456953642	2.21403973509934				-0.250172185430464	-0.209271523178808	-0.88794701986755	2.52741721854305	0.146490066225167	0.35973509933775				0.528529801324503	-0.304529801324503	-0.789721854304636	-11.5170860927152	-6.2564238410596	-16.0156291390729				0.964026490066225	0.0354966887417219	0.0859337748344371	4.1517880794702	14.3319205298013	-5.65748344370861				0.463788079470199	-0.142834437086093	-0.852238410596026	6.18039735099338	4.07761589403974	10.725298013245			
26	520	-0.232158940397351	0.130754966887417	-0.919523178807947	-1.92662251655629	0.415364238410596	0.215099337748344				0.992953642384106	0.0477880794701987	0.0611390728476822	0.993907284768212	8.98781456953643	2.21403973509934				-0.250172185430464	-0.193271523178808	-0.87194701986755	3.92741721854305	-0.973509933774833	0.0797350993377501				0.496529801324503	-0.288529801324503	-0.773721854304636	-11.2370860927152	-4.5764238410596	-16.5756291390728				0.964026490066225	0.0194966887417219	0.117933774834437	4.1517880794702	17.6919205298013	-7.33748344370861				0.479788079470199	-0.142834437086093	-0.868238410596026	1.14039735099338	2.39761589403974	13.525298013245			
27	540	-0.248158940397351	0.130754966887417	-0.951523178807947	-2.48662251655629	-2.1046357615894	0.775099337748344				0.976953642384106	0.0317880794701987	0.0451390728476822	-0.406092715231788	9.54781456953642	1.93403973509934				-0.266172185430464	-0.193271523178808	-0.85594701986755	2.80741721854305	-2.37350993377483	-0.76026490066225				0.496529801324503	-0.224529801324503	-0.773721854304636	-14.0370860927152	-4.5764238410596	-17.4156291390728				0.996026490066225	0.0194966887417219	0.149933774834437	1.9117880794702	17.4119205298013	-6.77748344370861				0.479788079470199	-0.158834437086093	-0.868238410596026	-5.85960264900662	6.03761589403974	17.165298013245			
28	560	-0.248158940397351	0.146754966887417	-0.951523178807947	0.313377483443709	-2.3846357615894	0.495099337748344				0.960953642384106	0.0317880794701987	0.0131390728476822	-1.80609271523179	14.8678145695364	0.53403973509934				-0.282172185430464	-0.177271523178808	-0.85594701986755	0.847417218543046	-2.37350993377483	-0.76026490066225				0.544529801324503	-0.240529801324503	-0.789721854304636	-13.4770860927152	-8.2164238410596	-13.4956291390728				0.996026490066225	0.0354966887417219	0.181933774834437	1.0717880794702	17.6919205298013	-6.21748344370861				0.495788079470199	-0.174834437086093	-0.884238410596026	-2.49960264900662	5.19761589403974	17.725298013245			
29	580	-0.280158940397351	0.130754966887417	-0.935523178807947	0.0333774834437086	-0.984635761589404	-0.0649006622516557				1.02495364238411	0.0317880794701987	0.0611390728476822	-2.92609271523179	22.4278145695364	0.53403973509934				-0.282172185430464	-0.209271523178808	-0.87194701986755	2.52741721854305	-1.53350993377483	-0.48026490066225				0.544529801324503	-0.272529801324503	-0.805721854304636	-5.63708609271523	-7.9364238410596	-9.29562913907285				1.01202649006623	0.0514966887417219	0.117933774834437	-3.1282119205298	6.49192052980132	-5.09748344370861				0.495788079470199	-0.126834437086093	-0.932238410596026	-4.73960264900662	7.71761589403974	18.845298013245			
30	600	-0.280158940397351	0.130754966887417	-0.935523178807947	-2.76662251655629	0.135364238410596	1.05509933774834				1.02495364238411	0.0477880794701987	0.0291390728476822	-4.04609271523179	16.5478145695364	0.53403973509934				-0.282172185430464	-0.209271523178808	-0.87194701986755	2.52741721854305	-0.973509933774833	-1.60026490066225				0.544529801324503	-0.272529801324503	-0.853721854304636	0.242913907284768	-5.9764238410596	-8.45562913907285				0.996026490066225	0.0514966887417219	0.117933774834437	-4.5282119205298	7.61192052980133	-3.97748344370861				0.479788079470199	-0.0948344370860927	-0.964238410596026	1.42039735099338	7.43761589403974	23.325298013245			
31	620	-0.248158940397351	0.130754966887417	-0.919523178807947	-6.96662251655629	2.0953642384106	2.45509933774835				0.992953642384106	0.0477880794701987	0.0611390728476822	-4.32609271523179	14.3078145695364	0.81403973509934				-0.250172185430464	-0.193271523178808	-0.85594701986755	3.92741721854305	-2.37350993377483	-1.32026490066225				0.544529801324503	-0.240529801324503	-0.853721854304636	4.72291390728477	-10.4564238410596	-9.57562913907285				0.980026490066225	0.0674966887417219	0.149933774834437	-5.0882119205298	11.5319205298013	-4.53748344370861				0.463788079470199	-0.158834437086093	-0.948238410596026	19.3403973509934	-5.72238410596027	24.445298013245			
32	640	-0.200158940397351	0.114754966887417	-0.935523178807947	-6.68662251655629	1.8153642384106	3.01509933774834				0.992953642384106	0.0317880794701987	0.125139072847682	0.993907284768212	7.58781456953643	2.49403973509934				-0.202172185430464	-0.257271523178808	-0.83994701986755	5.88741721854305	-0.693509933774834	0.35973509933775				0.608529801324503	-0.256529801324503	-0.901721854304636	-3.67708609271523	-25.2964238410596	-13.4956291390728				1.01202649006623	0.0194966887417219	0.117933774834437	-2.5682119205298	6.77192052980133	-3.97748344370861				0.447788079470199	-0.222834437086093	-0.964238410596026	18.5003973509934	-14.6823841059603	28.365298013245			
33	660	-0.200158940397351	0.130754966887417	-0.951523178807947	-8.64662251655629	-2.1046357615894	4.69509933774834				0.960953642384106	0.0317880794701987	0.0131390728476822	6.03390728476821	0.867814569536424	3.05403973509934				-0.202172185430464	-0.369271523178808	-0.83994701986755	1.68741721854305	-0.693509933774834	4.55973509933775				0.592529801324503	-0.288529801324503	-0.901721854304636	-8.71708609271523	-35.3764238410596	-18.8156291390729				1.02802649006623	0.0354966887417219	0.117933774834437	-1.7282119205298	0.891920529801325	-2.01748344370861				0.447788079470199	-0.174834437086093	-1.04423841059603	0.300397350993377	-13.2823841059603	41.245298013245			
34	680	-0.264158940397351	0.162754966887417	-0.951523178807947	-9.20662251655629	-6.3046357615894	5.25509933774834				0.944953642384106	0.0317880794701987	-0.0188609271523178	-0.686092715231788	12.3478145695364	2.49403973509934				-0.266172185430464	-0.369271523178808	-0.83994701986755	-9.51258278145695	-2.65350993377483	10.9997350993378				0.576529801324503	-0.256529801324503	-0.997721854304636	-10.6770860927152	-42.0964238410596	-20.7756291390729				0.996026490066225	0.0834966887417219	0.0699337748344371	-3.9682119205298	1.17192052980133	-2.29748344370861				0.415788079470199	-0.126834437086093	-1.06023841059603	12.9003973509934	-21.1223841059603	44.045298013245			
35	700	-0.296158940397351	0.146754966887417	-0.967523178807947	-4.44662251655629	-2.1046357615894	6.09509933774834				0.976953642384106	0.0317880794701987	0.0931390728476822	-8.52609271523179	26.9078145695364	3.61403973509934				-0.298172185430464	-0.225271523178808	-0.83994701986755	-20.152582781457	0.986490066225167	13.2397350993378				0.624529801324503	-0.304529801324503	-1.01372185430464	-14.3170860927152	-67.2964238410596	-19.9356291390729				0.948026490066225	0.0994966887417219	0.0859337748344371	2.4717880794702	10.1319205298013	-0.337483443708608				0.367788079470199	-0.142834437086093	-1.01223841059603	21.0203973509934	-41.5623841059603	44.885298013245			
36	720	-0.296158940397351	0.146754966887417	-0.951523178807947	-4.44662251655629	-0.704635761589404	5.81509933774834				1.00895364238411	0.0317880794701987	0.157139072847682	-8.24609271523179	32.7878145695364	3.05403973509934				-0.314172185430464	-0.113271523178808	-0.88794701986755	-9.51258278145695	1.54649006622517	11.2797350993378				0.608529801324503	-0.304529801324503	-0.997721854304636	-50.4370860927152	-99.4964238410596	-22.4556291390729				0.980026490066225	0.0834966887417219	0.0699337748344371	10.8717880794702	21.6119205298013	2.74251655629139				0.335788079470199	-0.206834437086093	-1.04423841059603	11.2203973509934	-49.9623841059603	53.845298013245			
37	740	-0.312158940397351	0.146754966887417	-0.919523178807947	-8.92662251655629	-0.984635761589404	4.97509933774835				1.05695364238411	0.0477880794701987	0.109139072847682	1.55390728476821	27.4678145695364	7.25403973509934				-0.330172185430464	-0.113271523178808	-0.90394701986755	-4.47258278145695	-0.413509933774833	10.1597350993378				0.544529801324503	-0.288529801324503	-1.02972185430464	-66.1170860927152	-113.21642384106	-32.5356291390729				1.02802649006623	0.0514966887417219	0.0859337748344371	12.2717880794702	24.6919205298013	4.42251655629139				0.367788079470199	-0.222834437086093	-1.10823841059603	9.54039735099338	-49.6823841059603	61.965298013245			
38	760	-0.296158940397351	0.178754966887417	-0.887523178807947	-10.0466225165563	0.695364238410596	5.53509933774834				1.05695364238411	0.0477880794701987	0.0131390728476822	8.83390728476821	24.6678145695364	10.0540397350993				-0.346172185430464	-0.161271523178808	-0.88794701986755	-4.47258278145695	-0.133509933774833	8.19973509933775				0.480529801324503	-0.128529801324503	-1.10972185430464	-65.8370860927152	-126.65642384106	-33.3756291390728				1.01202649006623	0.0354966887417219	0.0859337748344371	11.9917880794702	23.8519205298013	5.54251655629139				0.415788079470199	-0.142834437086093	-1.06023841059603	11.5003973509934	-49.6823841059603	70.925298013245			
39	780	-0.312158940397351	0.194754966887417	-0.935523178807947	-12.8466225165563	0.695364238410596	4.97509933774835				1.04095364238411	0.0797880794701987	-0.00286092715231785	2.39390728476821	29.7078145695364	8.09403973509934				-0.346172185430464	-0.145271523178808	-0.87194701986755	-5.03258278145695	2.66649006622517	7.07973509933775				0.480529801324503	-0.160529801324503	-1.07772185430464	-71.4370860927152	-150.17642384106	-28.8956291390729				1.06002649006623	0.0674966887417219	0.117933774834437	18.7117880794702	19.0919205298013	7.78251655629139				0.399788079470199	-0.174834437086093	-1.06023841059603	33.9003973509934	-77.6823841059603	62.245298013245			
40	800	-0.360158940397351	0.210754966887417	-1.01552317880795	-17.3266225165563	5.1753642384106	6.09509933774834				1.02495364238411	0.0797880794701987	0.0611390728476822	4.07390728476821	32.5078145695364	11.1740397350993				-0.362172185430464	-0.145271523178808	-0.85594701986755	-4.47258278145695	7.42649006622517	6.23973509933775				0.400529801324503	-0.176529801324503	-1.04572185430464	-91.0370860927152	-165.57642384106	-42.8956291390729				1.10802649006623	0.0834966887417219	0.165933774834437	17.5917880794702	14.0519205298013	6.38251655629139				0.383788079470199	-0.334834437086093	-1.07623841059603	47.6203973509934	-87.2023841059603	72.885298013245			
41	820	-0.344158940397351	0.226754966887417	-0.983523178807947	-10.3266225165563	11.0553642384106	6.65509933774834				1.05695364238411	0.0797880794701987	-0.00286092715231785	5.75390728476821	35.3078145695364	12.5740397350993				-0.378172185430464	-0.161271523178808	-0.88794701986755	-1.67258278145695	6.86649006622517	4.83973509933775				0.224529801324503	-0.0325298013245033	-0.965721854304636	-101.677086092715	-164.17642384106	-56.8956291390729				1.14002649006623	0.0194966887417219	0.149933774834437	10.5917880794702	6.49192052980132	6.10251655629139				0.319788079470199	-0.414834437086093	-1.02823841059603	33.0603973509934	-84.1223841059603	87.165298013245			
42	840	-0.296158940397351	0.146754966887417	-0.903523178807947	-31.8866225165563	27.2953642384106	8.89509933774834				1.12095364238411	0.159788079470199	0.109139072847682	4.63390728476821	48.4678145695364	13.6940397350993				-0.394172185430464	-0.145271523178808	-0.98394701986755	1.40741721854305	12.1864900662252	5.39973509933775				0.0965298013245033	-0.0165298013245033	-1.02972185430464	-90.7570860927152	-152.13642384106	-60.2556291390729				1.15602649006623	0.0194966887417219	0.149933774834437	1.6317880794702	-0.508079470198675	4.42251655629139				0.367788079470199	-0.382834437086093	-1.17223841059603	62.7403973509934	-70.1223841059603	89.125298013245			
43	860	-0.344158940397351	0.226754966887417	-0.919523178807947	-25.7266225165563	30.0953642384106	10.8550993377483				1.20095364238411	0.143788079470199	0.269139072847682	2.67390728476821	49.3078145695364	15.3740397350993				-0.410172185430464	-0.129271523178808	-1.04794701986755	12.047417218543	26.1864900662252	5.39973509933775				0.0805298013245033	-0.000529801324503289	-0.949721854304636	-69.4770860927152	-118.81642384106	-63.6156291390729				1.15602649006623	0.115496688741722	0.165933774834437	3.8717880794702	-0.788079470198675	-1.45748344370861				0.383788079470199	-0.398834437086093	-1.07623841059603	57.9803973509934	-97.2823841059603	104.805298013245			
44	880	-0.408158940397351	0.322754966887417	-1.06352317880795	-17.6066225165563	34.8553642384106	17.8550993377483				1.21695364238411	0.0637880794701987	0.333139072847682	5.19390728476821	50.1478145695364	13.9740397350993				-0.458172185430464	-0.0972715231788079	-1.04794701986755	10.927417218543	34.5864900662252	4.27973509933775				0.000529801324503301	0.127470198675497	-0.885721854304636	-63.0370860927152	-111.81642384106	-50.1756291390729				1.15602649006623	0.115496688741722	0.245933774834437	16.7517880794702	8.45192052980133	2.74251655629139				0.335788079470199	-0.398834437086093	-1.01223841059603	61.0603973509934	-123.04238410596	109.845298013245			
45	900	-0.440158940397351	0.290754966887417	-0.999523178807947	-20.6866225165563	47.4553642384106	27.0950993377483				1.31295364238411	-0.000211920529801304	0.333139072847682	-1.24609271523179	52.6678145695364	8.37403973509934				-0.394172185430464	-0.113271523178808	-1.09594701986755	5.04741721854305	42.1464900662252	-3.28026490066225				0.0165298013245033	0.207470198675497	-0.901721854304636	-38.6770860927152	-90.5364238410596	-40.6556291390729				1.17202649006623	0.0994966887417219	0.341933774834437	3.5917880794702	10.6919205298013	3.58251655629139				0.127788079470199	-0.462834437086093	-0.900238410596026	37.8203973509934	-121.36238410596	119.085298013245			
46	920	-0.440158940397351	0.274754966887417	-0.999523178807947	-15.0866225165563	50.2553642384106	29.6150993377483				1.44095364238411	-0.0322119205298013	0.509139072847682	-7.96609271523179	47.3478145695364	4.17403973509934				-0.442172185430464	-0.129271523178808	-1.03194701986755	5.60741721854305	49.1464900662252	-6.08026490066225				0.0805298013245033	0.191470198675497	-1.02972185430464	-9.55708609271523	-61.6964238410596	-19.3756291390728				0	0	0	0	0	0				0	0	0	0	0	0			
47	940	-0.376158940397351	0.258754966887417	-1.09552317880795	-2.76662251655629	61.7353642384106	31.5750993377483				1.52095364238411	-0.112211920529801	0.701139072847682	-14.1260927152318	40.9078145695364	-0.585960264900661				0	0	0	0	0	0				0	0	0	0	0	0				0	0	0	0	0	0				0	0	0	0	0	0			
48	960	-0.184158940397351	0.258754966887417	-1.07952317880795	19.0733774834437	70.4153642384106	32.9750993377484				1.42495364238411	-0.0162119205298013	0.909139072847682	-13.0060927152318	22.9878145695364	-6.74596026490066				-0.234172185430464	-0.289271523178808	-1.06394701986755	13.727417218543	70.7064900662252	-13.3602649006623				0.176529801324503	0.191470198675497	-1.12572185430464	14.5229139072848	11.1035761589404	31.0243708609272				1.26802649006623	0.0354966887417219	0.709933774834437	-0.328211920529802	14.3319205298013	12.8225165562914				0.175788079470199	-0.670834437086093	-0.740238410596026	10.9403973509934	-35.1223841059603	52.165298013245			
49	980	-0.040158940397351	0.274754966887417	-1.11152317880795	25.7933774834437	82.4553642384106	29.8950993377483				1.37695364238411	-0.0322119205298013	0.717139072847682	-13.5660927152318	-11.4521854304636	-5.06596026490066				-0.0581721854304636	-0.353271523178808	-1.01594701986755	0.00741721854304636	82.7464900662252	-18.1202649006623				0.192529801324503	0.351470198675497	-1.15772185430464	14.8029139072848	36.0235761589404	43.3443708609272				1.25202649006623	0.0354966887417219	0.661933774834437	-15.4482119205298	15.7319205298013	6.94251655629139				0.175788079470199	-0.686834437086093	-0.772238410596026	-22.0996026490066	7.71761589403974	32.005298013245			
50	1000	0.103841059602649	0.258754966887417	-1.07952317880795	32.7933774834437	92.2553642384106	25.1350993377483				1.24895364238411	0.0797880794701987	0.493139072847682	-2.08609271523179	-13.6921854304636	-3.10596026490066				-0.0581721854304636	-0.385271523178808	-1.03194701986755	-9.23258278145695	91.7064900662252	-18.9602649006623				0.288529801324503	0.351470198675497	-1.17372185430464	41.9629139072848	36.5835761589404	51.4643708609272				1.22002649006623	0.0994966887417219	0.597933774834437	-13.4882119205298	9.01192052980133	4.70251655629139				0.223788079470199	-0.558834437086093	-0.836238410596026	-35.5396026490066	36.8376158940397	13.245298013245			
51	1020	0.151841059602649	0.290754966887417	-1.07952317880795	50.9933774834437	94.2153642384106	22.0550993377483				1.12095364238411	-0.000211920529801304	0.429139072847682	10.7939072847682	-22.3721854304636	1.93403973509934				-0.0261721854304636	-0.161271523178808	-1.01594701986755	-21.552582781457	98.9864900662252	-16.1602649006623				0.416529801324503	0.111470198675497	-1.33372185430464	71.9229139072848	30.7035761589404	52.3043708609272				1.14002649006623	0.147496688741722	0.565933774834437	-13.4882119205298	-3.02807947019868	4.98251655629139				0.271788079470199	-0.462834437086093	-0.916238410596027	-23.7796026490066	59.2376158940397	-8.31470198675497			
52	1040	0.183841059602649	0.0187549668874172	-1.12752317880795	36.1533774834437	100.935364238411	18.4150993377483				1.24895364238411	0.0157880794701987	0.429139072847682	-11.0460927152318	-9.21218543046358	8.37403973509934				0.0698278145695364	-0.145271523178808	-1.03194701986755	2.24741721854305	104.586490066225	-14.2002649006623				0.464529801324503	-0.000529801324503289	-1.38172185430464	44.4829139072848	27.9035761589404	45.8643708609272				1.12402649006623	0.147496688741722	0.533933774834437	-10.1282119205298	-5.82807947019868	3.02251655629139				0.207788079470199	-0.590834437086093	-0.980238410596026	17.9403973509934	58.1176158940397	-23.154701986755			
53	1060	0.183841059602649	0.114754966887417	-1.09552317880795	16.2733774834437	111.575364238411	15.0550993377483				1.32895364238411	0.0477880794701987	0.477139072847682	-24.4860927152318	-25.7321854304636	15.6540397350993				0.165827814569536	-0.257271523178808	-0.98394701986755	10.367417218543	113.266490066225	-17.8402649006623				0.400529801324503	0.0154701986754967	-1.28572185430464	-12.0770860927152	28.4635761589404	41.1043708609272				1.17202649006623	0.131496688741722	0.453933774834437	-10.6882119205298	-1.62807947019868	-1.45748344370861				0.191788079470199	-0.638834437086093	-1.06023841059603	20.7403973509934	58.1176158940397	-20.354701986755			
54	1080	0.135841059602649	0.194754966887417	-1.01552317880795	13.4733774834437	126.135364238411	15.8950993377483				1.23295364238411	-0.0162119205298013	0.509139072847682	-23.0860927152318	-40.0121854304636	19.8540397350993				0.165827814569536	-0.209271523178808	-0.91994701986755	19.8874172185431	123.346490066225	-22.3202649006623				0.304529801324503	0.0954701986754967	-1.18972185430464	-27.1970860927152	40.5035761589404	36.9043708609272				1.17202649006623	0.0994966887417219	0.453933774834437	-6.2082119205298	10.4119205298013	-4.53748344370861				0.223788079470199	-0.606834437086093	-1.10823841059603	-1.37960264900662	56.7176158940397	-14.194701986755			
55	1100	0.231841059602649	0.130754966887417	-0.999523178807947	7.03337748344371	135.935364238411	15.8950993377483				1.20095364238411	-0.0322119205298013	0.477139072847682	-32.0460927152318	-38.0521854304636	13.9740397350993				0.165827814569536	-0.177271523178808	-0.93594701986755	24.3674172185431	128.946490066225	-21.2002649006623				0.208529801324503	0.111470198675497	-1.09372185430464	-9.83708609271523	63.4635761589404	40.8243708609272				1.12402649006623	0.0354966887417219	0.437933774834437	-1.1682119205298	19.0919205298013	-2.57748344370861				0.207788079470199	-0.526834437086093	-1.04423841059603	-18.7396026490066	60.6376158940397	-10.554701986755			
56	1120	0.311841059602649	0.162754966887417	-0.983523178807947	6.19337748344371	138.175364238411	17.2950993377483				1.20095364238411	-0.0322119205298013	0.285139072847682	-12.1660927152318	-49.5321854304636	8.65403973509934				0.245827814569536	-0.241271523178808	-0.91994701986755	17.3674172185431	126.146490066225	-18.6802649006623				0.208529801324503	0.0954701986754967	-0.933721854304636	5.00291390728477	74.3835761589404	42.7843708609272				1.09202649006623	-0.0125033112582781	0.389933774834437	3.8717880794702	19.6519205298013	1.62251655629139				0.143788079470199	-0.478834437086093	-0.948238410596026	-15.6596026490066	70.9976158940397	-9.15470198675497			
57	1140	0.311841059602649	0.146754966887417	-0.903523178807947	11.2333774834437	141.255364238411	15.8950993377483				1.10495364238411	-0.0962119205298013	0.221139072847682	6.59390728476821	-53.7321854304636	9.77403973509934				0.309827814569536	-0.225271523178808	-0.85594701986755	10.647417218543	127.826490066225	-18.9602649006623				0.256529801324503	0.111470198675497	-0.853721854304636	23.2029139072848	74.3835761589404	40.8243708609272				1.04402649006623	0.00349668874172187	0.309933774834437	-9.0082119205298	18.2519205298013	2.18251655629139				0.143788079470199	-0.462834437086093	-0.852238410596026	-12.8596026490066	71.8376158940397	-6.63470198675497			
58	1160	0.343841059602649	0.162754966887417	-0.855523178807947	10.6733774834437	140.695364238411	15.0550993377483				1.02495364238411	-0.0642119205298013	0.173139072847682	1.27390728476821	-53.4521854304636	6.69403973509934				0.293827814569536	-0.193271523178808	-0.79194701986755	4.48741721854305	125.306490066225	-17.5602649006623				0.288529801324503	0.0474701986754967	-0.869721854304636	43.0829139072848	79.1435761589404	43.3443708609272				1.02802649006623	0.0354966887417219	0.309933774834437	-6.4882119205298	12.0919205298013	5.82251655629139				0.175788079470199	-0.446834437086093	-0.852238410596026	-5.85960264900662	70.1576158940397	-13.074701986755			
59	1180	0.423841059602649	0.114754966887417	-0.791523178807947	11.5133774834437	138.735364238411	11.1350993377483				0	0	0	0	0	0				0.373827814569536	-0.113271523178808	-0.74394701986755	0.567417218543046	125.866490066225	-15.6002649006622				0.288529801324503	-0.0165298013245033	-0.853721854304636	58.4829139072848	93.9835761589404	41.9443708609272				0.996026490066225	-0.0285033112582781	0.277933774834437	-5.6482119205298	-2.74807947019868	7.22251655629139				0.207788079470199	-0.382834437086093	-0.852238410596026	3.38039735099338	70.9976158940397	-17.554701986755			
60	1200	0.423841059602649	0.0987549668874172	-0.807523178807947	7.87337748344371	131.175364238411	7.49509933774834				0.896953642384106	0.0317880794701987	0.0771390728476822	-2.64609271523179	-69.9721854304636	6.41403973509934				0.437827814569536	-0.145271523178808	-0.74394701986755	1.12741721854305	128.106490066225	-15.8802649006623				0.288529801324503	-0.0485298013245033	-0.789721854304636	58.7629139072848	107.70357615894	37.4643708609272				0.932026490066225	-0.0125033112582781	0.213933774834437	-12.3682119205298	-19.5480794701987	8.06251655629139				0.207788079470199	-0.366834437086093	-0.788238410596027	7.30039735099338	75.7576158940397	-19.234701986755			
61	1220	0.407841059602649	0.0987549668874172	-0.759523178807947	6.19337748344371	122.775364238411	4.13509933774834				0.784953642384106	-0.000211920529801304	-0.0508609271523178	14.4339072847682	-63.8121854304636	4.45403973509934				0.453827814569536	-0.113271523178808	-0.69594701986755	-5.31258278145695	130.906490066225	-22.0402649006623				0.272529801324503	-0.0645298013245033	-0.789721854304636	62.1229139072848	107.98357615894	32.7043708609272				0.884026490066225	0.00349668874172187	0.197933774834437	-6.7682119205298	-24.5880794701987	10.3025165562914				0.223788079470199	-0.334834437086093	-0.724238410596026	0.300397350993377	72.9576158940397	-24.554701986755			
62	1240	0.423841059602649	0.162754966887417	-0.743523178807947	8.15337748344371	118.015364238411	0.215099337748344				0.832953642384106	-0.0962119205298013	-0.0348609271523178	-1.24609271523179	-45.8921854304636	6.41403973509934				0.405827814569536	-0.0812715231788079	-0.63194701986755	-12.312582781457	135.106490066225	-32.9602649006623				0.240529801324503	-0.0485298013245033	-0.773721854304636	68.5629139072848	107.98357615894	28.5043708609272				0.836026490066225	0.00349668874172187	0.181933774834437	-5.3682119205298	-29.9080794701987	13.1025165562914				0.191788079470199	-0.302834437086093	-0.708238410596026	-21.2596026490066	68.7576158940397	-36.874701986755			
63	1260	0.455841059602649	0.130754966887417	-0.743523178807947	14.0333774834437	119.695364238411	-2.86490066225166				0.816953642384106	-0.0482119205298013	0.0611390728476822	-6.00609271523179	-45.0521854304636	10.8940397350993				0.245827814569536	-0.0652715231788079	-0.61594701986755	-15.392582781457	137.066490066225	-35.2002649006623				0.272529801324503	-0.0645298013245033	-0.709721854304636	73.8829139072848	101.26357615894	17.8643708609272				0.724026490066225	-0.0445033112582781	0.181933774834437	-3.4082119205298	-40.5480794701987	16.4625165562914				0.191788079470199	-0.190834437086093	-0.724238410596026	-30.2196026490066	80.7976158940397	-44.994701986755			
64	1280	0.487841059602649	0.0987549668874172	-0.679523178807947	10.9533774834437	123.055364238411	-1.18490066225166				0.752953642384106	0.0157880794701987	-0.0188609271523178	6.59390728476821	-63.5321854304636	1.93403973509934				0.405827814569536	-0.0812715231788079	-0.63194701986755	-6.43258278145695	138.466490066225	-26.5202649006623				0.304529801324503	-0.112529801324503	-0.677721854304636	65.4829139072848	86.4235761589404	6.66437086092715				0.660026490066225	-0.0445033112582781	0.149933774834437	-6.7682119205298	-44.1880794701987	18.4225165562914				0.207788079470199	-0.206834437086093	-0.644238410596026	-17.6196026490066	74.6376158940397	-36.874701986755			
65	1300	0.487841059602649	0.0827549668874172	-0.631523178807947	18.2333774834437	121.935364238411	4.97509933774835				0.688953642384106	0.0797880794701987	-0.0988609271523179	16.6739072847682	-54.2921854304636	-2.54596026490066				0.453827814569536	-0.161271523178808	-0.61594701986755	-22.112582781457	138.746490066225	-20.9202649006623				0.336529801324503	-0.176529801324503	-0.629721854304636	55.6829139072848	68.5035761589404	-2.01562913907285				0.660026490066225	-0.0285033112582781	0.133933774834437	-10.1282119205298	-41.1080794701987	15.9025165562914				0.207788079470199	-0.286834437086093	-0.660238410596027	-1.09960264900662	64.8376158940397	-29.874701986755			
66	1320	0.487841059602649	0.0667549668874172	-0.679523178807947	14.0333774834437	122.495364238411	8.89509933774834				0.720953642384106	0.0637880794701987	-0.0188609271523178	8.27390728476821	-47.8521854304636	-0.30596026490066				0.453827814569536	-0.0492715231788079	-0.61594701986755	-24.912582781457	140.986490066225	-19.5202649006623				0.352529801324503	-0.176529801324503	-0.613721854304636	47.0029139072848	58.9835761589404	-7.61562913907285				0.692026490066225	0.0194966887417219	0.117933774834437	-14.6082119205298	-40.2680794701987	12.2625165562914				0.271788079470199	-0.334834437086093	-0.612238410596026	-16.7796026490066	62.8776158940397	-27.354701986755			
67	1340	0.503841059602649	0.0347549668874172	-0.599523178807947	13.1933774834437	126.695364238411	11.1350993377483				0.688953642384106	0.0157880794701987	-0.0508609271523178	11.0739072847682	-51.7721854304636	-2.26596026490066				0.533827814569536	-0.0172715231788079	-0.63194701986755	-15.392582781457	142.106490066225	-21.2002649006623				0.352529801324503	-0.160529801324503	-0.581721854304636	49.8029139072848	63.1835761589404	-11.2556291390728				0.676026490066225	0.0514966887417219	0.0859337748344371	-12.9282119205298	-39.7080794701987	13.1025165562914				0.287788079470199	-0.238834437086093	-0.580238410596026	-41.9796026490066	60.0776158940397	-29.314701986755			
68	1360	0.519841059602649	0.0507549668874172	-0.503523178807947	14.3133774834437	124.455364238411	8.33509933774834				0.688953642384106	0.0157880794701987	-0.194860927152318	22.8339072847682	-47.0121854304636	-4.22596026490066				0.613827814569536	0.0147284768211921	-0.56794701986755	-5.87258278145695	143.786490066225	-23.4402649006623				0.368529801324503	-0.144529801324503	-0.533721854304636	47.8429139072848	65.4235761589404	-8.45562913907285				0.708026490066225	0.00349668874172187	0.0539337748344371	-2.0082119205298	-40.8280794701987	16.1825165562914				0.255788079470199	-0.126834437086093	-0.612238410596026	-44.4996026490066	56.9976158940397	-34.354701986755			
69	1380	0.583841059602649	0.146754966887417	-0.551523178807947	6.19337748344371	124.455364238411	4.13509933774834				0.640953642384106	0.0797880794701987	-0.0988609271523179	21.4339072847682	-45.3321854304636	-4.78596026490066				0.581827814569536	-0.00127152317880793	-0.48794701986755	-7.27258278145696	147.146490066225	-22.8802649006623				0.400529801324503	-0.128529801324503	-0.501721854304636	56.8029139072848	62.9035761589404	-3.69562913907285				0.708026490066225	0.00349668874172187	0.0699337748344371	0.791788079470198	-45.5880794701987	15.3425165562914				0.223788079470199	-0.0628344370860927	-0.612238410596026	-29.0996026490066	56.1576158940397	-34.074701986755			
70	1400	0.647841059602649	0.146754966887417	-0.391523178807947	10.6733774834437	124.455364238411	8.33509933774834				0.640953642384106	-0.000211920529801304	0.0131390728476822	4.63390728476821	-40.5721854304636	-0.30596026490066				0.565827814569536	-0.129271523178808	-0.50394701986755	-7.83258278145695	135.666490066225	-27.9202649006623				0.448529801324503	-0.112529801324503	-0.597721854304636	73.6029139072848	57.8635761589404	-1.45562913907285				0.660026490066225	0.0354966887417219	0.117933774834437	5.5517880794702	-53.9880794701987	13.9425165562914				0.303788079470199	-0.0948344370860927	-0.628238410596026	3.38039735099338	48.3176158940397	-32.954701986755			
71	1420	0.631841059602649	0.114754966887417	-0.487523178807947	5.07337748344371	121.655364238411	12.8150993377483				0.656953642384106	0.0157880794701987	0.0291390728476822	7.71390728476821	-41.9721854304636	1.93403973509934				0.613827814569536	-0.161271523178808	-0.47194701986755	-17.072582781457	138.466490066225	-24.0002649006623				0.432529801324503	-0.176529801324503	-0.581721854304636	87.3229139072848	60.3835761589404	1.34437086092715				0.692026490066225	0.0194966887417219	0.101933774834437	11.4317880794702	-66.0280794701987	14.2225165562914				0.303788079470199	-0.158834437086093	-0.644238410596026	4.22039735099338	36.8376158940397	-30.994701986755			
72	1440	0.711841059602649	0.226754966887417	-0.423523178807947	18.7933774834437	125.855364238411	11.6950993377483				0.736953642384106	0.0317880794701987	0.0131390728476822	18.3539072847682	-26.5721854304636	0.25403973509934				0.677827814569536	-0.273271523178808	-0.35994701986755	-38.632582781457	137.626490066225	-4.96026490066225				0.448529801324503	-0.240529801324503	-0.517721854304636	85.6429139072848	53.1035761589404	2.74437086092715				0.692026490066225	0.00349668874172187	0.0219337748344371	15.0717880794702	-78.0680794701987	16.1825165562914				0.287788079470199	-0.206834437086093	-0.660238410596027	-14.5396026490066	28.9976158940397	-32.674701986755			
73	1460	0.807841059602649	0.226754966887417	-0.343523178807947	28.8733774834437	121.935364238411	2.73509933774834				0.688953642384106	0.0317880794701987	-0.0508609271523178	8.83390728476821	-41.1321854304636	-6.46596026490066				0.645827814569536	-0.209271523178808	-0.39194701986755	-63.272582781457	128.946490066225	5.11973509933775				0.432529801324503	-0.288529801324503	-0.533721854304636	69.1229139072848	36.0235761589404	-2.29562913907285				0.644026490066225	-0.0285033112582781	-0.0100662251655629	13.3917880794702	-73.3080794701987	14.7825165562914				0.287788079470199	-0.190834437086093	-0.644238410596026	-38.8996026490066	27.8776158940397	-28.474701986755			
74	1480	0.775841059602649	0.194754966887417	-0.343523178807947	23.8333774834437	116.615364238411	6.65509933774834				0.656953642384106	-0.0962119205298013	-0.162860927152318	-4.04609271523179	-34.4121854304636	-0.30596026490066				0.789827814569536	-0.0172715231788079	-0.32794701986755	-72.512582781457	123.626490066225	4.55973509933775				0.448529801324503	-0.352529801324503	-0.565721854304636	56.5229139072848	23.9835761589404	-1.73562913907285				0.676026490066225	-0.0605033112582781	-0.0580662251655629	14.2317880794702	-63.2280794701987	12.5425165562914				0.319788079470199	-0.126834437086093	-0.660238410596027	-38.0596026490066	29.5576158940397	-24.554701986755			
75	1500	0.631841059602649	0.0987549668874172	-0.359523178807947	31.9533774834437	116.615364238411	8.05509933774835				0.624953642384106	0.0157880794701987	-0.194860927152318	-0.686092715231788	1.14781456953642	0.81403973509934				0.837827814569536	0.110728476821192	-0.27994701986755	-40.592582781457	104.866490066225	6.51973509933775				0.464529801324503	-0.384529801324503	-0.597721854304636	54.2829139072848	17.2635761589404	-3.97562913907285				0.692026490066225	-0.124503311258278	-0.0580662251655629	22.9117880794702	-48.9480794701987	11.7025165562914				0.367788079470199	-0.110834437086093	-0.692238410596026	-22.0996026490066	20.8776158940397	-17.554701986755			
76	1520	0.855841059602649	0.0347549668874172	-0.295523178807947	37.8333774834437	111.295364238411	3.85509933774834				0.704953642384106	-0.0162119205298013	0.109139072847682	9.95390728476821	19.0678145695364	-3.10596026490066				0.805827814569536	0.110728476821192	-0.40794701986755	-13.432582781457	85.5464900662252	6.23973509933775				0.448529801324503	-0.368529801324503	-0.565721854304636	37.4829139072848	13.6235761589404	-9.57562913907285				0.692026490066225	-0.124503311258278	0.00593377483443711	21.5117880794702	-38.0280794701987	8.90251655629139				0.367788079470199	-0.142834437086093	-0.708238410596026	-7.53960264900662	8.27761589403974	-15.874701986755			
77	1540	0.951841059602649	0.0987549668874172	-0.295523178807947	20.1933774834437	95.3353642384106	1.33509933774834				0.528953642384106	0.127788079470199	0.0931390728476822	-0.406092715231788	-10.3321854304636	-2.82596026490066				1.04582781456954	0.158728476821192	-0.45594701986755	24.927417218543	54.1864900662252	2.87973509933775				0.384529801324503	-0.384529801324503	-0.565721854304636	31.8829139072848	11.6635761589404	-12.3756291390728				0.692026490066225	-0.0605033112582781	-0.0580662251655629	12.2717880794702	-38.0280794701987	3.30251655629139				0.303788079470199	-0.158834437086093	-0.660238410596027	-1.65960264900662	4.91761589403974	-17.834701986755			
78	1560	0.775841059602649	0.00275496688741723	-0.279523178807947	16.5533774834437	94.7753642384106	5.53509933774834				0.848953642384106	-0.0802119205298013	0.0131390728476822	-7.68609271523179	19.3478145695364	-4.78596026490066				0.981827814569536	0.110728476821192	-0.43994701986755	61.3274172185431	0.146490066225167	-3.00026490066225				0.400529801324503	-0.432529801324503	-0.549721854304636	28.8029139072848	10.2635761589404	-9.29562913907285				0.692026490066225	-0.108503311258278	-0.0740662251655629	11.7117880794702	-29.3480794701987	-1.73748344370861				0.287788079470199	-0.142834437086093	-0.628238410596026	-3.05960264900662	10.7976158940397	-17.274701986755			
79	1580	0.839841059602649	-0.0772450331125828	-0.359523178807947	16.5533774834437	83.8553642384106	2.17509933774834				0.800953642384106	0.0957880794701987	0.0771390728476822	2.95390728476821	20.4678145695364	-14.8659602649007				0.869827814569536	-0.0492715231788079	-0.45594701986755	52.927417218543	1.26649006622517	-1.88026490066225				0.432529801324503	-0.432529801324503	-0.549721854304636	31.3229139072848	12.2235761589404	-7.05562913907285				0.708026490066225	-0.156503311258278	-0.0260662251655629	14.7917880794702	-18.1480794701987	-3.41748344370861				0.319788079470199	-0.110834437086093	-0.644238410596026	2.82039735099338	9.67761589403974	-16.994701986755			
80	1600	0.903841059602649	-0.0292450331125828	-0.327523178807947	1.15337748344371	68.4553642384106	-0.624900662251656				0.896953642384106	-0.0962119205298013	-0.0828609271523179	17.5139072847682	-10.0521854304636	-13.1859602649007				0.837827814569536	-0.145271523178808	-0.32794701986755	14.847417218543	11.6264900662252	0.0797350993377501				0.432529801324503	-0.432529801324503	-0.565721854304636	29.6429139072848	16.1435761589404	-7.89562913907285				0.772026490066225	-0.0925033112582781	-0.0740662251655629	6.9517880794702	-17.5880794701987	-6.21748344370861				0.351788079470199	-0.142834437086093	-0.660238410596027	8.70039735099338	9.95761589403974	-21.474701986755			
81	1620	0.951841059602649	-0.0292450331125828	-0.391523178807947	0.593377483443709	54.4553642384106	-3.70490066225166				0.848953642384106	-0.0322119205298013	-0.194860927152318	21.1539072847682	-21.2521854304636	-14.0259602649007				0.805827814569536	-0.225271523178808	-0.19994701986755	7.56741721854305	22.5464900662252	-1.60026490066225				0.480529801324503	-0.400529801324503	-0.565721854304636	22.3629139072848	21.7435761589404	-10.1356291390728				0.820026490066225	-0.108503311258278	-0.0900662251655629	7.2317880794702	-7.78807947019868	-8.45748344370861				0.383788079470199	-0.190834437086093	-0.644238410596026	4.22039735099338	13.0376158940397	-26.794701986755			
82	1640	0.887841059602649	-0.125245033112583	-0.519523178807947	-8.64662251655629	30.6553642384106	4.69509933774834				0.832953642384106	0.111788079470199	-0.0348609271523178	4.63390728476821	20.7478145695364	-15.4259602649007				0.805827814569536	-0.161271523178808	-0.15194701986755	4.20741721854305	19.1864900662252	-1.60026490066225				0.560529801324503	-0.352529801324503	-0.597721854304636	25.7229139072848	26.5035761589404	-10.6956291390728				0.852026490066225	-0.108503311258278	0.00593377483443711	11.1517880794702	-4.14807947019868	-9.29748344370861				0.463788079470199	-0.190834437086093	-0.692238410596026	1.14039735099338	16.6776158940397	-27.634701986755			
83	1660	0.967841059602649	-0.109245033112583	-0.487523178807947	-1.92662251655629	20.0153642384106	5.81509933774834				0.960953642384106	-0.0322119205298013	0.0611390728476822	22.8339072847682	29.7078145695364	-4.78596026490066				0.869827814569536	-0.113271523178808	-0.10394701986755	3.92741721854305	15.8264900662252	-1.32026490066225				0.656529801324503	-0.336529801324503	-0.613721854304636	34.9629139072848	31.5435761589404	-11.2556291390728				0.916026490066225	0.0354966887417219	-0.0580662251655629	7.5117880794702	-4.14807947019868	-9.85748344370861				0.511788079470199	-0.174834437086093	-0.708238410596026	-3.33960264900662	22.2776158940397	-29.594701986755			
84	1680	0.983841059602649	-0.0932450331125828	-0.359523178807947	10.9533774834437	17.7753642384106	4.69509933774834				0.992953642384106	-0.128211920529801	-0.0668609271523178	11.9139072847682	14.8678145695364	-0.585960264900661				0.917827814569536	-0.225271523178808	-0.13594701986755	13.447417218543	12.4664900662252	-4.96026490066225				0.720529801324503	-0.320529801324503	-0.613721854304636	36.9229139072848	30.1435761589404	-13.4956291390728				0.932026490066225	0.00349668874172187	-0.0420662251655629	14.2317880794702	0.0519205298013249	-10.6974834437086				0.543788079470199	-0.142834437086093	-0.724238410596026	-5.01960264900662	27.8776158940397	-27.354701986755			
85	1700	0.919841059602649	-0.0772450331125828	-0.247523178807947	5.35337748344371	11.0553642384106	2.17509933774834				0.976953642384106	-0.0482119205298013	-0.0508609271523178	-0.966092715231788	15.4278145695364	0.81403973509934				0.885827814569536	-0.209271523178808	-0.19994701986755	5.60741721854305	16.6664900662252	-5.24026490066225				0.752529801324503	-0.320529801324503	-0.581721854304636	33.2829139072848	21.1835761589404	-19.3756291390728				0.948026490066225	-0.0765033112582781	0.0219337748344371	14.2317880794702	3.97192052980133	-10.1374834437086				0.607788079470199	-0.222834437086093	-0.708238410596026	3.10039735099338	28.9976158940397	-18.674701986755			
86	1720	0.903841059602649	-0.0772450331125828	-0.167523178807947	4.23337748344371	11.0553642384106	-0.0649006622516557				1.00895364238411	-0.128211920529801	-0.00286092715231785	3.51390728476821	12.6278145695364	5.01403973509934				0.933827814569536	-0.209271523178808	-0.23194701986755	-8.67258278145695	21.1464900662252	-4.68026490066225				0.752529801324503	-0.304529801324503	-0.597721854304636	27.4029139072848	6.9035761589404	-24.1356291390729				1.01202649006623	-0.0285033112582781	0.0379337748344371	12.8317880794702	5.09192052980133	-8.45748344370861				0.687788079470199	-0.318834437086093	-0.724238410596026	11.5003973509934	21.1576158940397	-13.074701986755			
87	1740	0.887841059602649	-0.0932450331125828	-0.039523178807947	-10.0466225165563	13.0153642384106	1.05509933774834				0.992953642384106	-0.224211920529801	-0.0188609271523178	5.47390728476821	4.22781456953642	8.65403973509934				0.997827814569536	-0.257271523178808	-0.26394701986755	-0.272582781456954	24.2264900662252	-5.52026490066225				0.752529801324503	-0.400529801324503	-0.629721854304636	23.7629139072848	0.1835761589404	-22.1756291390729				1.04402649006623	-0.0925033112582781	0.0539337748344371	14.7917880794702	-1.06807947019868	-5.37748344370861				0.767788079470199	-0.318834437086093	-0.772238410596026	6.46039735099338	13.0376158940397	-10.274701986755			
88	1760	0.999841059602649	-0.0612450331125828	-0.103523178807947	-14.5266225165563	16.0953642384106	-2.02490066225166				1.07295364238411	-0.0162119205298013	-0.0188609271523178	-10.2060927152318	6.46781456953642	2.21403973509934				1.06182781456954	-0.273271523178808	-0.27994701986755	4.20741721854305	19.4664900662252	-0.76026490066225				0.704529801324503	-0.480529801324503	-0.613721854304636	16.2029139072848	2.4235761589404	-17.6956291390729				1.06002649006623	-0.156503311258278	0.0539337748344371	10.3117880794702	-8.62807947019868	-2.57748344370861				0.815788079470199	-0.286834437086093	-0.820238410596026	-1.93960264900662	9.11761589403974	-10.554701986755			
89	1780	0.983841059602649	0.0187549668874172	-0.167523178807947	-17.6066225165563	17.2153642384106	-3.42490066225166				1.02495364238411	0.0317880794701987	-0.00286092715231785	-9.36609271523179	14.3078145695364	-0.585960264900661				1.01382781456954	-0.289271523178808	-0.29594701986755	-1.11258278145695	6.58649006622517	7.91973509933775				0.656529801324503	-0.480529801324503	-0.581721854304636	2.48291390728477	-2.0564238410596	-13.7756291390728				1.07602649006623	-0.140503311258278	0.00593377483443711	-2.2882119205298	-10.3080794701987	1.34251655629139				0.783788079470199	-0.270834437086093	-0.820238410596026	3.94039735099338	2.39761589403974	-11.674701986755			
90	1800	0.935841059602649	0.0507549668874172	-0.215523178807947	-5.28662251655629	15.8153642384106	-3.70490066225166				0.992953642384106	-0.0802119205298013	0.0291390728476822	7.99390728476821	19.3478145695364	4.73403973509934				0.949827814569536	-0.209271523178808	-0.29594701986755	-5.59258278145695	1.54649006622517	9.31973509933775				0.624529801324503	-0.432529801324503	-0.613721854304636	-8.43708609271523	-7.9364238410596	-9.01562913907285				0.964026490066225	0.00349668874172187	-0.0100662251655629	-10.9682119205298	-5.54807947019868	2.74251655629139				0.719788079470199	-0.254834437086093	-0.788238410596027	5.34039735099338	-4.60238410596027	-11.114701986755			
91	1820	0.887841059602649	0.00275496688741723	-0.167523178807947	1.15337748344371	10.4953642384106	-3.14490066225166				0.928953642384106	-0.0962119205298013	0.0611390728476822	-2.36609271523179	14.0278145695364	4.45403973509934				0.885827814569536	-0.113271523178808	-0.24794701986755	-19.312582781457	9.66649006622517	7.07973509933775				0.608529801324503	-0.400529801324503	-0.597721854304636	-5.91708609271523	-4.0164238410596	-0.615629139072848				0.852026490066225	-0.0445033112582781	-0.0100662251655629	-2.8482119205298	-0.228079470198675	4.98251655629139				0.623788079470199	-0.222834437086093	-0.756238410596026	-4.45960264900662	-3.48238410596027	-2.99470198675497			
92	1840	0.951841059602649	-0.0932450331125828	-0.247523178807947	1.15337748344371	9.0953642384106	-2.86490066225166				0.960953642384106	0.0157880794701987	0.109139072847682	-13.8460927152318	10.1078145695364	5.01403973509934				0.853827814569536	-0.0172715231788079	-0.18394701986755	-24.632582781457	13.8664900662252	7.35973509933775				0.608529801324503	-0.416529801324503	-0.565721854304636	3.32291390728477	4.1035761589404	8.06437086092715				0.884026490066225	-0.0605033112582781	0.00593377483443711	-0.888211920529802	5.93192052980133	6.10251655629139				0.543788079470199	-0.190834437086093	-0.708238410596026	6.46039735099338	-8.24238410596027	3.16529801324503			
93	1860	0.967841059602649	-0.0772450331125828	-0.263523178807947	-6.12662251655629	10.2153642384106	-1.74490066225166				1.00895364238411	-0.0322119205298013	0.0451390728476822	-13.2860927152318	9.54781456953642	6.41403973509934				0.885827814569536	0.0147284768211921	-0.18394701986755	-7.27258278145696	9.66649006622517	2.87973509933775				0.624529801324503	-0.416529801324503	-0.549721854304636	4.16291390728477	4.6635761589404	10.8643708609272				0.900026490066225	-0.0285033112582781	-0.0100662251655629	-4.5282119205298	12.0919205298013	4.70251655629139				0.511788079470199	-0.222834437086093	-0.660238410596027	8.98039735099338	-11.0423841059603	6.52529801324503			
94	1880	0.935841059602649	0.00275496688741723	-0.199523178807947	-8.08662251655629	12.7353642384106	-2.86490066225166				0.944953642384106	-0.0962119205298013	0.0131390728476822	-3.20609271523179	2.54781456953642	8.37403973509934				0.901827814569536	-0.0172715231788079	-0.24794701986755	6.44741721854305	6.30649006622517	-2.16026490066225				0.672529801324503	-0.368529801324503	-0.565721854304636	-5.91708609271523	1.0235761589404	9.46437086092715				0.884026490066225	-0.0445033112582781	0.0219337748344371	-5.6482119205298	16.8519205298013	1.90251655629139				0.527788079470199	-0.238834437086093	-0.692238410596026	11.2203973509934	-11.3223841059603	8.48529801324503			
95	1900	0.935841059602649	0.0347549668874172	-0.183523178807947	-8.64662251655629	9.9353642384106	-4.82490066225166				0.944953642384106	-0.0642119205298013	-0.0508609271523178	0.713907284768212	-3.61218543046358	7.81403973509934				0.933827814569536	-0.0492715231788079	-0.24794701986755	2.24741721854305	8.82649006622517	-4.68026490066225				0.672529801324503	-0.368529801324503	-0.517721854304636	-18.2370860927152	-0.3764238410596	6.38437086092715				0.932026490066225	-0.124503311258278	0.00593377483443711	-5.3682119205298	19.3719205298013	1.62251655629139				0.559788079470199	-0.222834437086093	-0.676238410596026	7.86039735099338	-3.20238410596026	9.32529801324503			
96	1920	0.983841059602649	0.0347549668874172	-0.199523178807947	-10.3266225165563	1.2553642384106	-3.70490066225166				0.976953642384106	-0.000211920529801304	-0.0188609271523178	-2.36609271523179	4.50781456953642	1.37403973509934				0.933827814569536	-0.0492715231788079	-0.24794701986755	-4.47258278145695	5.74649006622517	-6.08026490066225				0.688529801324503	-0.368529801324503	-0.485721854304636	-18.2370860927152	-0.6564238410596	4.42437086092715				0.964026490066225	-0.108503311258278	0.0379337748344371	-5.3682119205298	17.4119205298013	2.74251655629139				0.559788079470199	-0.254834437086093	-0.676238410596026	6.74039735099338	2.39761589403974	7.36529801324503			
97	1940	0.951841059602649	0.0507549668874172	-0.103523178807947	-9.48662251655629	2.3753642384106	-2.86490066225166				0.976953642384106	-0.000211920529801304	0.0451390728476822	-2.64609271523179	5.62781456953642	-1.14596026490066				0.933827814569536	-0.0492715231788079	-0.24794701986755	-1.11258278145695	3.50649006622517	-7.20026490066225				0.704529801324503	-0.336529801324503	-0.517721854304636	-8.71708609271523	1.0235761589404	3.02437086092715				0.980026490066225	-0.0605033112582781	0.0379337748344371	-8.7282119205298	12.9319205298013	2.46251655629139				0.559788079470199	-0.286834437086093	-0.692238410596026	7.86039735099338	5.47761589403974	3.44529801324503			
98	1960	0.935841059602649	0.0507549668874172	-0.087523178807947	-5.28662251655629	6.0153642384106	-2.30490066225166				0.976953642384106	-0.0162119205298013	0.0451390728476822	-4.04609271523179	7.30781456953642	-1.14596026490066				0.917827814569536	-0.0812715231788079	-0.24794701986755	2.24741721854305	0.986490066225167	-6.08026490066225				0	0	0	0	0	0				0	0	0	0	0	0				0	0	0	0	0	0			
99	1980	0.951841059602649	0.0667549668874172	-0.119523178807947	-5.56662251655629	6.8553642384106	-3.42490066225166				0.992953642384106	-0.000211920529801304	0.0131390728476822	-1.52609271523179	5.34781456953642	-3.38596026490066				0.949827814569536	-0.0652715231788079	-0.23194701986755	-0.272582781456954	2.38649006622517	-2.72026490066225				0	0	0	0	0	0				0	0	0	0	0	0				0	0	0	0	0	0			
100	2000	0.967841059602649	0.0667549668874172	-0.135523178807947	-5.28662251655629	7.1353642384106	-4.26490066225166				1.00895364238411	0.0317880794701987	0.0131390728476822	0.993907284768212	4.50781456953642	-4.22596026490066				0.949827814569536	-0.0492715231788079	-0.21594701986755	-0.552582781456954	1.26649006622517	-3.28026490066225				0.768529801324503	-0.384529801324503	-0.565721854304636	-1.99708609271523	3.2635761589404	5.54437086092715				0.996026490066225	-0.0445033112582781	0.0539337748344371	-6.4882119205298	6.49192052980132	-1.45748344370861				0.591788079470199	-0.238834437086093	-0.740238410596026	0.0203973509933773	-1.52238410596026	2.04529801324503			
101	2020	0.967841059602649	0.0507549668874172	-0.135523178807947	-2.48662251655629	8.2553642384106	-3.70490066225166				0.976953642384106	0.0157880794701987	0.0291390728476822	2.67390728476821	2.26781456953642	-4.22596026490066				0.933827814569536	-0.0332715231788079	-0.21594701986755	4.20741721854305	3.78649006622517	-4.12026490066225				0.752529801324503	-0.368529801324503	-0.549721854304636	-5.07708609271523	1.8635761589404	4.98437086092715				0.980026490066225	-0.0285033112582781	0.0379337748344371	-6.4882119205298	4.25192052980133	-2.57748344370861				0.575788079470199	-0.222834437086093	-0.740238410596026	-1.09960264900662	-2.36238410596027	1.76529801324503			
102	2040	0.935841059602649	0.0507549668874172	-0.135523178807947	-0.806622516556291	7.9753642384106	-2.86490066225166				0.992953642384106	-0.000211920529801304	0.0291390728476822	4.91390728476821	3.66781456953642	-4.50596026490066				0.965827814569536	-0.0172715231788079	-0.19994701986755	2.80741721854305	5.46649006622517	-3.28026490066225				0.736529801324503	-0.336529801324503	-0.565721854304636	-5.35708609271523	1.3035761589404	5.26437086092715				0.964026490066225	-0.0285033112582781	0.0379337748344371	-0.888211920529802	4.25192052980133	-2.85748344370861				0.559788079470199	-0.190834437086093	-0.740238410596026	-2.49960264900662	-3.48238410596027	0.645298013245032			
103	2060	0.983841059602649	0.0347549668874172	-0.151523178807947	2.27337748344371	5.1753642384106	-2.58490066225166				0.960953642384106	0.0637880794701987	0.0451390728476822	9.39390728476821	7.30781456953642	-6.18596026490066				0.949827814569536	-0.0332715231788079	-0.21594701986755	4.76741721854305	4.06649006622517	-2.72026490066225				0.752529801324503	-0.352529801324503	-0.549721854304636	-4.79708609271523	-3.1764238410596	4.14437086092715				0.964026490066225	-0.0285033112582781	0.0379337748344371	2.1917880794702	5.09192052980133	-3.69748344370861				0.543788079470199	-0.174834437086093	-0.740238410596026	0.300397350993377	-4.60238410596027	-1.03470198675497			
104	2080	0.967841059602649	0.0827549668874172	-0.119523178807947	-1.64662251655629	4.8953642384106	-1.46490066225166				0.992953642384106	0.0157880794701987	0.0451390728476822	14.4339072847682	7.02781456953642	-2.26596026490066				0.933827814569536	-0.0492715231788079	-0.23194701986755	12.607417218543	3.22649006622517	-4.12026490066225				0.736529801324503	-0.320529801324503	-0.581721854304636	-5.91708609271523	-7.3764238410596	0.784370860927152				0.964026490066225	0.0194966887417219	0.0219337748344371	0.511788079470198	7.33192052980133	-5.65748344370861				0.543788079470199	-0.206834437086093	-0.724238410596026	3.66039735099338	-5.72238410596027	-1.87470198675497			
105	2100	0.935841059602649	0.0667549668874172	-0.119523178807947	3.39337748344371	5.4553642384106	-1.46490066225166				1.00895364238411	-0.0642119205298013	0.0291390728476822	15.5539072847682	1.42781456953642	-0.585960264900661				0.949827814569536	-0.0652715231788079	-0.23194701986755	14.567417218543	5.74649006622517	-4.40026490066225				0.704529801324503	-0.320529801324503	-0.581721854304636	-7.03708609271523	-8.2164238410596	-4.25562913907285				0.932026490066225	-0.0285033112582781	0.0379337748344371	6.3917880794702	10.6919205298013	-7.33748344370861				0.559788079470199	-0.206834437086093	-0.692238410596026	0.580397350993377	-2.08238410596027	0.925298013245032			
106	2120	0.935841059602649	0.0347549668874172	-0.151523178807947	7.59337748344371	7.1353642384106	-2.86490066225166				0.976953642384106	0.0157880794701987	0.0291390728476822	6.59390728476821	-0.532185430463576	-3.10596026490066				0.965827814569536	-0.0652715231788079	-0.21594701986755	8.96741721854305	6.30649006622517	-2.44026490066225				0.672529801324503	-0.352529801324503	-0.581721854304636	-8.99708609271523	-7.3764238410596	-8.45562913907285				0.948026490066225	-0.0925033112582781	0.0539337748344371	12.2717880794702	12.0919205298013	-7.61748344370861				0.559788079470199	-0.222834437086093	-0.676238410596026	0.300397350993377	0.437615894039735	1.76529801324503			
107	2140	0.983841059602649	0.0187549668874172	-0.183523178807947	3.67337748344371	6.5753642384106	-3.70490066225166				0.976953642384106	0.0317880794701987	0.0131390728476822	3.51390728476821	5.34781456953642	-4.22596026490066				0.949827814569536	-0.0812715231788079	-0.21594701986755	4.48741721854305	2.66649006622517	-2.72026490066225				0.656529801324503	-0.336529801324503	-0.581721854304636	-8.99708609271523	-8.4964238410596	-11.2556291390728				0.980026490066225	-0.0285033112582781	0.0539337748344371	5.8317880794702	9.85192052980133	-8.17748344370861				0.575788079470199	-0.222834437086093	-0.692238410596026	2.54039735099338	1.83761589403974	-2.15470198675497			
108	2160	0.967841059602649	0.0187549668874172	-0.167523178807947	-2.76662251655629	4.6153642384106	-1.18490066225166				0.992953642384106	-0.0162119205298013	0.0451390728476822	9.67390728476821	7.58781456953643	-2.54596026490066				0.949827814569536	-0.0652715231788079	-0.21594701986755	5.60741721854305	1.82649006622517	-3.00026490066225				0.672529801324503	-0.304529801324503	-0.613721854304636	-8.71708609271523	-10.4564238410596	-13.4956291390728				0.948026490066225	0.00349668874172187	0.0539337748344371	1.9117880794702	6.49192052980132	-10.1374834437086				0.623788079470199	-0.222834437086093	-0.724238410596026	5.90039735099338	-0.402384105960265	-4.11470198675497			
109	2180	0.951841059602649	0.0507549668874172	-0.151523178807947	-0.806622516556291	3.4953642384106	-1.18490066225166				0.992953642384106	-0.0162119205298013	0.0611390728476822	7.43390728476821	1.98781456953642	-3.10596026490066				0.965827814569536	-0.0652715231788079	-0.18394701986755	3.64741721854305	0.986490066225167	-2.16026490066225				0.672529801324503	-0.320529801324503	-0.613721854304636	-6.75708609271523	-11.0164238410596	-13.2156291390728				0.964026490066225	-0.0125033112582781	0.0539337748344371	3.3117880794702	8.17192052980133	-9.57748344370861				0.639788079470199	-0.238834437086093	-0.708238410596026	5.62039735099338	-1.24238410596026	-3.55470198675497			
110	2200	0.935841059602649	0.0347549668874172	-0.167523178807947	-0.526622516556291	4.3353642384106	-1.46490066225166				0.992953642384106	0.0317880794701987	0.0291390728476822	5.47390728476821	1.14781456953642	-3.10596026490066				0.933827814569536	-0.0652715231788079	-0.18394701986755	4.20741721854305	0.986490066225167	-1.88026490066225				0.704529801324503	-0.320529801324503	-0.597721854304636	-7.59708609271523	-11.5764238410596	-13.7756291390728				0.980026490066225	0.00349668874172187	0.0859337748344371	6.6717880794702	10.1319205298013	-7.33748344370861				0.623788079470199	-0.238834437086093	-0.708238410596026	5.34039735099338	0.437615894039735	-0.474701986754968			
111	2220	0.951841059602649	0.0347549668874172	-0.151523178807947	-0.246622516556291	3.2153642384106	-0.904900662251656				0.976953642384106	0.0157880794701987	0.0451390728476822	1.27390728476821	7.86781456953642	-3.10596026490066				0.917827814569536	-0.0492715231788079	-0.13594701986755	3.08741721854305	2.66649006622517	-2.44026490066225				0.688529801324503	-0.288529801324503	-0.613721854304636	-6.47708609271523	-9.8964238410596	-10.6956291390728				0.980026490066225	0.0354966887417219	0.0699337748344371	2.4717880794702	7.89192052980133	-8.17748344370861				0.623788079470199	-0.238834437086093	-0.708238410596026	0.860397350993377	-2.36238410596027	2.60529801324503			
112	2240	0.951841059602649	0.0187549668874172	-0.135523178807947	-2.20662251655629	5.4553642384106	0.495099337748344				0.976953642384106	-0.000211920529801304	0.0451390728476822	5.47390728476821	2.26781456953642	-1.70596026490066				0.933827814569536	-0.0652715231788079	-0.18394701986755	2.52741721854305	5.18649006622517	-1.88026490066225				0.656529801324503	-0.288529801324503	-0.613721854304636	-5.07708609271523	-9.3364238410596	-8.73562913907285				0.948026490066225	0.0194966887417219	0.0539337748344371	1.6317880794702	4.53192052980133	-7.61748344370861				0.607788079470199	-0.190834437086093	-0.756238410596026	0.580397350993377	-2.92238410596027	-0.754701986754968			
113	2260	0.951841059602649	0.0187549668874172	-0.151523178807947	-5.28662251655629	5.7353642384106	-0.344900662251656				0.976953642384106	0.0157880794701987	0.0291390728476822	0.993907284768212	1.98781456953642	-2.82596026490066				0.949827814569536	-0.0652715231788079	-0.18394701986755	0.00741721854304636	4.34649006622517	-1.04026490066225				0.624529801324503	-0.304529801324503	-0.613721854304636	-7.87708609271523	-11.0164238410596	-7.05562913907285				0.948026490066225	-0.0125033112582781	0.0699337748344371	4.4317880794702	9.57192052980133	-7.05748344370861				0.591788079470199	-0.222834437086093	-0.708238410596026	4.50039735099338	-8.24238410596027	-0.754701986754968			
114	2280	0.951841059602649	0.0347549668874172	-0.151523178807947	-5.28662251655629	2.6553642384106	0.215099337748344				0.976953642384106	0.0317880794701987	0.0451390728476822	-0.966092715231788	1.42781456953642	-2.54596026490066				0.965827814569536	-0.0652715231788079	-0.19994701986755	1.40741721854305	1.82649006622517	-1.04026490066225				0.640529801324503	-0.304529801324503	-0.645721854304636	-5.91708609271523	-11.8564238410596	-6.21562913907285				0.980026490066225	0.00349668874172187	0.0699337748344371	-0.0482119205298018	7.05192052980133	-6.77748344370861				0.623788079470199	-0.238834437086093	-0.708238410596026	4.78039735099338	-6.56238410596027	4.28529801324503			
115	2300	0.951841059602649	0.0347549668874172	-0.135523178807947	-4.16662251655629	1.5353642384106	-0.0649006622516557				0.976953642384106	0.0317880794701987	0.0291390728476822	-0.686092715231788	1.70781456953642	-2.26596026490066				0.965827814569536	-0.0652715231788079	-0.19994701986755	-1.11258278145695	0.146490066225167	-1.04026490066225				0.656529801324503	-0.304529801324503	-0.661721854304636	-5.07708609271523	-9.3364238410596	-7.89562913907285				0.964026490066225	0.0194966887417219	0.0539337748344371	0.791788079470198	4.53192052980133	-6.49748344370861				0.607788079470199	-0.222834437086093	-0.724238410596026	-3.33960264900662	-6.00238410596027	4.84529801324503			
116	2320	0.951841059602649	0.0347549668874172	-0.119523178807947	-5.84662251655629	2.9353642384106	-0.0649006622516557				0.992953642384106	0.0317880794701987	0.0131390728476822	0.993907284768212	2.26781456953642	-2.26596026490066				0.949827814569536	-0.0492715231788079	-0.21594701986755	-1.11258278145695	-1.25350993377483	0.0797350993377501				0.656529801324503	-0.304529801324503	-0.613721854304636	-10.3970860927152	-8.7764238410596	-8.73562913907285				0.948026490066225	0.0194966887417219	0.0539337748344371	1.0717880794702	7.05192052980133	-5.65748344370861				0.591788079470199	-0.174834437086093	-0.708238410596026	-10.0596026490066	-0.962384105960265	1.48529801324503			
117	2340	0.951841059602649	0.0507549668874172	-0.135523178807947	-5.28662251655629	3.7753642384106	-0.0649006622516557				0.960953642384106	0.0317880794701987	0.0451390728476822	4.07390728476821	1.98781456953642	-1.70596026490066				0.917827814569536	-0.0492715231788079	-0.23194701986755	-3.35258278145695	0.146490066225167	-1.04026490066225				0.640529801324503	-0.272529801324503	-0.613721854304636	-12.3570860927152	-8.4964238410596	-9.29562913907285				0.964026490066225	0.0354966887417219	0.0539337748344371	-0.888211920529802	10.1319205298013	-6.49748344370861				0.591788079470199	-0.158834437086093	-0.692238410596026	-1.09960264900662	-0.682384105960265	-0.474701986754968			
118	2360	0.935841059602649	0.0507549668874172	-0.151523178807947	-4.72662251655629	2.3753642384106	0.215099337748344				0.976953642384106	0.0477880794701987	0.0451390728476822	0.993907284768212	1.98781456953642	-0.585960264900661				0.933827814569536	-0.0172715231788079	-0.21594701986755	-4.75258278145695	1.54649006622517	-1.32026490066225				0.640529801324503	-0.256529801324503	-0.613721854304636	-9.55708609271523	-8.2164238410596	-7.33562913907285				0.948026490066225	0.0354966887417219	0.0699337748344371	-0.0482119205298018	8.45192052980133	-6.77748344370861				0.575788079470199	-0.174834437086093	-0.692238410596026	4.50039735099338	-0.122384105960265	0.365298013245032			
119	2380	0.951841059602649	0.0347549668874172	-0.151523178807947	-2.76662251655629	2.6553642384106	-0.0649006622516557				0.992953642384106	0.0317880794701987	0.0291390728476822	-1.80609271523179	0.0278145695364242	-0.30596026490066				0	0	0	0	0	0				0.640529801324503	-0.272529801324503	-0.629721854304636	-4.23708609271523	-6.5364238410596	-5.93562913907285				0.948026490066225	0.0354966887417219	0.0699337748344371	1.0717880794702	5.93192052980133	-4.81748344370861				0.559788079470199	-0.158834437086093	-0.724238410596026	1.14039735099338	2.67761589403974	-4.11470198675497			
120	2400	0.951841059602649	0.0347549668874172	-0.151523178807947	-2.20662251655629	3.4953642384106	0.215099337748344				0.976953642384106	0.0317880794701987	0.0131390728476822	0.713907284768212	-3.05218543046358	-1.70596026490066				0.933827814569536	-0.0332715231788079	-0.24794701986755	0.847417218543046	-0.693509933774834	-0.20026490066225				0.656529801324503	-0.288529801324503	-0.645721854304636	-4.79708609271523	-5.4164238410596	-4.25562913907285				0.948026490066225	0.0194966887417219	0.0699337748344371	1.0717880794702	5.37192052980133	-5.09748344370861				0.575788079470199	-0.190834437086093	-0.740238410596026	0.860397350993377	3.79761589403974	-6.35470198675497			
121	2420	0.951841059602649	0.0667549668874172	-0.135523178807947	-1.36662251655629	3.4953642384106	0.775099337748344				0.976953642384106	0.0477880794701987	0.0291390728476822	4.35390728476821	0.0278145695364242	-1.70596026490066				0.933827814569536	-0.0172715231788079	-0.24794701986755	2.80741721854305	-2.37350993377483	-0.76026490066225				0.656529801324503	-0.272529801324503	-0.629721854304636	-5.91708609271523	-5.4164238410596	-3.69562913907285				0.964026490066225	0.0354966887417219	0.0699337748344371	0.511788079470198	4.81192052980133	-5.93748344370861				0.607788079470199	-0.206834437086093	-0.740238410596026	3.38039735099338	0.997615894039735	-5.51470198675497			
122	2440	0.967841059602649	0.0667549668874172	-0.135523178807947	-0.526622516556291	1.2553642384106	0.495099337748344				1.00895364238411	0.0317880794701987	0.0131390728476822	5.19390728476821	0.587814569536424	-0.0259602649006601				0.933827814569536	-0.0332715231788079	-0.23194701986755	4.20741721854305	-2.09350993377483	-1.60026490066225				0.640529801324503	-0.256529801324503	-0.629721854304636	-7.31708609271523	-5.4164238410596	-4.81562913907285				0.964026490066225	0.0354966887417219	0.0539337748344371	0.791788079470198	7.05192052980133	-3.97748344370861				0.575788079470199	-0.206834437086093	-0.740238410596026	-4.45960264900662	-0.122384105960265	-4.39470198675497			
123	2460	0.951841059602649	0.0507549668874172	-0.119523178807947	2.55337748344371	1.2553642384106	-0.624900662251656				0.992953642384106	0.0157880794701987	-0.0188609271523178	2.11390728476821	-0.812185430463576	-0.0259602649006601				0.949827814569536	-0.0492715231788079	-0.21594701986755	3.36741721854305	0.146490066225167	0.0797350993377501				0.640529801324503	-0.256529801324503	-0.645721854304636	-1.99708609271523	-4.5764238410596	-4.25562913907285				0.980026490066225	0.00349668874172187	0.0699337748344371	5.8317880794702	7.89192052980133	-3.69748344370861				0.575788079470199	-0.190834437086093	-0.756238410596026	-6.41960264900662	2.39761589403974	-4.11470198675497			
124	2480	0.951841059602649	0.0347549668874172	-0.151523178807947	5.63337748344371	1.5353642384106	-0.0649006622516557				0.960953642384106	0.0317880794701987	0.0131390728476822	-0.126092715231788	1.14781456953642	-1.98596026490066				0.933827814569536	-0.0812715231788079	-0.21594701986755	3.36741721854305	2.10649006622517	0.63973509933775				0.656529801324503	-0.272529801324503	-0.629721854304636	-1.43708609271523	-2.3364238410596	-3.69562913907285				0.964026490066225	0.0194966887417219	0.0699337748344371	4.4317880794702	3.41192052980132	-2.57748344370861				0.575788079470199	-0.190834437086093	-0.740238410596026	-0.819602649006623	2.67761589403974	-2.71470198675497			
125	2500	0.967841059602649	0.0187549668874172	-0.135523178807947	4.79337748344371	2.6553642384106	0.775099337748344				0.992953642384106	0.0157880794701987	0.0451390728476822	0.993907284768212	5.34781456953642	-0.86596026490066				0.933827814569536	-0.0652715231788079	-0.21594701986755	4.48741721854305	0.986490066225167	0.0797350993377501				0.640529801324503	-0.288529801324503	-0.629721854304636	-2.55708609271523	-2.0564238410596	-3.97562913907285				0.964026490066225	0.0354966887417219	0.0539337748344371	4.4317880794702	5.93192052980133	-2.01748344370861				0.575788079470199	-0.206834437086093	-0.756238410596026	2.82039735099338	0.157615894039735	-1.59470198675497			
126	2520	0.967841059602649	0.0187549668874172	-0.151523178807947	3.67337748344371	0.415364238410596	0.495099337748344				0.992953642384106	-0.000211920529801304	0.0291390728476822	4.35390728476821	0.307814569536424	1.09403973509934				0.949827814569536	-0.0652715231788079	-0.21594701986755	3.36741721854305	0.426490066225167	0.0797350993377501				0.640529801324503	-0.288529801324503	-0.629721854304636	-0.0370860927152318	-1.2164238410596	-3.41562913907285				0.964026490066225	0.00349668874172187	0.0699337748344371	4.4317880794702	8.17192052980133	-2.85748344370861				0.575788079470199	-0.190834437086093	-0.756238410596026	0.300397350993377	1.27761589403974	-2.99470198675497			
127	2540	0.951841059602649	0.00275496688741723	-0.135523178807947	3.95337748344371	-1.8246357615894	-0.344900662251656				0.976953642384106	-0.0162119205298013	-0.00286092715231785	2.95390728476821	-1.09218543046358	0.81403973509934				0.949827814569536	-0.0812715231788079	-0.21594701986755	5.88741721854305	0.986490066225167	-0.20026490066225				0.640529801324503	-0.288529801324503	-0.629721854304636	1.36291390728477	0.7435761589404	-2.57562913907285				0.964026490066225	-0.0125033112582781	0.101933774834437	4.4317880794702	6.77192052980133	-2.01748344370861				0.591788079470199	-0.206834437086093	-0.756238410596026	1.98039735099338	0.997615894039735	-2.43470198675497			
128	2560	0.935841059602649	0.00275496688741723	-0.135523178807947	4.23337748344371	-0.424635761589404	-0.0649006622516557				0.960953642384106	0.0157880794701987	0.0131390728476822	0.993907284768212	0.587814569536424	-0.0259602649006601				0.933827814569536	-0.0812715231788079	-0.21594701986755	6.72741721854305	0.706490066225167	-0.76026490066225				0.640529801324503	-0.288529801324503	-0.629721854304636	2.76291390728477	1.8635761589404	-1.73562913907285				0.948026490066225	0.0194966887417219	0.0699337748344371	3.5917880794702	6.21192052980133	-1.45748344370861				0.575788079470199	-0.222834437086093	-0.740238410596026	4.78039735099338	-1.24238410596026	-0.474701986754968			
129	2580	0.951841059602649	0.0187549668874172	-0.135523178807947	-0.246622516556291	-0.144635761589404	0.215099337748344				0.992953642384106	0.0157880794701987	0.0451390728476822	2.95390728476821	3.10781456953642	1.09403973509934				0.933827814569536	-0.0812715231788079	-0.21594701986755	2.80741721854305	-0.133509933774833	-1.04026490066225				0.624529801324503	-0.272529801324503	-0.629721854304636	2.20291390728477	2.4235761589404	-0.895629139072848				0.948026490066225	0.0194966887417219	0.0859337748344371	3.3117880794702	7.33192052980133	-0.897483443708608				0.591788079470199	-0.222834437086093	-0.724238410596026	0.860397350993377	-0.122384105960265	-0.194701986754968			
130	2600	0.951841059602649	0.0347549668874172	-0.135523178807947	0.593377483443709	-1.8246357615894	-0.344900662251656				1.00895364238411	-0.0162119205298013	0.0451390728476822	2.39390728476821	-0.532185430463576	1.93403973509934				0.949827814569536	-0.0972715231788079	-0.21594701986755	1.68741721854305	-1.81350993377483	0.35973509933775				0.640529801324503	-0.304529801324503	-0.645721854304636	2.20291390728477	2.7035761589404	-0.0556291390728476				0.964026490066225	0.00349668874172187	0.101933774834437	2.1917880794702	7.89192052980133	-0.897483443708608				0.607788079470199	-0.222834437086093	-0.740238410596026	-1.65960264900662	-0.962384105960265	-0.474701986754968			
131	2620	0.951841059602649	0.0187549668874172	-0.151523178807947	3.11337748344371	-2.1046357615894	-0.344900662251656				0.992953642384106	-0.0162119205298013	0.0131390728476822	-2.08609271523179	-2.21218543046358	1.37403973509934				0.949827814569536	-0.113271523178808	-0.23194701986755	3.08741721854305	-2.37350993377483	-0.48026490066225				0.656529801324503	-0.288529801324503	-0.645721854304636	0.522913907284768	3.8235761589404	-0.895629139072848				0.964026490066225	0.00349668874172187	0.101933774834437	-0.608211920529802	8.73192052980133	-0.0574834437086077				0.607788079470199	-0.222834437086093	-0.740238410596026	3.94039735099338	-2.08238410596027	-0.754701986754968			
132	2640	0.951841059602649	0.00275496688741723	-0.135523178807947	0.593377483443709	-0.984635761589404	-0.904900662251656				0.992953642384106	-0.000211920529801304	0.0291390728476822	-2.36609271523179	-0.252185430463576	1.09403973509934				0.933827814569536	-0.0812715231788079	-0.21594701986755	0.567417218543046	-0.693509933774834	-1.04026490066225				0.640529801324503	-0.272529801324503	-0.629721854304636	-1.71708609271523	2.7035761589404	-0.615629139072848				0.964026490066225	0.00349668874172187	0.101933774834437	0.231788079470198	8.45192052980133	0.782516556291392				0.607788079470199	-0.222834437086093	-0.740238410596026	4.78039735099338	-2.92238410596027	1.20529801324503			
133	2660	0.967841059602649	0.00275496688741723	-0.151523178807947	-1.08662251655629	0.135364238410596	-0.904900662251656				0.992953642384106	-0.000211920529801304	0.0131390728476822	-0.966092715231788	-1.93218543046358	1.93403973509934				0.949827814569536	-0.0652715231788079	-0.21594701986755	-0.552582781456954	-0.693509933774834	-1.32026490066225				0.656529801324503	-0.272529801324503	-0.629721854304636	0.522913907284768	1.5835761589404	1.62437086092715				0.964026490066225	0.0194966887417219	0.101933774834437	-0.0482119205298018	6.21192052980133	1.90251655629139				0.591788079470199	-0.222834437086093	-0.756238410596026	5.62039735099338	-2.36238410596027	2.04529801324503			
134	2680	0.951841059602649	0.0187549668874172	-0.135523178807947	0.0333774834437086	-1.2646357615894	-0.904900662251656				0.976953642384106	-0.000211920529801304	-0.00286092715231785	0.993907284768212	-2.49218543046358	2.21403973509934				0.933827814569536	-0.0972715231788079	-0.21594701986755	3.08741721854305	-1.25350993377483	-0.76026490066225				0.656529801324503	-0.288529801324503	-0.629721854304636	1.64291390728477	0.4635761589404	1.62437086092715				0.964026490066225	0.00349668874172187	0.117933774834437	-0.328211920529802	6.77192052980133	3.02251655629139				0.575788079470199	-0.238834437086093	-0.724238410596026	5.34039735099338	-3.76238410596027	2.04529801324503			
135	2700	0.935841059602649	0.00275496688741723	-0.135523178807947	-0.246622516556291	-0.984635761589404	-0.624900662251656				0.976953642384106	-0.000211920529801304	0.0131390728476822	0.153907284768212	-1.37218543046358	1.37403973509934				0.917827814569536	-0.0812715231788079	-0.23194701986755	1.68741721854305	-0.413509933774833	-1.32026490066225				0.656529801324503	-0.288529801324503	-0.629721854304636	2.20291390728477	1.5835761589404	2.18437086092715				0.964026490066225	-0.0125033112582781	0.101933774834437	-0.0482119205298018	6.77192052980133	3.02251655629139				0.575788079470199	-0.238834437086093	-0.724238410596026	4.50039735099338	-4.60238410596027	3.44529801324503			
136	2720	0.951841059602649	0.0187549668874172	-0.151523178807947	-2.20662251655629	-0.144635761589404	-1.18490066225166				0.992953642384106	-0.000211920529801304	-0.00286092715231785	-2.08609271523179	-0.252185430463576	1.93403973509934				0.933827814569536	-0.0652715231788079	-0.21594701986755	-0.272582781456954	-0.413509933774833	-1.60026490066225				0.672529801324503	-0.288529801324503	-0.629721854304636	-0.597086092715232	2.1435761589404	2.74437086092715				0.964026490066225	0.00349668874172187	0.101933774834437	0.231788079470198	3.97192052980133	4.14251655629139				0.559788079470199	-0.222834437086093	-0.724238410596026	0.860397350993377	-1.24238410596026	3.44529801324503			
137	2740	0.967841059602649	0.0187549668874172	-0.167523178807947	-1.92662251655629	-0.984635761589404	-1.46490066225166				0.992953642384106	-0.000211920529801304	-0.00286092715231785	-0.686092715231788	-0.532185430463576	1.65403973509934				0.949827814569536	-0.0652715231788079	-0.23194701986755	-0.272582781456954	-0.413509933774833	-1.04026490066225				0.672529801324503	-0.304529801324503	-0.613721854304636	-0.877086092715232	1.0235761589404	3.86437086092715				0.980026490066225	0.00349668874172187	0.117933774834437	-0.328211920529802	2.57192052980133	4.14251655629139				0.559788079470199	-0.222834437086093	-0.740238410596026	3.66039735099338	-1.52238410596026	1.76529801324503			
138	2760	0.951841059602649	0.0187549668874172	-0.151523178807947	-2.20662251655629	-0.704635761589404	-0.624900662251656				0.992953642384106	-0.000211920529801304	0.0131390728476822	0.153907284768212	-2.21218543046358	2.49403973509934				0.933827814569536	-0.0812715231788079	-0.23194701986755	0.00741721854304636	-0.413509933774833	-1.60026490066225				0.640529801324503	-0.288529801324503	-0.613721854304636	3.32291390728477	2.4235761589404	3.58437086092715				0.948026490066225	-0.0125033112582781	0.133933774834437	1.9117880794702	3.13192052980133	4.42251655629139				0.559788079470199	-0.238834437086093	-0.740238410596026	5.06039735099338	-0.122384105960265	0.365298013245032			
139	2780	0.951841059602649	0.0187549668874172	-0.151523178807947	-3.88662251655629	-0.424635761589404	-1.46490066225166				0.976953642384106	-0.000211920529801304	-0.00286092715231785	-0.126092715231788	-2.49218543046358	1.93403973509934				0.933827814569536	-0.0492715231788079	-0.23194701986755	-1.39258278145695	0.426490066225167	-1.60026490066225				0.656529801324503	-0.304529801324503	-0.629721854304636	5.00291390728477	4.1035761589404	2.46437086092715				0.964026490066225	-0.0125033112582781	0.101933774834437	-0.328211920529802	1.73192052980133	3.86251655629139				0.543788079470199	-0.222834437086093	-0.740238410596026	2.26039735099338	1.55761589403974	0.365298013245032			
140	2800	0.935841059602649	0.0187549668874172	-0.151523178807947	-3.04662251655629	0.695364238410596	-0.624900662251656				0.976953642384106	0.0157880794701987	-0.00286092715231785	-3.20609271523179	-4.45218543046358	1.65403973509934				0.933827814569536	-0.0492715231788079	-0.21594701986755	-1.95258278145695	-0.133509933774833	-1.88026490066225				0.672529801324503	-0.304529801324503	-0.629721854304636	2.76291390728477	4.1035761589404	1.34437086092715				0.948026490066225	0.00349668874172187	0.101933774834437	-0.608211920529802	4.53192052980133	2.46251655629139				0.527788079470199	-0.206834437086093	-0.740238410596026	2.54039735099338	0.997615894039735	-2.71470198675497			
141	2820	0.935841059602649	0.0187549668874172	-0.151523178807947	-2.76662251655629	2.0953642384106	-0.0649006622516557				0.976953642384106	0.0157880794701987	0.0291390728476822	-6.00609271523179	-6.41218543046358	1.65403973509934				0.949827814569536	-0.0652715231788079	-0.23194701986755	-2.23258278145695	0.146490066225167	-1.88026490066225				0.656529801324503	-0.320529801324503	-0.645721854304636	2.20291390728477	2.9835761589404	1.34437086092715				0.948026490066225	0.00349668874172187	0.117933774834437	1.0717880794702	5.93192052980133	1.34251655629139				0.543788079470199	-0.222834437086093	-0.740238410596026	5.62039735099338	-0.682384105960265	-4.95470198675497			
142	2840	0.967841059602649	0.0347549668874172	-0.167523178807947	-2.76662251655629	0.415364238410596	-0.904900662251656				0.992953642384106	0.0157880794701987	0.0451390728476822	-3.20609271523179	-6.41218543046358	1.09403973509934				0.933827814569536	-0.0332715231788079	-0.23194701986755	0.287417218543046	0.706490066225167	-1.60026490066225				0.656529801324503	-0.304529801324503	-0.645721854304636	1.64291390728477	3.5435761589404	-0.335629139072848				0.964026490066225	-0.0125033112582781	0.101933774834437	-1.7282119205298	4.25192052980133	0.782516556291392				0.559788079470199	-0.238834437086093	-0.756238410596026	5.34039735099338	-1.80238410596026	-4.67470198675497			
143	2860	0.951841059602649	0.0507549668874172	-0.151523178807947	-2.20662251655629	-0.984635761589404	-0.904900662251656				0.992953642384106	0.0157880794701987	-0.00286092715231785	-2.08609271523179	-6.13218543046358	0.81403973509934				0.949827814569536	-0.0332715231788079	-0.21594701986755	-0.272582781456954	1.26649006622517	-1.88026490066225				0.672529801324503	-0.304529801324503	-0.629721854304636	1.36291390728477	3.5435761589404	-1.45562913907285				0.980026490066225	-0.0125033112582781	0.101933774834437	0.791788079470198	4.53192052980133	0.782516556291392				0.559788079470199	-0.238834437086093	-0.756238410596026	-0.259602649006623	-0.122384105960265	-2.71470198675497			
144	2880	0.951841059602649	0.0187549668874172	-0.151523178807947	0.593377483443709	0.415364238410596	-1.74490066225166				1.00895364238411	-0.000211920529801304	0.0131390728476822	-1.80609271523179	-1.93218543046358	0.25403973509934				0.965827814569536	-0.0492715231788079	-0.23194701986755	-1.39258278145695	0.426490066225167	-1.32026490066225				0.688529801324503	-0.288529801324503	-0.629721854304636	1.64291390728477	1.8635761589404	-1.45562913907285				0.980026490066225	0.00349668874172187	0.101933774834437	-0.0482119205298018	2.85192052980133	1.34251655629139				0.575788079470199	-0.222834437086093	-0.756238410596026	-1.65960264900662	0.717615894039735	-2.99470198675497			
145	2900	0.951841059602649	0.0347549668874172	-0.135523178807947	-1.08662251655629	0.135364238410596	-1.74490066225166				0.960953642384106	0.0317880794701987	0.0291390728476822	0.433907284768212	-1.37218543046358	0.25403973509934				0.933827814569536	-0.0652715231788079	-0.23194701986755	1.12741721854305	0.426490066225167	-1.32026490066225				0.688529801324503	-0.288529801324503	-0.629721854304636	4.16291390728477	1.5835761589404	-0.895629139072848				0.980026490066225	0.00349668874172187	0.101933774834437	0.791788079470198	0.0519205298013249	1.90251655629139				0.575788079470199	-0.222834437086093	-0.756238410596026	4.50039735099338	-3.48238410596027	-2.71470198675497			
146	2920	0.951841059602649	0.0347549668874172	-0.151523178807947	-1.08662251655629	0.695364238410596	-2.02490066225166				0.976953642384106	0.0157880794701987	0.0131390728476822	0.433907284768212	-0.252185430463576	1.09403973509934				0.933827814569536	-0.0332715231788079	-0.21594701986755	-0.552582781456954	0.986490066225167	-1.60026490066225				0.672529801324503	-0.288529801324503	-0.629721854304636	3.04291390728477	-0.0964238410596001	-2.01562913907285				0.964026490066225	0.0194966887417219	0.117933774834437	1.3517880794702	-0.788079470198675	1.06251655629139				0.559788079470199	-0.254834437086093	-0.724238410596026	3.94039735099338	-5.16238410596027	-1.87470198675497			
147	2940	0	0	0	0	0	0				0	0	0	0	0	0				0.949827814569536	-0.0492715231788079	-0.23194701986755	-1.67258278145695	-1.25350993377483	-1.04026490066225				0.672529801324503	-0.320529801324503	-0.629721854304636	1.92291390728477	-0.0964238410596001	-1.17562913907285				0.948026490066225	-0.0125033112582781	0.133933774834437	1.3517880794702	-1.34807947019868	-0.0574834437086077				0.559788079470199	-0.238834437086093	-0.724238410596026	-0.819602649006623	-2.92238410596027	0.365298013245032			
148	2960	0.967841059602649	0.0347549668874172	-0.151523178807947	-1.64662251655629	0.415364238410596	-2.02490066225166				0.976953642384106	0.0157880794701987	-0.00286092715231785	0.153907284768212	0.587814569536424	0.25403973509934				0.917827814569536	-0.0492715231788079	-0.23194701986755	-0.272582781456954	-2.65350993377483	-0.20026490066225				0	0	0	0	0	0				0	0	0	0	0	0				0	0	0	0	0	0			
149	2980	0.967841059602649	0.0507549668874172	-0.167523178807947	0.0333774834437086	-1.8246357615894	-0.904900662251656				0.976953642384106	0.0157880794701987	0.0291390728476822	2.39390728476821	2.26781456953642	-0.585960264900661				0.917827814569536	-0.0332715231788079	-0.23194701986755	0.00741721854304636	-0.973509933774833	-1.32026490066225				0	0	0	0	0	0				0.948026490066225	0.00349668874172187	0.117933774834437	1.0717880794702	-0.788079470198675	-0.0574834437086077				0.575788079470199	-0.222834437086093	-0.724238410596026	2.54039735099338	-3.48238410596027	-1.31470198675497			
150	3000	0.951841059602649	0.0347549668874172	-0.119523178807947	1.71337748344371	-2.6646357615894	-0.624900662251656				1.00895364238411	0.0157880794701987	0.0131390728476822	3.51390728476821	1.14781456953642	0.25403973509934				0.933827814569536	-0.0332715231788079	-0.21594701986755	2.52741721854305	0.986490066225167	-1.88026490066225				0.672529801324503	-0.304529801324503	-0.629721854304636	-3.39708609271523	-4.0164238410596	-0.895629139072848				0.948026490066225	0.00349668874172187	0.117933774834437	0.791788079470198	1.45192052980132	-1.45748344370861				0.559788079470199	-0.238834437086093	-0.724238410596026	0.0203973509933773	-3.76238410596027	-2.43470198675497			
151	3020	0.951841059602649	0.0187549668874172	-0.135523178807947	2.55337748344371	-0.144635761589404	-1.74490066225166				1.00895364238411	-0.000211920529801304	0.0131390728476822	0.993907284768212	-0.532185430463576	-0.86596026490066				0.949827814569536	-0.0492715231788079	-0.23194701986755	3.64741721854305	-0.973509933774833	-1.04026490066225				0.656529801324503	-0.288529801324503	-0.629721854304636	-3.39708609271523	-4.5764238410596	-0.335629139072848				0.964026490066225	-0.0125033112582781	0.133933774834437	-1.7282119205298	0.611920529801325	-1.73748344370861				0.559788079470199	-0.222834437086093	-0.724238410596026	-3.33960264900662	-0.682384105960265	-3.55470198675497			
152	3040	0.935841059602649	0.114754966887417	-0.167523178807947	1.99337748344371	-1.8246357615894	1.05509933774834				0.976953642384106	0.0157880794701987	0.0131390728476822	-1.52609271523179	0.867814569536424	-1.70596026490066				0.949827814569536	-0.0652715231788079	-0.23194701986755	2.52741721854305	-0.413509933774833	-0.20026490066225				0.672529801324503	-0.304529801324503	-0.629721854304636	-0.0370860927152318	-3.7364238410596	0.784370860927152				0.948026490066225	-0.0125033112582781	0.117933774834437	1.6317880794702	0.611920529801325	-0.897483443708608				0.559788079470199	-0.222834437086093	-0.724238410596026	1.42039735099338	-0.682384105960265	-4.95470198675497			
153	3060	0.951841059602649	0.0347549668874172	-0.151523178807947	0.313377483443709	-2.1046357615894	-1.18490066225166				0.960953642384106	0.0157880794701987	0.0291390728476822	-0.406092715231788	3.66781456953642	-2.26596026490066				0.933827814569536	-0.0652715231788079	-0.21594701986755	0.287417218543046	-2.65350993377483	-1.04026490066225				0.656529801324503	-0.288529801324503	-0.629721854304636	0.242913907284768	-1.4964238410596	-0.0556291390728476				0.948026490066225	0.0194966887417219	0.117933774834437	0.511788079470198	-0.788079470198675	-1.45748344370861				0.559788079470199	-0.238834437086093	-0.724238410596026	2.82039735099338	-1.24238410596026	-5.23470198675497			
154	3080	0.951841059602649	0.0347549668874172	-0.151523178807947	1.99337748344371	-3.2246357615894	-1.74490066225166				0.992953642384106	-0.000211920529801304	0.0291390728476822	2.95390728476821	0.867814569536424	-0.30596026490066				0.933827814569536	-0.0652715231788079	-0.21594701986755	-1.39258278145695	-4.05350993377483	-1.32026490066225				0.640529801324503	-0.288529801324503	-0.613721854304636	-2.27708609271523	-1.4964238410596	-0.895629139072848				0.948026490066225	0.00349668874172187	0.101933774834437	0.511788079470198	0.331920529801325	-1.17748344370861				0.559788079470199	-0.238834437086093	-0.724238410596026	-1.09960264900662	-0.402384105960265	-4.11470198675497			
