No	Time	12-AccX	12-AccY	12-AccZ	12-GyroX	12-GyroY	12-GyroZ	13-AccX	13-AccY	13-AccZ	13-GyroX	13-GyroY	13-GyroZ	14-AccX	14-AccY	14-AccZ	14-GyroX	14-GyroY	14-GyroZ	15-AccX	15-AccY	15-AccZ	15-GyroX	15-GyroY	15-GyroZ	16-AccX	16-AccY	16-AccZ	16-GyroX	16-GyroY	16-GyroZ	17-AccX	17-AccY	17-AccZ	17-GyroX	17-GyroY	17-GyroZ
0	20	-0.184158940397351	0.0827549668874172	-0.951523178807947	-1.36662251655629	1.5353642384106	0.495099337748344				0.976953642384106	0.0477880794701987	0.141139072847682	-0.966092715231788	-0.812185430463576	0.53403973509934				-0.170172185430464	-0.0812715231788079	-0.90394701986755	-0.832582781456954	2.10649006622517	0.35973509933775				0	0	0	0	0	0				0	0	0	0	0	0				0.591788079470199	-0.0948344370860927	-0.740238410596026	0.0203973509933773	0.997615894039735	1.20529801324503			
1	40	-0.168158940397351	0.0827549668874172	-0.951523178807947	-0.246622516556291	0.975364238410596	-1.74490066225166				0.992953642384106	0.0317880794701987	0.141139072847682	1.83390728476821	0.307814569536424	0.25403973509934				-0.154172185430464	-0.0812715231788079	-0.90394701986755	0.287417218543046	1.26649006622517	-0.20026490066225				0.736529801324503	-0.176529801324503	-0.613721854304636	0.522913907284768	-0.3764238410596	0.784370860927152				0.964026490066225	0.0194966887417219	0.133933774834437	0.791788079470198	-0.228079470198675	1.34251655629139				0.591788079470199	-0.0788344370860927	-0.724238410596026	-0.539602649006623	-0.122384105960265	1.76529801324503			
2	60	-0.152158940397351	0.0827549668874172	-0.951523178807947	0.313377483443709	0.695364238410596	-1.18490066225166				0.976953642384106	0.0477880794701987	0.141139072847682	2.11390728476821	0.0278145695364242	0.25403973509934				-0.138172185430464	-0.0812715231788079	-0.91994701986755	0.567417218543046	0.706490066225167	-0.76026490066225				0.736529801324503	-0.176529801324503	-0.613721854304636	0.522913907284768	-0.3764238410596	-0.0556291390728476				0.948026490066225	0.0194966887417219	0.133933774834437	0.791788079470198	-0.788079470198675	0.782516556291392				0.607788079470199	-0.0788344370860927	-0.724238410596026	0.860397350993377	-0.962384105960265	0.645298013245032			
3	80	-0.168158940397351	0.0827549668874172	-0.935523178807947	0.313377483443709	0.135364238410596	-1.18490066225166				0.976953642384106	0.0477880794701987	0.141139072847682	0.993907284768212	1.42781456953642	-0.30596026490066				-0.154172185430464	-0.0812715231788079	-0.90394701986755	1.12741721854305	0.426490066225167	-0.48026490066225				0.736529801324503	-0.160529801324503	-0.613721854304636	-0.0370860927152318	-0.9364238410596	0.784370860927152				0.948026490066225	0.0194966887417219	0.117933774834437	0.791788079470198	-0.228079470198675	0.502516556291392				0.591788079470199	-0.0788344370860927	-0.724238410596026	1.42039735099338	-0.122384105960265	0.0852980132450323			
4	100	-0.168158940397351	0.0827549668874172	-0.951523178807947	-0.246622516556291	-0.424635761589404	-1.74490066225166				0.976953642384106	0.0477880794701987	0.141139072847682	1.55390728476821	1.42781456953642	-0.585960264900661				-0.154172185430464	-0.0812715231788079	-0.90394701986755	1.12741721854305	-1.25350993377483	-0.76026490066225				0.736529801324503	-0.160529801324503	-0.613721854304636	0.522913907284768	-1.2164238410596	-0.895629139072848				0.948026490066225	0.0194966887417219	0.133933774834437	2.7517880794702	1.17192052980133	0.502516556291392				0.591788079470199	-0.0788344370860927	-0.724238410596026	1.14039735099338	0.437615894039735	-1.03470198675497			
5	120	-0.184158940397351	0.0827549668874172	-0.967523178807947	0.313377483443709	-0.704635761589404	-1.74490066225166				0.976953642384106	0.0477880794701987	0.141139072847682	1.27390728476821	2.54781456953642	0.53403973509934				-0.154172185430464	-0.0812715231788079	-0.88794701986755	-0.552582781456954	-2.37350993377483	-0.76026490066225				0.736529801324503	-0.176529801324503	-0.613721854304636	0.802913907284768	-1.4964238410596	-1.17562913907285				0.948026490066225	0.0194966887417219	0.133933774834437	2.4717880794702	-1.34807947019868	-0.617483443708608				0.591788079470199	-0.0788344370860927	-0.724238410596026	1.14039735099338	0.157615894039735	-0.754701986754968			
6	140	-0.184158940397351	0.0507549668874172	-0.951523178807947	0.873377483443709	-0.704635761589404	-1.74490066225166				0.976953642384106	0.0477880794701987	0.141139072847682	0.993907284768212	3.10781456953642	0.53403973509934				-0.154172185430464	-0.0812715231788079	-0.90394701986755	1.40741721854305	-0.973509933774833	-0.20026490066225				0.736529801324503	-0.176529801324503	-0.613721854304636	-0.877086092715232	-1.7764238410596	-1.73562913907285				0.948026490066225	0.0354966887417219	0.117933774834437	1.3517880794702	0.0519205298013249	-0.897483443708608				0.591788079470199	-0.0948344370860927	-0.724238410596026	0.860397350993377	-1.52238410596026	-1.31470198675497			
7	160	-0.184158940397351	0.0667549668874172	-0.951523178807947	1.15337748344371	-0.704635761589404	-2.02490066225166				0.976953642384106	0.0317880794701987	0.157139072847682	1.55390728476821	1.14781456953642	0.53403973509934				-0.138172185430464	-0.0812715231788079	-0.88794701986755	1.40741721854305	0.146490066225167	0.0797350993377501				0.736529801324503	-0.160529801324503	-0.629721854304636	-0.317086092715232	-0.6564238410596	-2.01562913907285				0.964026490066225	0.0194966887417219	0.133933774834437	1.9117880794702	0.891920529801325	-1.45748344370861				0.607788079470199	-0.0788344370860927	-0.724238410596026	0.300397350993377	-0.682384105960265	-1.87470198675497			
8	180	-0.168158940397351	0.0667549668874172	-0.951523178807947	1.99337748344371	-0.984635761589404	-0.904900662251656				0.976953642384106	0.0317880794701987	0.141139072847682	0.713907284768212	0.0278145695364242	0.25403973509934				-0.154172185430464	-0.0812715231788079	-0.88794701986755	0.847417218543046	0.706490066225167	-0.20026490066225				0.736529801324503	-0.160529801324503	-0.597721854304636	-1.15708609271523	0.1835761589404	-1.45562913907285				0.948026490066225	0.0194966887417219	0.117933774834437	1.9117880794702	0.331920529801325	-2.01748344370861				0.607788079470199	-0.0948344370860927	-0.724238410596026	-1.09960264900662	0.717615894039735	-2.43470198675497			
9	200	-0.184158940397351	0.0507549668874172	-0.967523178807947	1.71337748344371	-0.984635761589404	-0.904900662251656				0.992953642384106	0.0317880794701987	0.157139072847682	-0.126092715231788	0.587814569536424	0.53403973509934				-0.154172185430464	-0.0812715231788079	-0.90394701986755	-0.832582781456954	-0.133509933774833	0.0797350993377501				0.720529801324503	-0.160529801324503	-0.613721854304636	0.802913907284768	-0.3764238410596	-1.17562913907285				0.964026490066225	0.0354966887417219	0.117933774834437	0.511788079470198	-1.06807947019868	-0.897483443708608				0.607788079470199	-0.0788344370860927	-0.724238410596026	-1.09960264900662	2.67761589403974	-2.15470198675497			
10	220	-0.184158940397351	0.0507549668874172	-0.967523178807947	0.873377483443709	-0.424635761589404	-1.18490066225166				0.992953642384106	0.0317880794701987	0.141139072847682	-0.406092715231788	0.0278145695364242	1.09403973509934				-0.170172185430464	-0.0812715231788079	-0.90394701986755	0.00741721854304636	-0.133509933774833	0.63973509933775				0.720529801324503	-0.160529801324503	-0.613721854304636	1.36291390728477	0.1835761589404	-0.0556291390728476				0.964026490066225	0.0194966887417219	0.117933774834437	0.511788079470198	-1.06807947019868	-1.17748344370861				0.607788079470199	-0.0788344370860927	-0.724238410596026	-1.93960264900662	1.83761589403974	-2.71470198675497			
11	240	-0.184158940397351	0.0667549668874172	-0.951523178807947	0.593377483443709	0.135364238410596	-0.904900662251656				0.976953642384106	0.0317880794701987	0.125139072847682	0.433907284768212	-0.532185430463576	1.37403973509934				-0.170172185430464	-0.0972715231788079	-0.90394701986755	0.567417218543046	-0.693509933774834	0.35973509933775				0.736529801324503	-0.160529801324503	-0.613721854304636	0.802913907284768	1.3035761589404	-0.895629139072848				0.964026490066225	0.0194966887417219	0.117933774834437	0.511788079470198	-1.62807947019868	-1.45748344370861				0.607788079470199	-0.0788344370860927	-0.740238410596026	-2.21960264900662	1.55761589403974	-2.43470198675497			
12	260	-0.184158940397351	0.0667549668874172	-0.951523178807947	0.873377483443709	-0.144635761589404	-0.904900662251656				0.976953642384106	0.0317880794701987	0.141139072847682	0.993907284768212	-0.532185430463576	0.25403973509934				-0.170172185430464	-0.0972715231788079	-0.88794701986755	1.40741721854305	-2.37350993377483	-0.48026490066225				0.736529801324503	-0.176529801324503	-0.613721854304636	-0.877086092715232	0.4635761589404	-0.895629139072848				0.964026490066225	0.0194966887417219	0.133933774834437	-0.0482119205298018	-0.508079470198675	0.222516556291392				0.623788079470199	-0.0788344370860927	-0.740238410596026	-1.65960264900662	0.997615894039735	-1.87470198675497			
13	280	-0.184158940397351	0.0667549668874172	-0.967523178807947	1.15337748344371	-0.144635761589404	-1.46490066225166				0.976953642384106	0.0477880794701987	0.141139072847682	0.993907284768212	-1.37218543046358	0.53403973509934				-0.170172185430464	-0.0812715231788079	-0.90394701986755	2.80741721854305	-0.973509933774833	-0.20026490066225				0.736529801324503	-0.160529801324503	-0.629721854304636	-0.877086092715232	-0.0964238410596001	-0.335629139072848				0.980026490066225	0.0194966887417219	0.117933774834437	-0.608211920529802	-0.228079470198675	-0.337483443708608				0.607788079470199	-0.0948344370860927	-0.756238410596026	-1.37960264900662	0.717615894039735	-2.71470198675497			
14	300	-0.184158940397351	0.0507549668874172	-0.967523178807947	0.593377483443709	0.135364238410596	-0.904900662251656				0.976953642384106	0.0317880794701987	0.125139072847682	0.993907284768212	-1.93218543046358	0.81403973509934				-0.170172185430464	-0.0812715231788079	-0.88794701986755	-0.552582781456954	0.706490066225167	0.0797350993377501				0.720529801324503	-0.160529801324503	-0.613721854304636	0.802913907284768	0.1835761589404	-0.615629139072848				0.964026490066225	0.0194966887417219	0.117933774834437	-0.608211920529802	-1.34807947019868	-0.337483443708608				0.591788079470199	-0.0788344370860927	-0.756238410596026	-0.819602649006623	0.717615894039735	-1.31470198675497			
15	320	-0.184158940397351	0.0667549668874172	-0.951523178807947	1.71337748344371	0.975364238410596	-1.18490066225166				0.976953642384106	0.0317880794701987	0.125139072847682	0.993907284768212	-1.09218543046358	1.09403973509934				-0.154172185430464	-0.0972715231788079	-0.88794701986755	-1.67258278145695	-0.693509933774834	-0.20026490066225				0.720529801324503	-0.176529801324503	-0.613721854304636	0.802913907284768	0.1835761589404	-0.0556291390728476				0.964026490066225	0.0354966887417219	0.117933774834437	-1.1682119205298	-1.34807947019868	0.782516556291392				0.591788079470199	-0.0788344370860927	-0.740238410596026	-1.09960264900662	0.157615894039735	-1.31470198675497			
16	340	-0.184158940397351	0.0667549668874172	-0.951523178807947	1.43337748344371	0.415364238410596	-1.46490066225166				0.976953642384106	0.0317880794701987	0.125139072847682	1.55390728476821	-1.09218543046358	0.53403973509934				-0.170172185430464	-0.0972715231788079	-0.91994701986755	-1.67258278145695	-3.21350993377483	-0.48026490066225				0.720529801324503	-0.176529801324503	-0.613721854304636	0.802913907284768	-0.0964238410596001	0.504370860927152				0.948026490066225	0.0194966887417219	0.117933774834437	1.0717880794702	-0.508079470198675	0.222516556291392				0.591788079470199	-0.0788344370860927	-0.740238410596026	-0.259602649006623	-0.682384105960265	-1.03470198675497			
17	360	-0.184158940397351	0.0507549668874172	-0.951523178807947	0.313377483443709	0.415364238410596	-1.46490066225166				0.976953642384106	0.0317880794701987	0.125139072847682	1.55390728476821	-0.532185430463576	0.53403973509934				-0.170172185430464	-0.0972715231788079	-0.88794701986755	0.847417218543046	-1.53350993377483	0.0797350993377501				0.736529801324503	-0.176529801324503	-0.629721854304636	-0.0370860927152318	0.4635761589404	0.224370860927152				0.948026490066225	0.0194966887417219	0.117933774834437	0.231788079470198	-1.62807947019868	0.502516556291392				0.591788079470199	-0.0948344370860927	-0.756238410596026	0.0203973509933773	-0.962384105960265	-1.31470198675497			
18	380	-0.184158940397351	0.0667549668874172	-0.951523178807947	-0.246622516556291	0.415364238410596	-1.18490066225166				0.992953642384106	0.0317880794701987	0.125139072847682	0.713907284768212	0.867814569536424	0.53403973509934				-0.154172185430464	-0.0812715231788079	-0.88794701986755	0.00741721854304636	-0.973509933774833	0.0797350993377501				0.736529801324503	-0.176529801324503	-0.613721854304636	-0.317086092715232	0.1835761589404	0.504370860927152				0.964026490066225	0.0194966887417219	0.101933774834437	-0.328211920529802	-0.788079470198675	0.222516556291392				0.591788079470199	-0.0948344370860927	-0.740238410596026	0.860397350993377	-1.24238410596026	0.0852980132450323			
19	400	-0.184158940397351	0.0667549668874172	-0.967523178807947	0.313377483443709	0.135364238410596	-1.18490066225166				0.976953642384106	0.0317880794701987	0.125139072847682	-0.406092715231788	0.307814569536424	-0.30596026490066				-0.154172185430464	-0.0812715231788079	-0.88794701986755	1.68741721854305	-1.81350993377483	0.0797350993377501				0.736529801324503	-0.176529801324503	-0.613721854304636	-0.597086092715232	-0.9364238410596	0.224370860927152				0.964026490066225	0.0194966887417219	0.117933774834437	0.511788079470198	0.0519205298013249	0.502516556291392				0.591788079470199	-0.0948344370860927	-0.740238410596026	0.300397350993377	-0.402384105960265	0.365298013245032			
20	420	-0.184158940397351	0.0507549668874172	-0.967523178807947	-1.08662251655629	0.695364238410596	-0.624900662251656				0.976953642384106	0.0317880794701987	0.141139072847682	0.713907284768212	0.307814569536424	0.81403973509934				-0.154172185430464	-0.0972715231788079	-0.88794701986755	4.20741721854305	0.146490066225167	-0.76026490066225				0.736529801324503	-0.176529801324503	-0.613721854304636	-0.597086092715232	-2.0564238410596	0.784370860927152				0.964026490066225	0.0194966887417219	0.117933774834437	1.0717880794702	-1.34807947019868	-0.337483443708608				0.591788079470199	-0.0948344370860927	-0.740238410596026	-0.259602649006623	-0.682384105960265	1.48529801324503			
21	440	-0.168158940397351	0.0507549668874172	-0.951523178807947	0.873377483443709	-0.144635761589404	-0.344900662251656				0.992953642384106	0.0317880794701987	0.141139072847682	0.153907284768212	-0.252185430463576	0.53403973509934				-0.154172185430464	-0.0972715231788079	-0.88794701986755	3.36741721854305	0.986490066225167	-0.20026490066225				0.736529801324503	-0.176529801324503	-0.629721854304636	-1.71708609271523	-1.4964238410596	-0.335629139072848				0.948026490066225	0.0194966887417219	0.149933774834437	3.5917880794702	2.85192052980133	0.502516556291392				0.591788079470199	-0.0948344370860927	-0.740238410596026	0.0203973509933773	-0.682384105960265	0.645298013245032			
22	460	-0.168158940397351	0.0667549668874172	-0.951523178807947	0.593377483443709	-0.424635761589404	-0.904900662251656				0.976953642384106	0.0317880794701987	0.141139072847682	1.27390728476821	1.42781456953642	0.53403973509934				-0.154172185430464	-0.0812715231788079	-0.90394701986755	0.00741721854304636	-0.133509933774833	-0.48026490066225				0.736529801324503	-0.176529801324503	-0.629721854304636	-1.43708609271523	-2.3364238410596	-0.895629139072848				0.964026490066225	0.0194966887417219	0.0859337748344371	1.6317880794702	-2.46807947019868	-0.617483443708608				0.607788079470199	-0.0948344370860927	-0.740238410596026	0.580397350993377	-0.402384105960265	0.645298013245032			
23	480	-0.184158940397351	0.0667549668874172	-0.967523178807947	0.873377483443709	0.135364238410596	-1.46490066225166				0.976953642384106	0.0317880794701987	0.125139072847682	-0.126092715231788	1.98781456953642	1.09403973509934				-0.154172185430464	-0.0972715231788079	-0.88794701986755	-0.272582781456954	-0.133509933774833	-0.20026490066225				0.736529801324503	-0.176529801324503	-0.597721854304636	-1.43708609271523	-2.0564238410596	-0.335629139072848				0.964026490066225	0.0354966887417219	0.133933774834437	-2.8482119205298	0.331920529801325	-1.45748344370861				0.591788079470199	-0.0788344370860927	-0.740238410596026	2.54039735099338	-2.08238410596027	1.20529801324503			
24	500	-0.184158940397351	0.0827549668874172	-0.967523178807947	0.593377483443709	0.135364238410596	-0.624900662251656				0.992953642384106	0.0477880794701987	0.157139072847682	-0.966092715231788	1.70781456953642	0.53403973509934				-0.170172185430464	-0.0812715231788079	-0.88794701986755	0.287417218543046	0.146490066225167	0.63973509933775				0.720529801324503	-0.176529801324503	-0.629721854304636	-0.597086092715232	-0.6564238410596	-0.615629139072848				0.948026490066225	0.0194966887417219	0.117933774834437	-2.5682119205298	2.01192052980133	-0.617483443708608				0.591788079470199	-0.0788344370860927	-0.740238410596026	0.300397350993377	-0.962384105960265	-0.194701986754968			
25	520	-0.184158940397351	0.0667549668874172	-0.967523178807947	0.313377483443709	0.135364238410596	-0.904900662251656				0.992953642384106	0.0317880794701987	0.157139072847682	-0.406092715231788	-1.93218543046358	-0.585960264900661				-0.154172185430464	-0.0812715231788079	-0.90394701986755	-1.67258278145695	1.26649006622517	0.35973509933775				0.720529801324503	-0.160529801324503	-0.613721854304636	-0.317086092715232	0.7435761589404	-0.335629139072848				0.980026490066225	0.0194966887417219	0.117933774834437	-0.0482119205298018	1.73192052980133	-0.0574834437086077				0.591788079470199	-0.0788344370860927	-0.740238410596026	1.42039735099338	0.157615894039735	-1.03470198675497			
26	540	-0.168158940397351	0.0507549668874172	-0.967523178807947	0.0333774834437086	0.135364238410596	-1.74490066225166				0.976953642384106	0.0317880794701987	0.125139072847682	0.433907284768212	-1.09218543046358	0.25403973509934				-0.154172185430464	-0.0812715231788079	-0.88794701986755	-2.79258278145695	1.54649006622517	0.0797350993377501				0.736529801324503	-0.160529801324503	-0.613721854304636	-1.43708609271523	0.4635761589404	0.504370860927152				0.964026490066225	0.0354966887417219	0.117933774834437	1.3517880794702	0.611920529801325	-0.337483443708608				0.607788079470199	-0.0948344370860927	-0.740238410596026	0.300397350993377	0.157615894039735	0.0852980132450323			
27	560	-0.184158940397351	0.0667549668874172	-0.951523178807947	-0.246622516556291	0.415364238410596	-1.46490066225166				0.976953642384106	0.0477880794701987	0.125139072847682	0.153907284768212	1.14781456953642	0.53403973509934				-0.170172185430464	-0.0812715231788079	-0.90394701986755	-3.07258278145695	2.38649006622517	0.91973509933775				0.736529801324503	-0.160529801324503	-0.597721854304636	-0.597086092715232	-0.0964238410596001	1.34437086092715				0.964026490066225	0.0354966887417219	0.117933774834437	0.231788079470198	0.891920529801325	0.222516556291392				0.607788079470199	-0.0948344370860927	-0.740238410596026	-2.21960264900662	1.27761589403974	-0.474701986754968			
28	580	-0.184158940397351	0.0507549668874172	-0.967523178807947	-0.246622516556291	0.695364238410596	-0.904900662251656				0.992953642384106	0.0317880794701987	0.157139072847682	0.153907284768212	0.0278145695364242	-0.0259602649006601				-0.170172185430464	-0.0812715231788079	-0.88794701986755	-3.35258278145695	3.50649006622517	0.63973509933775				0.736529801324503	-0.160529801324503	-0.613721854304636	1.08291390728477	1.0235761589404	1.34437086092715				0.964026490066225	0.0194966887417219	0.133933774834437	0.231788079470198	0.0519205298013249	-0.337483443708608				0.607788079470199	-0.0788344370860927	-0.740238410596026	-1.09960264900662	1.55761589403974	0.0852980132450323			
29	600	-0.184158940397351	0.0507549668874172	-0.951523178807947	-1.08662251655629	0.415364238410596	-1.18490066225166				0.976953642384106	0.0317880794701987	0.157139072847682	-0.406092715231788	-0.252185430463576	-0.0259602649006601				-0.154172185430464	-0.0812715231788079	-0.90394701986755	-5.87258278145695	2.66649006622517	-0.20026490066225				0.736529801324503	-0.160529801324503	-0.613721854304636	1.36291390728477	1.8635761589404	0.504370860927152				0.948026490066225	0.0194966887417219	0.117933774834437	-0.608211920529802	-0.508079470198675	-0.617483443708608				0.607788079470199	-0.0788344370860927	-0.724238410596026	-1.93960264900662	2.11761589403974	0.365298013245032			
30	620	-0.184158940397351	0.0507549668874172	-0.951523178807947	-1.08662251655629	0.135364238410596	-0.624900662251656				0.976953642384106	0.0317880794701987	0.141139072847682	-0.966092715231788	0.0278145695364242	-0.30596026490066				-0.154172185430464	-0.0812715231788079	-0.90394701986755	-3.63258278145695	0.706490066225167	0.35973509933775				0.720529801324503	-0.176529801324503	-0.597721854304636	-0.0370860927152318	1.8635761589404	0.784370860927152				0.948026490066225	0.0194966887417219	0.133933774834437	-0.0482119205298018	-0.228079470198675	-0.337483443708608				0.607788079470199	-0.0948344370860927	-0.724238410596026	-1.09960264900662	0.997615894039735	0.925298013245032			
31	640	-0.184158940397351	0.0507549668874172	-0.951523178807947	-0.526622516556291	-0.144635761589404	-0.0649006622516557				0.976953642384106	0.0317880794701987	0.125139072847682	0.153907284768212	0.0278145695364242	-1.14596026490066				-0.170172185430464	-0.0652715231788079	-0.88794701986755	0.847417218543046	0.146490066225167	-1.04026490066225				0.736529801324503	-0.176529801324503	-0.613721854304636	-0.877086092715232	-0.3764238410596	1.34437086092715				0.964026490066225	0.0194966887417219	0.117933774834437	-0.608211920529802	-0.508079470198675	-0.897483443708608				0.607788079470199	-0.0788344370860927	-0.724238410596026	-1.37960264900662	-0.122384105960265	0.0852980132450323			
32	660	-0.184158940397351	0.0507549668874172	-0.967523178807947	-1.64662251655629	0.135364238410596	-0.624900662251656				0.976953642384106	0.0317880794701987	0.109139072847682	0.713907284768212	-0.252185430463576	-1.14596026490066				-0.154172185430464	-0.0812715231788079	-0.90394701986755	3.92741721854305	1.54649006622517	0.0797350993377501				0.736529801324503	-0.176529801324503	-0.613721854304636	-1.15708609271523	-0.0964238410596001	2.46437086092715				0.948026490066225	0.0194966887417219	0.133933774834437	-1.7282119205298	-0.508079470198675	-0.0574834437086077				0.607788079470199	-0.0788344370860927	-0.740238410596026	-0.819602649006623	-0.402384105960265	0.365298013245032			
33	680	-0.184158940397351	0.0667549668874172	-0.967523178807947	-1.64662251655629	0.135364238410596	-0.0649006622516557				0.976953642384106	0.0317880794701987	0.125139072847682	0.153907284768212	1.14781456953642	-0.86596026490066				-0.154172185430464	-0.0812715231788079	-0.90394701986755	1.96741721854305	1.26649006622517	-1.04026490066225				0.736529801324503	-0.160529801324503	-0.613721854304636	-1.15708609271523	-0.0964238410596001	2.46437086092715				0.964026490066225	0.0194966887417219	0.117933774834437	-1.4482119205298	-0.228079470198675	0.222516556291392				0.607788079470199	-0.0948344370860927	-0.740238410596026	-1.37960264900662	0.157615894039735	0.365298013245032			
34	700	-0.184158940397351	0.0667549668874172	-0.951523178807947	-1.36662251655629	-0.144635761589404	-0.0649006622516557				0.960953642384106	0.0317880794701987	0.141139072847682	-0.126092715231788	1.14781456953642	-1.14596026490066				-0.170172185430464	-0.0812715231788079	-0.88794701986755	0.00741721854304636	0.986490066225167	-1.32026490066225				0.720529801324503	-0.160529801324503	-0.597721854304636	-0.597086092715232	-0.3764238410596	2.18437086092715				0.980026490066225	0.0354966887417219	0.101933774834437	-2.2882119205298	-2.74807947019868	-0.617483443708608				0.591788079470199	-0.0788344370860927	-0.724238410596026	-1.09960264900662	-0.402384105960265	-0.474701986754968			
35	720	-0.184158940397351	0.0667549668874172	-0.951523178807947	-1.08662251655629	0.135364238410596	-1.18490066225166				0.976953642384106	0.0317880794701987	0.125139072847682	-0.126092715231788	1.98781456953642	-0.86596026490066				-0.170172185430464	-0.0812715231788079	-0.90394701986755	-0.552582781456954	0.986490066225167	-0.20026490066225				0.736529801324503	-0.160529801324503	-0.613721854304636	-0.597086092715232	0.4635761589404	2.46437086092715				0.948026490066225	0.0354966887417219	0.133933774834437	-2.5682119205298	-0.508079470198675	-1.17748344370861				0.575788079470199	-0.0788344370860927	-0.740238410596026	-1.65960264900662	0.157615894039735	0.645298013245032			
36	740	-0.184158940397351	0.0667549668874172	-0.951523178807947	-1.36662251655629	-0.144635761589404	-1.46490066225166				0.976953642384106	0.0317880794701987	0.125139072847682	0.153907284768212	2.26781456953642	-0.30596026490066				-0.170172185430464	-0.0812715231788079	-0.90394701986755	-2.51258278145695	0.706490066225167	-0.76026490066225				0.736529801324503	-0.176529801324503	-0.597721854304636	-0.597086092715232	-0.0964238410596001	1.90437086092715				0.964026490066225	0.0194966887417219	0.101933774834437	-2.2882119205298	-0.788079470198675	-0.897483443708608				0.591788079470199	-0.0948344370860927	-0.740238410596026	-0.819602649006623	0.157615894039735	0.365298013245032			
37	760	-0.184158940397351	0.0667549668874172	-0.967523178807947	-1.08662251655629	0.135364238410596	-0.624900662251656				0.976953642384106	0.0317880794701987	0.141139072847682	-0.406092715231788	1.70781456953642	-1.42596026490066				-0.170172185430464	-0.0972715231788079	-0.90394701986755	-3.91258278145695	0.986490066225167	-0.76026490066225				0.736529801324503	-0.160529801324503	-0.613721854304636	-0.317086092715232	-0.0964238410596001	2.74437086092715				0.964026490066225	0.0194966887417219	0.117933774834437	1.0717880794702	-0.228079470198675	-0.617483443708608				0.607788079470199	-0.0788344370860927	-0.740238410596026	-1.09960264900662	-0.682384105960265	2.04529801324503			
38	780	-0.184158940397351	0.0667549668874172	-0.967523178807947	-1.92662251655629	-0.144635761589404	-1.18490066225166				0.976953642384106	0.0317880794701987	0.141139072847682	-0.406092715231788	3.10781456953642	-1.14596026490066				-0.154172185430464	-0.0972715231788079	-0.88794701986755	-4.47258278145695	1.82649006622517	0.35973509933775				0.736529801324503	-0.192529801324503	-0.613721854304636	-1.71708609271523	-1.4964238410596	2.74437086092715				0.964026490066225	0.0354966887417219	0.117933774834437	-0.608211920529802	-1.90807947019868	-1.17748344370861				0.607788079470199	-0.0948344370860927	-0.740238410596026	-3.61960264900662	0.157615894039735	2.04529801324503			
39	800	-0.184158940397351	0.0667549668874172	-0.967523178807947	-2.20662251655629	0.135364238410596	-1.18490066225166				0.976953642384106	0.0477880794701987	0.141139072847682	-0.966092715231788	2.54781456953642	-0.30596026490066				-0.154172185430464	-0.0812715231788079	-0.90394701986755	-2.51258278145695	1.54649006622517	-0.20026490066225				0.736529801324503	-0.176529801324503	-0.629721854304636	-1.99708609271523	-1.4964238410596	2.74437086092715				0.964026490066225	0.0194966887417219	0.117933774834437	-0.328211920529802	-0.788079470198675	-0.337483443708608				0.607788079470199	-0.0948344370860927	-0.756238410596026	-1.65960264900662	-0.122384105960265	2.60529801324503			
40	820	-0.184158940397351	0.0667549668874172	-0.951523178807947	-1.92662251655629	0.415364238410596	-0.904900662251656				0.976953642384106	0.0317880794701987	0.157139072847682	-1.80609271523179	2.82781456953642	-0.86596026490066				-0.154172185430464	-0.0812715231788079	-0.88794701986755	1.40741721854305	0.426490066225167	-0.48026490066225				0.736529801324503	-0.176529801324503	-0.629721854304636	-2.55708609271523	-2.6164238410596	3.86437086092715				0.964026490066225	0.0194966887417219	0.101933774834437	-0.0482119205298018	-1.62807947019868	-0.897483443708608				0.607788079470199	-0.0948344370860927	-0.740238410596026	-2.77960264900662	-0.402384105960265	2.32529801324503			
41	840	-0.184158940397351	0.0667549668874172	-0.967523178807947	-0.806622516556291	-0.144635761589404	-1.46490066225166				0.976953642384106	0.0477880794701987	0.141139072847682	-0.126092715231788	2.26781456953642	-1.70596026490066				-0.170172185430464	-0.0812715231788079	-0.90394701986755	2.24741721854305	-0.133509933774833	0.35973509933775				0.736529801324503	-0.176529801324503	-0.629721854304636	-3.11708609271523	-3.7364238410596	3.86437086092715				0.964026490066225	0.0194966887417219	0.117933774834437	-0.328211920529802	-1.62807947019868	-0.897483443708608				0.607788079470199	-0.0948344370860927	-0.724238410596026	-2.21960264900662	-1.24238410596026	3.16529801324503			
42	860	-0.184158940397351	0.0667549668874172	-0.951523178807947	-0.806622516556291	0.415364238410596	-1.18490066225166				0.976953642384106	0.0477880794701987	0.157139072847682	1.55390728476821	2.26781456953642	-0.86596026490066				-0.170172185430464	-0.0812715231788079	-0.90394701986755	1.68741721854305	2.38649006622517	0.35973509933775				0.736529801324503	-0.192529801324503	-0.645721854304636	-3.95708609271523	-4.8564238410596	4.14437086092715				0.964026490066225	0.0194966887417219	0.117933774834437	-1.4482119205298	-1.34807947019868	-1.45748344370861				0.607788079470199	-0.0788344370860927	-0.724238410596026	-2.49960264900662	-0.682384105960265	2.32529801324503			
43	880	-0.184158940397351	0.0507549668874172	-0.967523178807947	-1.08662251655629	0.695364238410596	-0.344900662251656				0.976953642384106	0.0477880794701987	0.141139072847682	0.713907284768212	1.14781456953642	-1.70596026490066				-0.154172185430464	-0.0812715231788079	-0.88794701986755	-0.832582781456954	1.54649006622517	-0.20026490066225				0.736529801324503	-0.176529801324503	-0.629721854304636	-3.67708609271523	-6.5364238410596	4.70437086092715				0.964026490066225	0.0194966887417219	0.117933774834437	-0.608211920529802	-2.18807947019868	-2.29748344370861				0.607788079470199	-0.0948344370860927	-0.740238410596026	-3.05960264900662	-0.962384105960265	2.60529801324503			
44	900	0	0	0	0	0	0				0	0	0	0	0	0				0	0	0	0	0	0				0.736529801324503	-0.160529801324503	-0.629721854304636	-6.47708609271523	-8.7764238410596	4.42437086092715				0.964026490066225	0.0354966887417219	0.101933774834437	-1.1682119205298	-3.30807947019868	-1.17748344370861				0.607788079470199	-0.0948344370860927	-0.740238410596026	-3.33960264900662	-2.08238410596027	3.72529801324503			
45	920	0	0	0	0	0	0				0	0	0	0	0	0				0	0	0	0	0	0				0.736529801324503	-0.160529801324503	-0.629721854304636	-7.31708609271523	-10.7364238410596	4.42437086092715				0.964026490066225	0.0354966887417219	0.117933774834437	-0.608211920529802	-3.30807947019868	-0.897483443708608				0.591788079470199	-0.0788344370860927	-0.740238410596026	-3.89960264900662	-1.52238410596026	3.72529801324503			
46	940	0	0	0	0	0	0				0.976953642384106	0.0317880794701987	0.157139072847682	-0.966092715231788	1.14781456953642	-1.14596026490066				-0.154172185430464	-0.0812715231788079	-0.90394701986755	-3.91258278145695	1.26649006622517	-0.48026490066225				0	0	0	0	0	0				0.948026490066225	0.0354966887417219	0.133933774834437	1.3517880794702	-2.46807947019868	-2.01748344370861				0.591788079470199	-0.0788344370860927	-0.740238410596026	-2.49960264900662	-1.24238410596026	4.28529801324503			
47	960	-0.184158940397351	0.0667549668874172	-0.951523178807947	-1.64662251655629	-0.144635761589404	-0.0649006622516557				0.976953642384106	0.0477880794701987	0.157139072847682	-0.126092715231788	1.42781456953642	-1.70596026490066				-0.154172185430464	-0.0652715231788079	-0.88794701986755	-3.07258278145695	0.706490066225167	-0.48026490066225				0.720529801324503	-0.176529801324503	-0.645721854304636	-4.79708609271523	-13.2564238410596	3.30437086092715				0.964026490066225	0.0354966887417219	0.117933774834437	1.0717880794702	-2.18807947019868	-1.73748344370861				0.591788079470199	-0.0788344370860927	-0.724238410596026	-2.49960264900662	-0.122384105960265	3.72529801324503			
48	980	-0.168158940397351	0.0667549668874172	-0.967523178807947	-1.92662251655629	-0.424635761589404	-0.624900662251656				0.976953642384106	0.0477880794701987	0.125139072847682	0.993907284768212	1.70781456953642	-1.14596026490066				-0.154172185430464	-0.0652715231788079	-0.90394701986755	-1.67258278145695	1.54649006622517	-0.20026490066225				0.720529801324503	-0.160529801324503	-0.645721854304636	-8.15708609271523	-13.5364238410596	2.46437086092715				0.964026490066225	0.0354966887417219	0.117933774834437	1.9117880794702	-1.62807947019868	-2.01748344370861				0.591788079470199	-0.0788344370860927	-0.740238410596026	-3.33960264900662	0.717615894039735	3.72529801324503			
49	1000	-0.184158940397351	0.0667549668874172	-0.967523178807947	-0.806622516556291	-0.144635761589404	-0.624900662251656				0.976953642384106	0.0477880794701987	0.141139072847682	0.713907284768212	2.26781456953642	-1.42596026490066				-0.170172185430464	-0.0652715231788079	-0.90394701986755	0.567417218543046	0.986490066225167	0.0797350993377501				0.704529801324503	-0.160529801324503	-0.629721854304636	-10.3970860927152	-14.3764238410596	2.18437086092715				0.964026490066225	0.0354966887417219	0.101933774834437	3.0317880794702	-2.74807947019868	-1.73748344370861				0.607788079470199	-0.0788344370860927	-0.740238410596026	-3.61960264900662	0.157615894039735	4.28529801324503			
50	1020	-0.168158940397351	0.0827549668874172	-0.951523178807947	0.313377483443709	0.135364238410596	-1.18490066225166				0.992953642384106	0.0637880794701987	0.141139072847682	0.713907284768212	3.38781456953642	-1.42596026490066				-0.154172185430464	-0.0652715231788079	-0.90394701986755	1.12741721854305	-0.413509933774833	0.63973509933775				0.704529801324503	-0.144529801324503	-0.629721854304636	-9.83708609271523	-13.5364238410596	2.18437086092715				0.964026490066225	0.0354966887417219	0.117933774834437	3.8717880794702	-3.30807947019868	-0.617483443708608				0.607788079470199	-0.0788344370860927	-0.740238410596026	-3.89960264900662	-0.122384105960265	3.72529801324503			
51	1040	-0.168158940397351	0.0827549668874172	-0.967523178807947	-0.246622516556291	-0.144635761589404	-1.18490066225166				0.976953642384106	0.0637880794701987	0.157139072847682	1.27390728476821	3.10781456953642	-0.86596026490066				-0.154172185430464	-0.0652715231788079	-0.90394701986755	1.96741721854305	-1.53350993377483	-1.04026490066225				0.688529801324503	-0.160529801324503	-0.645721854304636	-5.63708609271523	-12.9764238410596	2.74437086092715				0.948026490066225	0.0514966887417219	0.117933774834437	1.9117880794702	0.611920529801325	-1.45748344370861				0.607788079470199	-0.0788344370860927	-0.756238410596026	-2.49960264900662	-0.682384105960265	3.72529801324503			
52	1060	-0.184158940397351	0.0827549668874172	-0.951523178807947	0.593377483443709	-0.424635761589404	-0.904900662251656				0.976953642384106	0.0637880794701987	0.157139072847682	1.27390728476821	0.587814569536424	-0.86596026490066				-0.170172185430464	-0.0492715231788079	-0.90394701986755	3.64741721854305	-0.973509933774833	-0.76026490066225				0.688529801324503	-0.160529801324503	-0.661721854304636	-5.07708609271523	-11.2964238410596	3.30437086092715				0.964026490066225	0.0354966887417219	0.0859337748344371	3.8717880794702	-4.42807947019868	-1.17748344370861				0.607788079470199	-0.0628344370860927	-0.740238410596026	-1.37960264900662	-0.122384105960265	2.88529801324503			
53	1080	-0.184158940397351	0.0827549668874172	-0.951523178807947	1.43337748344371	-0.984635761589404	-0.624900662251656				0.976953642384106	0.0637880794701987	0.125139072847682	2.11390728476821	0.867814569536424	-0.585960264900661				-0.154172185430464	-0.0492715231788079	-0.88794701986755	7.84741721854305	-1.25350993377483	-1.60026490066225				0.672529801324503	-0.144529801324503	-0.661721854304636	-4.23708609271523	-9.6164238410596	3.30437086092715				0.948026490066225	0.0514966887417219	0.101933774834437	-0.608211920529802	-1.90807947019868	-1.17748344370861				0.591788079470199	-0.0628344370860927	-0.740238410596026	-2.49960264900662	-0.682384105960265	2.32529801324503			
54	1100	-0.184158940397351	0.0827549668874172	-0.935523178807947	0.593377483443709	-0.984635761589404	-0.624900662251656				0.992953642384106	0.0637880794701987	0.141139072847682	4.35390728476821	-2.21218543046358	-1.14596026490066				-0.170172185430464	-0.0652715231788079	-0.90394701986755	12.327417218543	-2.65350993377483	-1.60026490066225				0.656529801324503	-0.160529801324503	-0.677721854304636	-3.67708609271523	-9.0564238410596	3.02437086092715				0.948026490066225	0.0514966887417219	0.0859337748344371	-1.7282119205298	1.17192052980133	-0.617483443708608				0.607788079470199	-0.0788344370860927	-0.740238410596026	-0.259602649006623	-2.36238410596027	2.32529801324503			
55	1120	-0.184158940397351	0.0667549668874172	-0.951523178807947	1.15337748344371	-1.5446357615894	-1.18490066225166				0.976953642384106	0.0637880794701987	0.125139072847682	5.19390728476821	-3.05218543046358	-1.70596026490066				-0.154172185430464	-0.0972715231788079	-0.90394701986755	11.767417218543	-4.33350993377483	-1.60026490066225				0.688529801324503	-0.176529801324503	-0.677721854304636	-4.79708609271523	-8.7764238410596	3.58437086092715				0.964026490066225	0.0514966887417219	0.101933774834437	2.1917880794702	-1.06807947019868	-1.17748344370861				0.591788079470199	-0.0628344370860927	-0.740238410596026	-1.37960264900662	-2.36238410596027	2.60529801324503			
56	1140	-0.184158940397351	0.0667549668874172	-0.951523178807947	0.313377483443709	-1.2646357615894	-0.904900662251656				0.976953642384106	0.0637880794701987	0.125139072847682	4.63390728476821	0.307814569536424	-1.14596026490066				-0.154172185430464	-0.0812715231788079	-0.90394701986755	10.367417218543	-5.17350993377483	-1.32026490066225				0.688529801324503	-0.160529801324503	-0.677721854304636	-5.63708609271523	-7.0964238410596	3.86437086092715				0.980026490066225	0.0514966887417219	0.101933774834437	0.791788079470198	-2.18807947019868	-0.897483443708608				0.607788079470199	-0.0788344370860927	-0.740238410596026	-3.05960264900662	-1.80238410596026	4.00529801324503			
57	1160	-0.184158940397351	0.0827549668874172	-0.951523178807947	0.0333774834437086	-1.5446357615894	-0.904900662251656				0.976953642384106	0.0797880794701987	0.173139072847682	4.63390728476821	1.42781456953642	0.81403973509934				-0.186172185430464	-0.0972715231788079	-0.88794701986755	9.80741721854305	-6.29350993377483	-1.32026490066225				0.672529801324503	-0.160529801324503	-0.677721854304636	-1.71708609271523	-3.7364238410596	5.54437086092715				0.980026490066225	0.0514966887417219	0.0859337748344371	-0.888211920529802	-3.02807947019868	-0.897483443708608				0.591788079470199	-0.0788344370860927	-0.756238410596026	-3.05960264900662	-2.36238410596027	4.28529801324503			
58	1180	-0.184158940397351	0.0827549668874172	-0.935523178807947	1.43337748344371	-1.2646357615894	-0.624900662251656				0.976953642384106	0.0797880794701987	0.157139072847682	5.75390728476821	0.307814569536424	1.93403973509934				-0.170172185430464	-0.113271523178808	-0.88794701986755	13.167417218543	-8.25350993377483	-1.32026490066225				0.672529801324503	-0.176529801324503	-0.677721854304636	-1.15708609271523	-2.0564238410596	6.38437086092715				0.964026490066225	0.0354966887417219	0.0859337748344371	-0.328211920529802	-2.74807947019868	-2.01748344370861				0.575788079470199	-0.0788344370860927	-0.756238410596026	-4.17960264900662	-2.08238410596027	4.84529801324503			
59	1200	-0.200158940397351	0.0667549668874172	-0.919523178807947	0.593377483443709	-3.5046357615894	1.33509933774834				0.960953642384106	0.0637880794701987	0.141139072847682	4.91390728476821	2.26781456953642	1.65403973509934				-0.170172185430464	-0.113271523178808	-0.91994701986755	14.287417218543	-10.7735099337748	-0.20026490066225				0.688529801324503	-0.176529801324503	-0.693721854304636	-2.55708609271523	-3.1764238410596	6.94437086092715				0.964026490066225	0.0514966887417219	0.0859337748344371	-0.328211920529802	-2.74807947019868	-1.73748344370861				0.575788079470199	-0.0788344370860927	-0.740238410596026	-5.29960264900662	-1.52238410596026	6.52529801324503			
60	1220	-0.168158940397351	-0.0452450331125828	-0.999523178807947	-16.2066225165563	-1.8246357615894	2.45509933774835				0.960953642384106	0.0317880794701987	0.157139072847682	7.15390728476821	4.50781456953642	2.49403973509934				-0.186172185430464	-0.113271523178808	-0.90394701986755	19.327417218543	-10.7735099337748	-1.60026490066225				0.688529801324503	-0.176529801324503	-0.693721854304636	-5.63708609271523	-4.5764238410596	7.50437086092715				0.932026490066225	0.0514966887417219	0.101933774834437	0.511788079470198	-2.18807947019868	-2.01748344370861				0.575788079470199	-0.0948344370860927	-0.740238410596026	-3.61960264900662	-2.36238410596027	7.92529801324503			
61	1240	-0.152158940397351	0.0827549668874172	-0.951523178807947	-36.6466225165563	-2.9446357615894	4.13509933774834				0.976953642384106	0.0477880794701987	0.141139072847682	13.5939072847682	3.38781456953642	3.33403973509934				-0.186172185430464	-0.113271523178808	-0.90394701986755	28.8474172185431	-11.3335099337748	-1.88026490066225				0.688529801324503	-0.176529801324503	-0.693721854304636	-12.6370860927152	-8.2164238410596	7.78437086092715				0.948026490066225	0.0194966887417219	0.101933774834437	0.231788079470198	-3.58807947019868	-2.01748344370861				0.591788079470199	-0.0948344370860927	-0.740238410596026	-4.73960264900662	-1.80238410596026	8.76529801324503			
62	1260	-0.344158940397351	-0.0132450331125828	-0.999523178807947	-41.4066225165563	-4.0646357615894	6.09509933774834				0.976953642384106	0.0637880794701987	0.125139072847682	12.4739072847682	4.50781456953642	3.33403973509934				-0.170172185430464	-0.145271523178808	-0.87194701986755	27.447417218543	-10.2135099337748	-0.20026490066225				0.688529801324503	-0.208529801324503	-0.725721854304636	-11.2370860927152	-13.2564238410596	10.3043708609272				0.948026490066225	0.0354966887417219	0.0859337748344371	-1.1682119205298	-2.46807947019868	-2.29748344370861				0.591788079470199	-0.0948344370860927	-0.756238410596026	-6.13960264900662	-2.36238410596027	10.445298013245			
63	1280	-0.184158940397351	0.0987549668874172	-0.951523178807947	-37.7666225165563	-0.424635761589404	2.73509933774834				0.960953642384106	0.0477880794701987	0.109139072847682	10.2339072847682	1.42781456953642	3.33403973509934				-0.186172185430464	-0.113271523178808	-0.88794701986755	21.567417218543	-6.29350993377483	-0.48026490066225				0.688529801324503	-0.224529801324503	-0.725721854304636	-11.7970860927152	-18.5764238410596	12.8243708609272				0.964026490066225	0.0354966887417219	0.101933774834437	0.231788079470198	-0.228079470198675	-2.01748344370861				0.575788079470199	-0.0948344370860927	-0.772238410596026	-5.85960264900662	-2.64238410596027	12.125298013245			
64	1300	-0.184158940397351	0.114754966887417	-0.887523178807947	-14.8066225165563	1.2553642384106	-0.344900662251656				0.992953642384106	0.0317880794701987	0.157139072847682	4.91390728476821	0.867814569536424	3.61403973509934				-0.186172185430464	-0.129271523178808	-0.88794701986755	16.807417218543	-2.37350993377483	-2.16026490066225				0.688529801324503	-0.224529801324503	-0.741721854304636	-21.0370860927152	-25.5764238410596	12.5443708609272				0.964026490066225	0.0354966887417219	0.0859337748344371	-0.608211920529802	-2.46807947019868	-3.13748344370861				0.575788079470199	-0.110834437086093	-0.788238410596027	-8.37960264900662	-4.04238410596027	13.245298013245			
65	1320	-0.200158940397351	0.114754966887417	-0.903523178807947	-6.96662251655629	0.975364238410596	-1.46490066225166				0.992953642384106	0.0797880794701987	0.173139072847682	3.79390728476821	-10.0521854304636	4.17403973509934				-0.186172185430464	-0.145271523178808	-0.90394701986755	24.087417218543	-3.49350993377483	-4.40026490066225				0.656529801324503	-0.208529801324503	-0.773721854304636	-24.1170860927152	-32.8564238410596	11.4243708609272				0.964026490066225	0.0514966887417219	0.0699337748344371	-0.888211920529802	0.611920529801325	-2.57748344370861				0.575788079470199	-0.110834437086093	-0.804238410596027	-5.85960264900662	-9.36238410596027	12.405298013245			
66	1340	-0.216158940397351	0.130754966887417	-0.967523178807947	-1.36662251655629	0.415364238410596	-0.624900662251656				0.976953642384106	0.0477880794701987	0.109139072847682	2.39390728476821	-15.0921854304636	4.45403973509934				-0.202172185430464	-0.161271523178808	-0.91994701986755	32.7674172185431	-9.65350993377483	-3.00026490066225				0.672529801324503	-0.208529801324503	-0.853721854304636	-21.3170860927152	-45.1764238410596	9.46437086092715				0.948026490066225	0.0354966887417219	0.0699337748344371	-1.1682119205298	2.29192052980133	-3.41748344370861				0.575788079470199	-0.126834437086093	-0.820238410596026	-2.77960264900662	-11.6023841059603	15.765298013245			
67	1360	-0.184158940397351	0.130754966887417	-0.983523178807947	-6.96662251655629	1.5353642384106	1.05509933774834				0.992953642384106	0.0317880794701987	0.125139072847682	-1.80609271523179	-4.17218543046358	2.21403973509934				-0.202172185430464	-0.177271523178808	-0.90394701986755	32.7674172185431	-13.0135099337748	-1.88026490066225				0.704529801324503	-0.192529801324503	-0.885721854304636	-29.4370860927152	-59.1764238410596	5.82437086092715				0.964026490066225	0.0514966887417219	0.0379337748344371	-0.888211920529802	3.13192052980133	-3.97748344370861				0.575788079470199	-0.158834437086093	-0.836238410596026	-10.6196026490066	-11.3223841059603	24.165298013245			
68	1380	-0.168158940397351	0.130754966887417	-0.967523178807947	-6.12662251655629	1.5353642384106	2.17509933774834				1.00895364238411	0.0317880794701987	0.173139072847682	-0.966092715231788	-3.61218543046358	2.21403973509934				-0.186172185430464	-0.193271523178808	-0.88794701986755	44.8074172185431	-14.4135099337748	-6.36026490066225				0.704529801324503	-0.208529801324503	-0.885721854304636	-45.6770860927152	-75.1364238410596	4.14437086092715				0.980026490066225	0.0674966887417219	0.0539337748344371	-3.6882119205298	5.93192052980133	-3.97748344370861				0.527788079470199	-0.158834437086093	-0.836238410596026	-18.1796026490066	-18.6023841059603	29.765298013245			
69	1400	-0.168158940397351	0.114754966887417	-0.951523178807947	-3.04662251655629	0.975364238410596	2.45509933774835				1.05695364238411	0.0317880794701987	0.269139072847682	1.27390728476821	-37.4921854304636	1.65403973509934				-0.122172185430464	-0.161271523178808	-0.91994701986755	52.0874172185431	-17.7735099337748	-10.8402649006623				0.624529801324503	-0.192529801324503	-0.901721854304636	-55.4770860927152	-83.8164238410596	-2.01562913907285				0.964026490066225	0.0514966887417219	0.0539337748344371	-5.3682119205298	9.85192052980133	-6.49748344370861				0.543788079470199	-0.0948344370860927	-0.836238410596026	-32.7396026490066	-17.7623841059603	37.605298013245			
70	1420	-0.168158940397351	0.114754966887417	-0.967523178807947	-3.32662251655629	1.8153642384106	0.495099337748344				0.928953642384106	-0.000211920529801304	0.0931390728476822	7.99390728476821	-41.1321854304636	2.21403973509934				-0.218172185430464	-0.241271523178808	-0.90394701986755	60.4874172185431	-31.2135099337748	-12.2402649006623				0.592529801324503	-0.176529801324503	-0.901721854304636	-63.8770860927152	-85.7764238410596	-6.21562913907285				0.964026490066225	0.0354966887417219	0.0379337748344371	-6.7682119205298	15.4519205298013	-7.33748344370861				0.559788079470199	-0.0308344370860927	-0.916238410596027	-22.0996026490066	-23.6423841059603	45.165298013245			
71	1440	-0.184158940397351	0.130754966887417	-0.983523178807947	-4.16662251655629	-0.424635761589404	1.33509933774834				0.976953642384106	-0.000211920529801304	0.0611390728476822	-3.20609271523179	-10.6121854304636	2.49403973509934				-0.138172185430464	-0.209271523178808	-0.85594701986755	68.8874172185431	-36.8135099337748	-6.36026490066225				0.512529801324503	-0.144529801324503	-0.885721854304636	-67.7970860927152	-86.6164238410596	-9.01562913907285				0.932026490066225	0.0514966887417219	0.0539337748344371	-8.4482119205298	23.0119205298013	-6.21748344370861				0.543788079470199	-0.0308344370860927	-0.900238410596026	-9.21960264900662	-26.4423841059603	50.205298013245			
72	1460	-0.184158940397351	0.114754966887417	-0.999523178807947	-3.04662251655629	0.695364238410596	2.73509933774834				1.02495364238411	0.0317880794701987	0.0451390728476822	-20.2860927152318	0.0278145695364242	1.93403973509934				-0.138172185430464	-0.225271523178808	-0.75994701986755	11.487417218543	-3.49350993377483	-6.64026490066225				0.464529801324503	-0.128529801324503	-0.869721854304636	-59.6770860927152	-84.6564238410596	-12.0956291390728				0.964026490066225	0.0194966887417219	0.0539337748344371	-5.3682119205298	26.6519205298013	-5.65748344370861				0.479788079470199	-0.0788344370860927	-0.868238410596026	8.70039735099338	-35.6823841059603	50.205298013245			
73	1480	-0.200158940397351	0.114754966887417	-0.951523178807947	-2.48662251655629	2.0953642384106	3.01509933774834				0.960953642384106	0.0477880794701987	0.0771390728476822	-24.7660927152318	5.62781456953642	3.05403973509934				-0.234172185430464	-0.289271523178808	-0.88794701986755	1.40741721854305	0.146490066225167	-3.56026490066225				0.448529801324503	-0.160529801324503	-0.869721854304636	-54.3570860927152	-83.5364238410596	-9.29562913907285				0.980026490066225	0.0354966887417219	0.0379337748344371	-3.4082119205298	28.3319205298013	-5.93748344370861				0.479788079470199	-0.126834437086093	-0.868238410596026	7.58039735099338	-32.6023841059603	55.525298013245			
74	1500	-0.184158940397351	0.114754966887417	-0.951523178807947	-1.36662251655629	4.3353642384106	2.73509933774834				0.976953642384106	-0.000211920529801304	0.125139072847682	-23.0860927152318	15.1478145695364	6.41403973509934				-0.170172185430464	-0.321271523178808	-0.87194701986755	1.12741721854305	-3.77350993377483	-3.56026490066225				0.432529801324503	-0.176529801324503	-0.901721854304636	-51.5570860927152	-82.1364238410596	-11.8156291390728				0.980026490066225	0.0354966887417219	0.0219337748344371	-4.2482119205298	35.3319205298013	-6.49748344370861				0.495788079470199	-0.110834437086093	-0.964238410596026	1.42039735099338	-20.2823841059603	63.365298013245			
75	1520	-0.200158940397351	0.130754966887417	-0.919523178807947	-4.16662251655629	3.4953642384106	4.97509933774835				0.992953642384106	-0.0322119205298013	0.0931390728476822	-15.2460927152318	19.0678145695364	10.8940397350993				-0.202172185430464	-0.321271523178808	-0.83994701986755	-15.112582781457	-4.33350993377483	-1.88026490066225				0.432529801324503	-0.0645298013245033	-0.917721854304636	-66.9570860927152	-84.9364238410596	-11.5356291390728				0.948026490066225	0.0834966887417219	0.0539337748344371	-7.6082119205298	44.8519205298013	-8.73748344370861				0.479788079470199	-0.110834437086093	-0.948238410596026	12.9003973509934	-26.7223841059603	63.085298013245			
76	1540	-0.232158940397351	0.114754966887417	-0.967523178807947	-5.56662251655629	2.6553642384106	5.25509933774834				1.00895364238411	0.0157880794701987	0.0611390728476822	-20.2860927152318	22.1478145695364	11.4540397350993				-0.234172185430464	-0.385271523178808	-0.80794701986755	-24.352582781457	-2.93350993377483	0.91973509933775				0.432529801324503	-0.000529801324503289	-0.949721854304636	-70.8770860927152	-93.6164238410596	-12.9356291390728				0.948026490066225	0.0514966887417219	0.0859337748344371	-1.4482119205298	44.5719205298013	-6.21748344370861				0.399788079470199	-0.0948344370860927	-0.948238410596026	13.7403973509934	-37.3623841059603	64.765298013245			
77	1560	-0.216158940397351	0.114754966887417	-1.01552317880795	-7.80662251655629	6.8553642384106	6.09509933774834				0.992953642384106	0.0317880794701987	0.0131390728476822	-26.4460927152318	30.2678145695364	12.2940397350993				-0.218172185430464	-0.465271523178808	-0.77594701986755	-30.512582781457	3.78649006622517	9.87973509933775				0.384529801324503	-0.0645298013245033	-0.997721854304636	-61.0770860927152	-96.4164238410596	-21.3356291390729				0.996026490066225	0.0354966887417219	0.0699337748344371	1.6317880794702	39.2519205298013	-5.65748344370861				0.367788079470199	-0.126834437086093	-0.996238410596026	29.4203973509934	-48.5623841059603	71.205298013245			
78	1580	-0.200158940397351	0.130754966887417	-0.983523178807947	-12.0066225165563	8.8153642384106	8.61509933774835				0.976953642384106	-0.0482119205298013	-0.00286092715231785	-26.4460927152318	42.5878145695364	11.7340397350993				-0.266172185430464	-0.305271523178808	-0.75994701986755	-20.152582781457	1.82649006622517	21.3597350993378				0.368529801324503	-0.112529801324503	-1.02972185430464	-60.2370860927152	-98.9364238410596	-36.4556291390729				1.01202649006623	0.0194966887417219	0.0379337748344371	2.4717880794702	32.5319205298013	-5.09748344370861				0.383788079470199	-0.142834437086093	-1.14023841059603	28.0203973509934	-41.2823841059603	80.725298013245			
79	1600	-0.200158940397351	0.114754966887417	-0.983523178807947	-10.6066225165563	7.4153642384106	9.17509933774834				0.960953642384106	0.0477880794701987	0.0611390728476822	-21.9660927152318	59.9478145695364	6.41403973509934				-0.266172185430464	-0.161271523178808	-0.85594701986755	-13.712582781457	2.10649006622517	23.8797350993378				0.272529801324503	0.0474701986754967	-0.981721854304636	-98.0370860927152	-112.09642384106	-46.2556291390729				1.01202649006623	0.0674966887417219	0.0379337748344371	0.511788079470198	40.9319205298013	-3.69748344370861				0.399788079470199	-0.174834437086093	-1.04423841059603	51.5403973509934	-46.3223841059603	87.445298013245			
80	1620	-0.216158940397351	0.162754966887417	-1.03152317880795	-27.9666225165563	6.5753642384106	12.8150993377483				1.00895364238411	0.0477880794701987	0.0611390728476822	-10.2060927152318	60.5078145695364	13.4140397350993				-0.266172185430464	-0.193271523178808	-0.93594701986755	-10.072582781457	6.30649006622517	23.8797350993378				0.160529801324503	0.143470198675497	-0.965721854304636	-101.397086092715	-117.69642384106	-52.9756291390729				1.02802649006623	0.0514966887417219	0.0699337748344371	6.1117880794702	45.6919205298013	-0.617483443708608				0.287788079470199	-0.254834437086093	-0.996238410596026	62.1803973509934	-68.4423841059603	88.845298013245			
81	1640	-0.328158940397351	0.242754966887417	-1.39952317880795	-51.4866225165563	13.2953642384106	20.3750993377483				1.00895364238411	-0.0962119205298013	-0.0188609271523178	-9.64609271523179	64.1478145695364	15.0940397350993				-0.410172185430464	-0.273271523178808	-1.09594701986755	-3.35258278145695	14.1464900662252	17.7197350993378				0.0645298013245033	0.207470198675497	-0.949721854304636	-82.3570860927152	-113.21642384106	-60.8156291390729				1.10802649006623	0.0514966887417219	0.0379337748344371	4.7117880794702	38.9719205298013	0.782516556291392				0.239788079470199	-0.318834437086093	-0.964238410596026	50.9803973509934	-84.6823841059603	103.125298013245			
82	1660	-0.264158940397351	0.146754966887417	-0.775523178807947	-76.9666225165563	37.6553642384106	25.9750993377483				1.02495364238411	-0.0482119205298013	0.0611390728476822	-38.4860927152318	87.3878145695364	8.93403973509934				-0.426172185430464	-0.113271523178808	-1.17594701986755	22.6874172185431	31.5064900662252	12.9597350993378				0.144529801324503	0.287470198675497	-0.965721854304636	-63.3170860927152	-111.25642384106	-62.4956291390729				1.18802649006623	0.0514966887417219	0.101933774834437	10.8717880794702	37.5719205298013	-1.73748344370861				0.191788079470199	-0.382834437086093	-0.948238410596026	37.5403973509934	-53.6023841059603	111.525298013245			
83	1680	-0.216158940397351	0.258754966887417	-1.03152317880795	-34.6866225165563	28.1353642384106	19.5350993377483				1.16895364238411	0.159788079470199	0.285139072847682	-43.8060927152318	146.467814569536	-3.94596026490066				-0.394172185430464	0.0307284768211921	-0.87194701986755	-11.472582781457	30.6664900662252	12.9597350993378				0.224529801324503	0.287470198675497	-0.965721854304636	-52.9570860927152	-106.49642384106	-61.0956291390729				1.22002649006623	0.0834966887417219	0.245933774834437	26.2717880794702	19.6519205298013	2.46251655629139				0.335788079470199	-0.286834437086093	-0.948238410596026	19.9003973509934	-23.6423841059603	117.685298013245			
84	1700	0.007841059602649	0.786754966887417	-1.28752317880795	-55.1266225165563	28.4153642384106	18.9750993377483				1.61695364238411	0.351788079470199	0.717139072847682	-23.3660927152318	149.827814569536	4.17403973509934				-0.490172185430464	-0.177271523178808	-1.17594701986755	-12.592582781457	35.4264900662252	2.59973509933775				0.0965298013245033	0.287470198675497	-1.06172185430464	-39.7970860927152	-89.1364238410596	-51.5756291390729				1.22002649006623	0.163496688741722	0.437933774834437	45.8717880794702	15.7319205298013	6.66251655629139				0.287788079470199	-0.414834437086093	-0.852238410596026	26.6203973509934	-35.6823841059603	117.125298013245			
85	1720	-0.056158940397351	0.978754966887417	-1.04752317880795	-14.8066225165563	48.2953642384106	-7.62490066225166				1.47295364238411	0.0477880794701987	0.845139072847682	0.153907284768212	94.9478145695364	15.6540397350993				-0.346172185430464	-0.00127152317880793	-1.03194701986755	3.36741721854305	48.0264900662252	-11.4002649006623				0.0645298013245033	0.255470198675497	-1.15772185430464	-41.7570860927152	-49.3764238410596	-34.2156291390729				1.33202649006623	0.259496688741722	0.581933774834437	29.3517880794702	31.4119205298013	-3.97748344370861				0.447788079470199	-0.590834437086093	-0.788238410596027	19.6203973509934	-19.7223841059603	102.565298013245			
86	1740	-0.216158940397351	0.562754966887417	-0.855523178807947	45.1133774834437	74.0553642384106	-22.7449006622517				1.44095364238411	0.127788079470199	1.00513907284768	12.4739072847682	79.5478145695364	21.8140397350993				-0.202172185430464	-0.161271523178808	-1.27194701986755	11.207417218543	66.2264900662252	-24.8402649006623				-0.0474701986754967	0.431470198675497	-1.10972185430464	-10.9570860927152	12.2235761589404	-2.01562913907285				1.46002649006623	0.211496688741722	0.709933774834437	29.9117880794702	33.3719205298013	-13.2174834437086				0.623788079470199	-0.718834437086093	-0.948238410596026	-19.8596026490066	1.83761589403974	92.765298013245			
87	1760	-0.104158940397351	0.0347549668874172	-1.17552317880795	50.7133774834437	91.9753642384106	-17.1449006622517				1.64895364238411	-0.0162119205298013	1.08513907284768	18.3539072847682	64.9878145695364	20.4140397350993				-0.106172185430464	-0.369271523178808	-1.06394701986755	19.607417218543	75.4664900662252	-33.5202649006623				0.272529801324503	0.687470198675497	-1.07772185430464	12.8429139072848	79.1435761589404	31.5843708609272				1.38002649006623	0.275496688741722	0.901933774834437	38.0317880794702	41.2119205298013	-11.8174834437086				0.751788079470199	-0.638834437086093	-1.06023841059603	-69.4196026490066	42.7176158940397	76.245298013245			
88	1780	-0.152158940397351	-0.189245033112583	-1.25552317880795	25.5133774834437	95.8953642384106	-7.90490066225166				1.50495364238411	-0.224211920529801	0.765139072847682	38.2339072847682	2.26781456953642	13.4140397350993				-0.138172185430464	-0.337271523178808	-0.96794701986755	26.607417218543	86.1064900662252	-27.3602649006623				0.464529801324503	0.863470198675497	-0.997721854304636	59.8829139072848	107.42357615894	52.8643708609272				1.15602649006623	0.419496688741722	0.885933774834437	4.9917880794702	28.0519205298013	1.90251655629139				0.639788079470199	-0.590834437086093	-1.04423841059603	-33.0196026490066	64.8376158940397	49.645298013245			
89	1800	-0.056158940397351	-0.0452450331125828	-1.23952317880795	5.07337748344371	100.375364238411	1.05509933774834				1.18495364238411	-0.0962119205298013	0.445139072847682	33.7539072847682	-13.4121854304636	7.53403973509934				-0.0901721854304636	-0.513271523178808	-1.01594701986755	21.0074172185431	98.4264900662252	-17.2802649006623				0.480529801324503	0.767470198675497	-1.22172185430464	115.882913907285	84.4635761589404	46.9843708609272				1.42802649006623	0.211496688741722	0.661933774834437	9.7517880794702	38.1319205298013	8.34251655629139				0.751788079470199	-0.654834437086093	-0.980238410596026	-3.61960264900662	72.9576158940397	39.565298013245			
90	1820	-0.104158940397351	0.0187549668874172	-1.12752317880795	17.9533774834437	110.455364238411	8.89509933774834				1.07295364238411	-0.0162119205298013	0.557139072847682	9.11390728476821	-1.93218543046358	11.7340397350993				-0.0101721854304636	-0.305271523178808	-1.04794701986755	-14.552582781457	109.066490066225	-9.44026490066225				0.576529801324503	0.303470198675497	-1.42972185430464	101.602913907285	60.3835761589404	42.2243708609272				1.42802649006623	0.0354966887417219	0.581933774834437	15.9117880794702	3.97192052980133	9.74251655629139				0.815788079470199	-0.878834437086093	-1.01223841059603	17.3803973509934	42.1576158940397	43.765298013245			
91	1840	-0.008158940397351	0.0347549668874172	-1.09552317880795	31.9533774834437	121.375364238411	20.6550993377483				1.39295364238411	-0.0802119205298013	0.781139072847682	5.19390728476821	5.90781456953642	18.4540397350993				0.0858278145695364	-0.289271523178808	-0.93594701986755	4.76741721854305	116.626490066225	-10.0002649006623				0.608529801324503	-0.0485298013245033	-1.34972185430464	4.44291390728477	69.3435761589404	35.7843708609272				1.20402649006623	0.115496688741722	0.741933774834437	11.1517880794702	-15.6280794701987	7.78251655629139				0.575788079470199	-0.958834437086093	-0.964238410596026	1.42039735099338	47.4776158940397	41.245298013245			
92	1860	0.039841059602649	-0.0772450331125828	-1.07952317880795	39.5133774834437	127.535364238411	31.2950993377483				1.40895364238411	-0.144211920529801	0.733139072847682	-0.126092715231788	-37.2121854304636	16.4940397350993				0.133827814569536	-0.385271523178808	-0.91994701986755	22.127417218543	125.866490066225	-9.16026490066225				0.272529801324503	0.127470198675497	-1.20572185430464	-33.6370860927152	77.1835761589404	32.7043708609272				1.10802649006623	0.211496688741722	0.629933774834437	-29.1682119205298	-10.3080794701987	1.90251655629139				0.415788079470199	-0.686834437086093	-0.884238410596026	-18.7396026490066	87.5176158940398	47.965298013245			
93	1880	0.103841059602649	0.00275496688741723	-1.04752317880795	24.6733774834437	130.335364238411	35.4950993377484				1.23295364238411	-0.256211920529801	0.669139072847682	-11.6060927152318	-76.9721854304636	17.0540397350993				0.149827814569536	-0.337271523178808	-0.93594701986755	29.6874172185431	137.906490066225	-6.64026490066225				0.208529801324503	0.463470198675497	-0.965721854304636	1.64291390728477	88.3835761589404	42.5043708609272				1.20402649006623	0.0674966887417219	0.469933774834437	-23.8482119205298	5.93192052980133	2.18251655629139				0.431788079470199	-0.526834437086093	-0.740238410596026	4.22039735099338	109.63761589404	46.285298013245			
94	1900	0.455841059602649	0.482754966887417	-0.935523178807947	26.6333774834437	135.655364238411	28.2150993377483				1.04095364238411	-0.176211920529801	0.381139072847682	-18.6060927152318	-66.8921854304636	1.09403973509934				0.213827814569536	-0.401271523178808	-0.91994701986755	6.44741721854305	143.786490066225	-0.48026490066225				0.256529801324503	0.415470198675497	-0.805721854304636	54.5629139072848	97.9035761589404	54.8243708609272				1.18802649006623	-0.0765033112582781	0.421933774834437	-9.8482119205298	0.331920529801325	6.66251655629139				0.479788079470199	-0.494834437086093	-0.708238410596026	17.6603973509934	114.67761589404	44.325298013245			
95	1920	0.663841059602649	0.898754966887417	-0.775523178807947	44.5533774834437	139.295364238411	-4.26490066225166				1.02495364238411	-0.0162119205298013	0.285139072847682	-13.2860927152318	-41.4121854304636	1.65403973509934				0.293827814569536	-0.289271523178808	-0.85594701986755	-13.712582781457	151.346490066225	2.03973509933775				0.288529801324503	0.111470198675497	-0.949721854304636	81.1629139072848	101.54357615894	59.3043708609272				1.04402649006623	-0.0445033112582781	0.565933774834437	-11.2482119205298	-20.1080794701987	8.90251655629139				0.559788079470199	-0.510834437086093	-0.708238410596026	15.7003973509934	130.63761589404	25.565298013245			
96	1940	0.327841059602649	0.226754966887417	-0.775523178807947	38.9533774834437	148.815364238411	-16.3049006622517				0	0	0	0	0	0				0	0	0	0	0	0				0.368529801324503	-0.128529801324503	-0.965721854304636	68.0029139072848	124.78357615894	56.7843708609272				0.980026490066225	0.0994966887417219	0.437933774834437	-38.6882119205298	-38.8680794701987	9.18251655629139				0.623788079470199	-0.478834437086093	-0.676238410596026	11.5003973509934	147.15761589404	4.84529801324503			
97	1960	0	0	0	0	0	0				1.07295364238411	0.0317880794701987	0.397139072847682	3.51390728476821	-41.6921854304636	7.25403973509934				0.341827814569536	0.0147284768211921	-0.77594701986755	11.487417218543	148.826490066225	-7.76026490066225				0	0	0	0	0	0				0	0	0	0	0	0				0	0	0	0	0	0			
98	1980	0.503841059602649	-0.189245033112583	-0.855523178807947	-17.6066225165563	149.095364238411	-12.6649006622517				0.896953642384106	0.0157880794701987	0.189139072847682	13.0339072847682	-62.4121854304636	6.41403973509934				0.309827814569536	-0.0972715231788079	-0.71194701986755	28.287417218543	144.626490066225	-2.44026490066225				0	0	0	0	0	0				0	0	0	0	0	0				0.479788079470199	-0.286834437086093	-0.660238410596027	17.1003973509934	159.47761589404	-20.354701986755			
99	2000	0.519841059602649	0.0667549668874172	-0.775523178807947	-36.0866225165563	145.735364238411	-12.1049006622517				0.816953642384106	-0.176211920529801	0.0451390728476822	-0.406092715231788	-52.0521854304636	20.4140397350993				0.453827814569536	-0.289271523178808	-0.67994701986755	19.607417218543	147.426490066225	-1.04026490066225				0.512529801324503	0.207470198675497	-0.661721854304636	68.0029139072848	118.62357615894	24.0243708609272				0.916026490066225	0.0674966887417219	0.245933774834437	-23.5682119205298	2.01192052980133	7.22251655629139				0.479788079470199	-0.382834437086093	-0.676238410596026	27.4603973509934	146.87761589404	-18.394701986755			
100	2020	0.407841059602649	0.210754966887417	-0.743523178807947	2.83337748344371	139.855364238411	-9.58490066225166				0.768953642384106	-0.0322119205298013	0.141139072847682	-10.2060927152318	-40.5721854304636	11.7340397350993				0.485827814569536	-0.305271523178808	-0.69594701986755	-13.712582781457	154.986490066225	-8.60026490066225				0.512529801324503	0.0794701986754967	-0.597721854304636	77.8029139072848	116.38357615894	21.2243708609272				0.868026490066225	0.0514966887417219	0.309933774834437	-17.1282119205298	-27.1080794701987	11.4225165562914				0.495788079470199	-0.494834437086093	-0.612238410596026	35.0203973509934	118.87761589404	-21.754701986755			
101	2040	0.423841059602649	0.0187549668874172	-0.663523178807947	37.5533774834437	140.415364238411	-3.98490066225166				0.704953642384106	0.0637880794701987	0.253139072847682	-9.64609271523179	-48.1321854304636	3.33403973509934				0.421827814569536	-0.257271523178808	-0.63194701986755	-36.672582781457	159.466490066225	-13.0802649006623				0.560529801324503	-0.0485298013245033	-0.549721854304636	74.4429139072848	116.94357615894	13.6643708609272				0.788026490066225	-0.0765033112582781	0.309933774834437	-17.6882119205298	-41.9480794701987	19.5425165562914				0.543788079470199	-0.510834437086093	-0.596238410596026	10.6603973509934	110.47761589404	-27.354701986755			
102	2060	0.471841059602649	-0.125245033112583	-0.631523178807947	35.3133774834437	136.775364238411	3.85509933774834				0.752953642384106	0.0317880794701987	0.0771390728476822	-15.5260927152318	-51.7721854304636	1.37403973509934				0.117827814569536	-0.241271523178808	-0.50394701986755	-55.432582781457	163.666490066225	-8.32026490066225				0.576529801324503	-0.0805298013245033	-0.485721854304636	69.4029139072848	111.90357615894	1.62437086092715				0.740026490066225	-0.0125033112582781	0.309933774834437	-39.2482119205298	-68.2680794701987	12.5425165562914				0.559788079470199	-0.446834437086093	-0.596238410596026	-31.6196026490066	100.67761589404	-22.314701986755			
103	2080	0.551841059602649	-0.205245033112583	-0.663523178807947	11.5133774834437	133.135364238411	9.45509933774835				0.768953642384106	-0.000211920529801304	0.0611390728476822	-23.9260927152318	-34.6921854304636	2.21403973509934				0.501827814569536	-0.0332715231788079	-0.53594701986755	-59.072582781457	159.746490066225	0.35973509933775				0.528529801324503	-0.0805298013245033	-0.565721854304636	75.5629139072848	98.1835761589404	-0.0556291390728476				0.692026490066225	0.0674966887417219	0.117933774834437	-31.6882119205298	-86.4680794701987	11.7025165562914				0.527788079470199	-0.382834437086093	-0.516238410596026	-51.2196026490066	74.0776158940397	-19.514701986755			
104	2100	0.503841059602649	-0.205245033112583	-0.631523178807947	-1.64662251655629	132.295364238411	16.4550993377483				0.752953642384106	-0.112211920529801	0.189139072847682	-6.28609271523179	-54.5721854304636	2.77403973509934				0.581827814569536	-0.0492715231788079	-0.59994701986755	-50.112582781457	160.026490066225	9.03973509933775				0.608529801324503	-0.0325298013245033	-0.613721854304636	61.8429139072848	78.0235761589404	-0.335629139072848				0.644026490066225	0.0834966887417219	0.149933774834437	-16.8482119205298	-69.1080794701987	11.9825165562914				0.575788079470199	-0.254834437086093	-0.484238410596026	-65.7796026490066	51.3976158940397	-18.674701986755			
105	2120	0.471841059602649	-0.0612450331125828	-0.599523178807947	-8.08662251655629	142.095364238411	27.6550993377483				0.624953642384106	-0.208211920529801	0.109139072847682	-14.9660927152318	-84.5321854304636	3.89403973509934				0.613827814569536	-0.0172715231788079	-0.55194701986755	-37.512582781457	173.746490066225	-1.32026490066225				0.736529801324503	-0.0965298013245033	-0.597721854304636	56.2429139072848	58.1435761589404	-0.615629139072848				0.628026490066225	0.0674966887417219	0.133933774834437	-0.888211920529802	-62.9480794701987	16.7425165562914				0.687788079470199	-0.158834437086093	-0.548238410596027	-63.2596026490066	52.5176158940397	-8.03470198675497			
106	2140	0.519841059602649	-0.0132450331125828	-0.535523178807947	-26.5666225165563	148.535364238411	32.1350993377484				0.592953642384106	-0.0162119205298013	0.0611390728476822	-25.3260927152318	-68.0121854304636	-7.58596026490066				0.565827814569536	-0.0492715231788079	-0.35994701986755	-57.672582781457	156.946490066225	-11.1202649006623				0.720529801324503	-0.272529801324503	-0.565721854304636	50.6429139072848	45.2635761589404	-3.13562913907285				0.644026490066225	-0.0125033112582781	0.0699337748344371	-9.2882119205298	-60.1480794701987	20.6625165562914				0.639788079470199	-0.222834437086093	-0.516238410596026	-23.4996026490066	45.7976158940397	10.165298013245			
107	2160	0.711841059602649	0.00275496688741723	-0.343523178807947	-12.5666225165563	160.295364238411	30.1750993377483				0.768953642384106	-0.192211920529801	0.125139072847682	-22.5260927152318	-55.9721854304636	4.73403973509934				0.677827814569536	0.0307284768211921	-0.26394701986755	-63.552582781457	155.546490066225	-15.0402649006623				0.496529801324503	-0.352529801324503	-0.549721854304636	24.8829139072848	23.4235761589404	3.58437086092715				0.724026490066225	-0.0925033112582781	0.0219337748344371	-2.0082119205298	-33.2680794701987	17.3025165562914				0.431788079470199	-0.334834437086093	-0.484238410596026	9.26039735099338	11.6376158940397	9.88529801324503			
108	2180	0.775841059602649	0.0667549668874172	-0.343523178807947	-27.9666225165563	161.695364238411	29.8950993377483				0.720953642384106	-0.192211920529801	0.0611390728476822	-31.2060927152318	-68.2921854304636	8.09403973509934				0.277827814569536	-0.129271523178808	-0.23194701986755	-53.192582781457	149.666490066225	-13.0802649006623				0.368529801324503	-0.240529801324503	-0.565721854304636	-1.15708609271523	8.8635761589404	1.90437086092715				0.708026490066225	-0.108503311258278	0.165933774834437	-9.2882119205298	-38.0280794701987	14.7825165562914				0.399788079470199	-0.382834437086093	-0.388238410596026	14.8603973509934	-3.76238410596027	0.365298013245032			
109	2200	0.663841059602649	0.194754966887417	-0.199523178807947	-10.8866225165563	154.695364238411	27.3750993377483				0.448953642384106	0.0477880794701987	-0.00286092715231785	-38.7660927152318	-59.3321854304636	-8.98596026490066				0.693827814569536	-0.161271523178808	-0.34394701986755	-40.592582781457	153.306490066225	-22.0402649006623				0.352529801324503	-0.128529801324503	-0.517721854304636	-3.39708609271523	-1.2164238410596	3.30437086092715				0.628026490066225	-0.156503311258278	0.0699337748344371	-23.8482119205298	-50.3480794701987	13.9425165562914				0.431788079470199	-0.334834437086093	-0.340238410596026	-13.9796026490066	-9.92238410596027	0.925298013245032			
110	2220	0.711841059602649	0.258754966887417	-0.151523178807947	5.91337748344371	157.495364238411	19.5350993377483				0.528953642384106	-0.0322119205298013	0.189139072847682	-25.0460927152318	-47.5721854304636	-6.18596026490066				0.565827814569536	-0.129271523178808	-0.32794701986755	-41.992582781457	154.986490066225	-22.0402649006623				0.384529801324503	-0.144529801324503	-0.501721854304636	9.48291390728477	-10.1764238410596	11.1443708609272				0.548026490066225	-0.0605033112582781	0.101933774834437	-36.7282119205298	-68.8280794701987	14.7825165562914				0.415788079470199	-0.206834437086093	-0.372238410596026	-33.2996026490066	-4.04238410596027	3.44529801324503			
111	2240	0.743841059602649	0.306754966887417	-0.135523178807947	9.83337748344371	156.655364238411	9.73509933774834				0.528953642384106	-0.144211920529801	0.0611390728476822	-12.1660927152318	-62.9721854304636	-3.10596026490066				0.549827814569536	-0.193271523178808	-0.31194701986755	-73.352582781457	145.746490066225	-18.1202649006623				0.384529801324503	-0.208529801324503	-0.485721854304636	12.5629139072848	-14.3764238410596	15.6243708609272				0.484026490066225	0.0354966887417219	-0.0260662251655629	-32.5282119205298	-55.9480794701987	10.8625165562914				0.383788079470199	-0.126834437086093	-0.340238410596026	-41.1396026490066	-11.0423841059603	0.0852980132450323			
112	2260	0.711841059602649	0.306754966887417	-0.071523178807947	28.5933774834437	141.535364238411	8.61509933774835				0.208953642384106	0.0637880794701987	-0.0668609271523178	-31.2060927152318	-47.8521854304636	-7.30596026490066				0.693827814569536	-0.113271523178808	-0.19994701986755	-66.632582781457	139.866490066225	-11.6802649006622				0.384529801324503	-0.192529801324503	-0.485721854304636	-2.55708609271523	-18.2964238410596	15.6243708609272				0.468026490066225	-0.0605033112582781	-0.0420662251655629	-24.1282119205298	-45.8680794701987	11.1425165562914				0.351788079470199	-0.126834437086093	-0.308238410596026	-38.6196026490066	-11.3223841059603	1.76529801324503			
113	2280	0.679841059602649	0.226754966887417	-0.183523178807947	11.2333774834437	125.015364238411	10.2950993377483				0.336953642384106	0.0797880794701987	0.125139072847682	-17.4860927152318	-4.73218543046358	-3.38596026490066				0.741827814569536	-0.0812715231788079	-0.19994701986755	-51.512582781457	106.546490066225	-6.92026490066225				0.384529801324503	-0.160529801324503	-0.421721854304636	-16.8370860927152	-25.8564238410596	16.1843708609272				0.436026490066225	-0.0285033112582781	-0.0100662251655629	-28.3282119205298	-41.6680794701987	10.5825165562914				0.335788079470199	-0.0788344370860927	-0.372238410596026	-35.5396026490066	-16.6423841059603	3.16529801324503			
114	2300	0.887841059602649	0.146754966887417	-0.215523178807947	4.23337748344371	108.495364238411	4.41509933774834				0.496953642384106	0.0317880794701987	0.0931390728476822	-21.6860927152318	-5.29218543046358	-1.42596026490066				0.645827814569536	-0.00127152317880793	-0.19994701986755	-25.752582781457	63.4264900662252	0.91973509933775				0.384529801324503	-0.144529801324503	-0.405721854304636	-15.4370860927152	-36.4964238410596	19.8243708609272				0.436026490066225	0.0354966887417219	0.00593377483443711	-24.1282119205298	-36.9080794701987	8.62251655629139				0.335788079470199	-0.0308344370860927	-0.388238410596026	-30.4996026490066	-18.6023841059603	-6.07470198675497			
115	2320	0.999841059602649	0.114754966887417	-0.311523178807947	-11.1666225165563	73.7753642384106	3.57509933774835				0.528953642384106	-0.0162119205298013	0.0771390728476822	-21.4060927152318	25.2278145695364	8.37403973509934				0.805827814569536	-0.0172715231788079	-0.19994701986755	6.44741721854305	28.1464900662252	4.55973509933775				0.464529801324503	-0.0805298013245033	-0.453721854304636	-10.6770860927152	-40.4164238410596	21.5043708609272				0.516026490066225	0.0354966887417219	0.00593377483443711	-18.5282119205298	-28.5080794701987	4.98251655629139				0.351788079470199	-0.0628344370860927	-0.420238410596026	-25.7396026490066	-18.8823841059603	-9.99470198675497			
116	2340	0.919841059602649	0.00275496688741723	-0.343523178807947	-18.1666225165563	53.8953642384106	3.85509933774834				0.800953642384106	-0.0642119205298013	0.317139072847682	-11.8860927152318	28.5878145695364	10.0540397350993				1.10982781456954	-0.0652715231788079	-0.19994701986755	24.087417218543	12.1864900662252	10.1597350993378				0.512529801324503	-0.112529801324503	-0.517721854304636	-4.79708609271523	-33.9764238410596	20.1043708609272				0.628026490066225	0.00349668874172187	0.00593377483443711	-12.3682119205298	-20.3880794701987	1.06251655629139				0.415788079470199	-0.0948344370860927	-0.500238410596026	-12.0196026490066	-14.4023841059603	-7.19470198675497			
117	2360	0.999841059602649	-0.0292450331125828	-0.375523178807947	-24.3266225165563	41.8553642384106	5.81509933774834				0.992953642384106	-0.0322119205298013	0.349139072847682	-18.6060927152318	7.30781456953642	-10.1059602649007				1.02982781456954	-0.129271523178808	-0.27994701986755	20.447417218543	-13.5735099337748	5.11973509933775				0.576529801324503	-0.160529801324503	-0.565721854304636	3.32291390728477	-28.0964238410596	18.1443708609272				0.724026490066225	-0.0125033112582781	0.00593377483443711	-8.4482119205298	-12.2680794701987	-2.57748344370861				0.511788079470199	-0.126834437086093	-0.548238410596027	-11.7396026490066	-4.88238410596027	-4.95470198675497			
118	2380	1.03184105960265	-0.0932450331125828	-0.231523178807947	-30.4866225165563	40.1753642384106	9.73509933774834				1.00895364238411	-0.112211920529801	0.109139072847682	-14.4060927152318	-39.7321854304636	-11.7859602649007				1.04582781456954	-0.113271523178808	-0.19994701986755	32.4874172185431	-4.33350993377483	2.03973509933775				0.688529801324503	-0.144529801324503	-0.645721854304636	1.36291390728477	-26.1364238410596	11.1443708609272				0.868026490066225	-0.0125033112582781	0.0539337748344371	-7.0482119205298	2.57192052980133	-5.37748344370861				0.575788079470199	-0.222834437086093	-0.548238410596027	-0.819602649006623	-0.962384105960265	-8.31470198675497			
119	2400	1.04784105960265	-0.125245033112583	-0.135523178807947	-26.5666225165563	30.3753642384106	6.37509933774834				1.15295364238411	-0.224211920529801	-0.00286092715231785	6.59390728476821	-5.85218543046358	-11.5059602649007				1.09382781456954	-0.193271523178808	-0.19994701986755	-2.23258278145695	-10.2135099337748	5.11973509933775				0.720529801324503	-0.144529801324503	-0.725721854304636	-1.99708609271523	-14.6564238410596	6.38437086092715				1.01202649006623	-0.0445033112582781	0.0699337748344371	0.791788079470198	7.05192052980133	-7.61748344370861				0.687788079470199	-0.318834437086093	-0.548238410596027	5.62039735099338	7.71761589403974	-14.474701986755			
120	2420	0.967841059602649	-0.0292450331125828	-0.087523178807947	-30.4866225165563	18.6153642384106	2.73509933774834				1.07295364238411	-0.000211920529801304	0.141139072847682	-9.64609271523179	3.66781456953642	-4.78596026490066				1.02982781456954	-0.257271523178808	-0.16794701986755	-31.632582781457	-6.85350993377483	9.59973509933775				0.704529801324503	-0.160529801324503	-0.757721854304636	-4.79708609271523	-4.8564238410596	-3.13562913907285				1.10802649006623	-0.0605033112582781	0.00593377483443711	-2.5682119205298	7.89192052980133	-9.85748344370861				0.783788079470199	-0.382834437086093	-0.564238410596026	12.0603973509934	12.4776158940397	-21.194701986755			
121	2440	0.919841059602649	0.0667549668874172	-0.055523178807947	-33.8466225165563	15.5353642384106	4.97509933774835				0.976953642384106	0.0157880794701987	0.173139072847682	-11.3260927152318	-10.3321854304636	0.25403973509934				0.869827814569536	-0.145271523178808	-0.16794701986755	-51.792582781457	8.82649006622517	6.79973509933775				0.688529801324503	-0.128529801324503	-0.789721854304636	-2.55708609271523	-0.9364238410596	-14.0556291390728				1.12402649006623	-0.0445033112582781	0.0219337748344371	-8.4482119205298	7.33192052980133	-11.2574834437086				0.815788079470199	-0.446834437086093	-0.580238410596026	10.3803973509934	9.67761589403974	-25.114701986755			
122	2460	0.983841059602649	0.146754966887417	-0.087523178807947	-19.8466225165563	14.4153642384106	2.73509933774834				0.960953642384106	-0.0482119205298013	-0.0188609271523178	-13.2860927152318	-4.17218543046358	5.85403973509934				0.853827814569536	-0.0332715231788079	-0.18394701986755	-54.872582781457	8.82649006622517	5.67973509933775				0.672529801324503	-0.0965298013245033	-0.789721854304636	-1.99708609271523	-3.1764238410596	-15.1756291390728				1.02802649006623	0.0194966887417219	-0.0100662251655629	-14.6082119205298	-3.30807947019868	-10.1374834437086				0.799788079470199	-0.430834437086093	-0.580238410596026	-3.89960264900662	10.2376158940397	-22.874701986755			
123	2480	0.967841059602649	0.0827549668874172	-0.039523178807947	-1.08662251655629	13.0153642384106	-0.0649006622516557				1.00895364238411	-0.0802119205298013	-0.0988609271523179	-7.68609271523179	-1.09218543046358	5.01403973509934				0.901827814569536	0.0307284768211921	-0.24794701986755	-38.912582781457	8.26649006622517	7.63973509933775				0.656529801324503	-0.176529801324503	-0.741721854304636	-2.83708609271523	-12.9764238410596	-9.85562913907285				0.916026490066225	0.0514966887417219	0.00593377483443711	-11.8082119205298	-3.02807947019868	-8.45748344370861				0.767788079470199	-0.366834437086093	-0.628238410596026	-3.05960264900662	2.67761589403974	-13.074701986755			
124	2500	0.951841059602649	-0.0132450331125828	-0.055523178807947	2.27337748344371	16.6553642384106	-0.624900662251656				0.976953642384106	-0.0802119205298013	0.0131390728476822	-7.40609271523179	6.18781456953642	4.73403973509934				0.933827814569536	0.0307284768211921	-0.32794701986755	-24.912582781457	3.78649006622517	4.55973509933775				0.592529801324503	-0.192529801324503	-0.725721854304636	-9.83708609271523	-20.5364238410596	-1.45562913907285				0.916026490066225	0.0194966887417219	0.0219337748344371	-8.7282119205298	0.331920529801325	-4.25748344370861				0.735788079470199	-0.302834437086093	-0.612238410596026	-6.97960264900662	0.157615894039735	-5.23470198675497			
125	2520	0.935841059602649	-0.0292450331125828	-0.055523178807947	-10.0466225165563	19.1753642384106	0.775099337748344				0.976953642384106	-0.0802119205298013	0.0291390728476822	-3.76609271523179	7.86781456953642	1.37403973509934				0.965827814569536	0.0467284768211921	-0.35994701986755	-8.39258278145695	6.30649006622517	3.15973509933775				0.560529801324503	-0.160529801324503	-0.709721854304636	-21.0370860927152	-24.4564238410596	6.38437086092715				0.948026490066225	-0.0125033112582781	0.0379337748344371	-8.1682119205298	0.891920529801325	-2.57748344370861				0.735788079470199	-0.270834437086093	-0.660238410596027	-3.05960264900662	-4.60238410596027	-1.03470198675497			
126	2540	1.01584105960265	0.0187549668874172	-0.119523178807947	-13.1266225165563	14.1353642384106	0.775099337748344				1.04095364238411	-0.0482119205298013	0.0611390728476822	-4.88609271523179	-0.252185430463576	-3.10596026490066				0.981827814569536	0.0307284768211921	-0.32794701986755	7.56741721854305	4.90649006622517	2.31973509933775				0.560529801324503	-0.112529801324503	-0.709721854304636	-24.6770860927152	-20.5364238410596	10.5843708609272				0.948026490066225	-0.0285033112582781	0.00593377483443711	-11.2482119205298	2.01192052980133	-0.897483443708608				0.751788079470199	-0.270834437086093	-0.644238410596026	-0.259602649006623	-6.00238410596027	-1.31470198675497			
127	2560	0.999841059602649	0.0347549668874172	-0.151523178807947	-8.64662251655629	4.3353642384106	-1.18490066225166				1.05695364238411	-0.000211920529801304	0.0451390728476822	-4.88609271523179	5.62781456953642	-1.42596026490066				0.981827814569536	-0.0652715231788079	-0.27994701986755	10.087417218543	3.78649006622517	0.35973509933775				0.560529801324503	-0.112529801324503	-0.693721854304636	-15.4370860927152	-13.2564238410596	11.1443708609272				0.964026490066225	0.00349668874172187	-0.0100662251655629	-10.1282119205298	4.81192052980133	1.34251655629139				0.751788079470199	-0.270834437086093	-0.644238410596026	-0.259602649006623	-6.56238410596027	-1.31470198675497			
128	2580	0.967841059602649	0.0667549668874172	-0.167523178807947	-7.80662251655629	-6.3046357615894	3.01509933774834				0.960953642384106	-0.0162119205298013	0.0771390728476822	-2.08609271523179	-2.21218543046358	-1.14596026490066				0.949827814569536	-0.113271523178808	-0.24794701986755	0.847417218543046	-1.81350993377483	0.91973509933775				0.560529801324503	-0.0645298013245033	-0.709721854304636	-1.71708609271523	-5.9764238410596	9.46437086092715				0.980026490066225	0.00349668874172187	-0.0100662251655629	-4.2482119205298	8.73192052980133	1.90251655629139				0.687788079470199	-0.270834437086093	-0.580238410596026	3.10039735099338	-2.64238410596027	1.20529801324503			
129	2600	0.935841059602649	0.0347549668874172	-0.119523178807947	1.43337748344371	-2.9446357615894	3.57509933774835				0.944953642384106	-0.000211920529801304	-0.114860927152318	1.83390728476821	-8.93218543046358	-3.10596026490066				0.949827814569536	-0.0812715231788079	-0.24794701986755	-4.75258278145695	-4.61350993377483	0.91973509933775				0.608529801324503	-0.0645298013245033	-0.725721854304636	1.36291390728477	-6.8164238410596	5.26437086092715				0.964026490066225	0.0194966887417219	-0.0100662251655629	-2.0082119205298	7.33192052980133	3.30251655629139				0.671788079470199	-0.302834437086093	-0.596238410596026	10.6603973509934	-1.80238410596026	2.60529801324503			
130	2620	0.951841059602649	0.00275496688741723	-0.00752317880794696	7.03337748344371	0.695364238410596	1.61509933774834				1.02495364238411	-0.0962119205298013	-0.0828609271523179	1.55390728476821	7.58781456953643	0.81403973509934				0.885827814569536	-0.0812715231788079	-0.26394701986755	-4.19258278145695	-4.61350993377483	3.43973509933775				0.640529801324503	-0.112529801324503	-0.741721854304636	9.48291390728477	-9.6164238410596	6.10437086092715				0.948026490066225	0.0194966887417219	0.0379337748344371	1.0717880794702	5.37192052980133	3.30251655629139				0.687788079470199	-0.350834437086093	-0.580238410596026	7.02039735099338	-6.28238410596027	2.04529801324503			
131	2640	0.967841059602649	-0.0452450331125828	-0.087523178807947	7.03337748344371	4.0553642384106	1.33509933774834				1.04095364238411	-0.0962119205298013	0.0131390728476822	4.07390728476821	12.0678145695364	6.41403973509934				0.901827814569536	-0.0332715231788079	-0.27994701986755	-0.552582781456954	-0.133509933774833	3.99973509933775				0.688529801324503	-0.176529801324503	-0.773721854304636	10.8829139072848	-13.2564238410596	8.62437086092715				1.01202649006623	-0.0125033112582781	0.0379337748344371	3.0317880794702	5.65192052980133	0.502516556291392				0.735788079470199	-0.350834437086093	-0.612238410596026	-2.49960264900662	-10.2023841059603	3.16529801324503			
132	2660	0.967841059602649	-0.0132450331125828	-0.087523178807947	-1.64662251655629	7.9753642384106	0.775099337748344				1.07295364238411	-0.0962119205298013	0.0611390728476822	1.83390728476821	7.58781456953643	9.49403973509934				0.933827814569536	-0.0172715231788079	-0.26394701986755	1.96741721854305	2.38649006622517	2.31973509933775				0.688529801324503	-0.208529801324503	-0.789721854304636	-1.15708609271523	-12.6964238410596	12.2643708609272				1.04402649006623	-0.0445033112582781	0.0539337748344371	-0.328211920529802	1.17192052980133	0.502516556291392				0.751788079470199	-0.334834437086093	-0.628238410596026	-3.89960264900662	-12.4423841059603	7.08529801324503			
133	2680	0.951841059602649	0.00275496688741723	-0.087523178807947	-2.20662251655629	10.7753642384106	-0.904900662251656				0.976953642384106	-0.0802119205298013	0.0291390728476822	-9.92609271523179	0.0278145695364242	8.93403973509934				0.917827814569536	-0.0332715231788079	-0.27994701986755	8.12741721854305	6.02649006622517	0.0797350993377501				0.624529801324503	-0.176529801324503	-0.757721854304636	-13.1970860927152	-10.7364238410596	12.5443708609272				1.01202649006623	-0.0445033112582781	0.0379337748344371	-1.1682119205298	-0.228079470198675	3.30251655629139				0.751788079470199	-0.350834437086093	-0.660238410596027	-5.29960264900662	-15.2423841059603	7.64529801324503			
134	2700	0.951841059602649	0.0347549668874172	-0.071523178807947	3.11337748344371	9.6553642384106	-0.344900662251656				0.928953642384106	-0.0482119205298013	-0.0188609271523178	-4.60609271523179	-1.09218543046358	7.81403973509934				0.901827814569536	-0.0652715231788079	-0.26394701986755	11.207417218543	7.14649006622517	-0.20026490066225				0.560529801324503	-0.128529801324503	-0.741721854304636	-8.15708609271523	-13.8164238410596	15.0643708609272				0.996026490066225	-0.0445033112582781	0.0219337748344371	0.791788079470198	-0.508079470198675	4.42251655629139				0.735788079470199	-0.334834437086093	-0.644238410596026	-4.17960264900662	-15.8023841059603	7.36529801324503			
135	2720	0.983841059602649	0.0347549668874172	-0.087523178807947	10.3933774834437	7.9753642384106	0.215099337748344				0.928953642384106	-0.0802119205298013	-0.0188609271523178	7.43390728476821	-2.21218543046358	6.41403973509934				0.917827814569536	-0.113271523178808	-0.24794701986755	11.767417218543	5.18649006622517	1.47973509933775				0.544529801324503	-0.112529801324503	-0.725721854304636	4.72291390728477	-17.1764238410596	18.7043708609272				0.932026490066225	-0.0285033112582781	0.00593377483443711	2.1917880794702	-2.46807947019868	6.66251655629139				0.687788079470199	-0.318834437086093	-0.628238410596026	-0.259602649006623	-18.6023841059603	7.08529801324503			
136	2740	0.951841059602649	0.0187549668874172	-0.087523178807947	10.6733774834437	4.0553642384106	1.61509933774834				0.960953642384106	-0.0802119205298013	0.0611390728476822	8.55390728476821	-2.77218543046358	4.17403973509934				0.965827814569536	-0.129271523178808	-0.26394701986755	14.287417218543	2.38649006622517	1.75973509933775				0.560529801324503	-0.144529801324503	-0.725721854304636	5.56291390728477	-24.4564238410596	19.8243708609272				0.916026490066225	-0.0285033112582781	0.00593377483443711	4.1517880794702	-2.74807947019868	9.18251655629139				0.623788079470199	-0.318834437086093	-0.612238410596026	2.82039735099338	-20.5623841059603	10.165298013245			
137	2760	0.951841059602649	-0.0292450331125828	-0.103523178807947	13.1933774834437	2.6553642384106	1.61509933774834				0.992953642384106	-0.0962119205298013	0.0451390728476822	7.43390728476821	-6.97218543046358	5.01403973509934				0.949827814569536	-0.129271523178808	-0.23194701986755	18.767417218543	2.10649006622517	2.87973509933775				0.592529801324503	-0.192529801324503	-0.757721854304636	-0.317086092715232	-25.5764238410596	20.1043708609272				0.916026490066225	-0.0285033112582781	0.0219337748344371	8.6317880794702	-2.18807947019868	9.46251655629139				0.623788079470199	-0.334834437086093	-0.612238410596026	1.70039735099338	-21.1223841059603	13.245298013245			
138	2780	0.983841059602649	-0.0452450331125828	-0.087523178807947	11.7933774834437	4.6153642384106	0.215099337748344				1.00895364238411	-0.144211920529801	0.0291390728476822	3.51390728476821	-5.57218543046358	7.25403973509934				0.933827814569536	-0.145271523178808	-0.21594701986755	22.127417218543	3.22649006622517	2.87973509933775				0.576529801324503	-0.192529801324503	-0.741721854304636	-3.39708609271523	-19.4164238410596	18.1443708609272				0.948026490066225	-0.0445033112582781	0.0219337748344371	8.6317880794702	1.73192052980133	7.50251655629139				0.607788079470199	-0.318834437086093	-0.612238410596026	-3.89960264900662	-20.0023841059603	13.525298013245			
139	2800	0.983841059602649	-0.0292450331125828	-0.055523178807947	8.15337748344371	6.0153642384106	-1.46490066225166				1.00895364238411	-0.128211920529801	0.0131390728476822	-2.08609271523179	-7.25218543046358	9.49403973509934				0.965827814569536	-0.177271523178808	-0.18394701986755	20.727417218543	4.06649006622517	3.99973509933775				0.560529801324503	-0.176529801324503	-0.725721854304636	-5.35708609271523	-15.4964238410596	13.6643708609272				0.948026490066225	-0.0925033112582781	0.0539337748344371	5.5517880794702	5.37192052980133	5.82251655629139				0.623788079470199	-0.302834437086093	-0.628238410596026	-1.93960264900662	-17.2023841059603	15.205298013245			
140	2820	0.967841059602649	-0.0292450331125828	-0.103523178807947	3.39337748344371	3.7753642384106	-1.46490066225166				0.992953642384106	-0.112211920529801	0.0931390728476822	-8.52609271523179	-9.77218543046358	10.6140397350993				0.981827814569536	-0.209271523178808	-0.13594701986755	13.727417218543	9.66649006622517	4.83973509933775				0.544529801324503	-0.160529801324503	-0.725721854304636	-6.75708609271523	-13.2564238410596	10.0243708609272				0.964026490066225	-0.108503311258278	0.0699337748344371	4.9917880794702	5.37192052980133	5.54251655629139				0.623788079470199	-0.382834437086093	-0.596238410596026	4.22039735099338	-15.2423841059603	15.205298013245			
141	2840	0.967841059602649	-0.0132450331125828	-0.055523178807947	1.43337748344371	2.6553642384106	-1.18490066225166				0.928953642384106	-0.128211920529801	0.0131390728476822	-3.48609271523179	-10.6121854304636	8.09403973509934				0.949827814569536	-0.161271523178808	-0.0559470198675496	7.00741721854305	6.30649006622517	4.83973509933775				0.512529801324503	-0.176529801324503	-0.741721854304636	1.08291390728477	-9.0564238410596	10.0243708609272				0.964026490066225	-0.0925033112582781	0.0379337748344371	2.1917880794702	2.57192052980133	4.70251655629139				0.639788079470199	-0.414834437086093	-0.596238410596026	4.50039735099338	-11.0423841059603	14.085298013245			
142	2860	0.967841059602649	-0.0452450331125828	-0.055523178807947	0.0333774834437086	3.2153642384106	-1.46490066225166				0.944953642384106	-0.144211920529801	0.0291390728476822	-0.966092715231788	-4.73218543046358	7.81403973509934				0.917827814569536	-0.193271523178808	-0.0399470198675496	10.647417218543	9.66649006622517	3.15973509933775				0.528529801324503	-0.208529801324503	-0.773721854304636	6.40291390728477	-4.2964238410596	10.0243708609272				0.964026490066225	-0.0925033112582781	0.0379337748344371	3.5917880794702	3.69192052980133	5.26251655629139				0.639788079470199	-0.398834437086093	-0.580238410596026	7.30039735099338	-9.92238410596027	12.125298013245			
143	2880	0.951841059602649	-0.0612450331125828	-0.023523178807947	-4.16662251655629	1.8153642384106	-1.74490066225166				0.960953642384106	-0.144211920529801	0.0291390728476822	-4.32609271523179	-12.0121854304636	14.5340397350993				0.917827814569536	-0.193271523178808	-0.0239470198675496	15.967417218543	14.1464900662252	5.39973509933775				0.576529801324503	-0.176529801324503	-0.773721854304636	2.48291390728477	-3.4564238410596	7.22437086092715				0.948026490066225	-0.0765033112582781	0.0539337748344371	2.4717880794702	3.69192052980133	3.86251655629139				0.639788079470199	-0.366834437086093	-0.612238410596026	2.54039735099338	-10.2023841059603	11.005298013245			
144	2900	0.967841059602649	-0.0612450331125828	-0.00752317880794696	-9.20662251655629	2.3753642384106	-2.86490066225166				0.960953642384106	-0.160211920529801	-0.00286092715231785	-13.0060927152318	-5.29218543046358	16.2140397350993				0.917827814569536	-0.129271523178808	-0.13594701986755	2.52741721854305	16.1064900662252	4.27973509933775				0.544529801324503	-0.192529801324503	-0.789721854304636	-0.877086092715232	-3.7364238410596	8.90437086092715				0.980026490066225	-0.0765033112582781	0.0539337748344371	-2.5682119205298	0.331920529801325	4.14251655629139				0.607788079470199	-0.366834437086093	-0.580238410596026	5.06039735099338	-6.28238410596027	11.005298013245			
145	2920	0.967841059602649	0.00275496688741723	-0.00752317880794696	-14.2466225165563	4.8953642384106	-3.42490066225166				0.976953642384106	-0.128211920529801	0.0451390728476822	-16.6460927152318	-3.33218543046358	14.5340397350993				0.965827814569536	-0.113271523178808	-0.18394701986755	-15.112582781457	15.2664900662252	1.47973509933775				0.528529801324503	-0.208529801324503	-0.789721854304636	-0.317086092715232	-6.8164238410596	10.5843708609272				0.948026490066225	-0.0765033112582781	0.0379337748344371	-2.2882119205298	-0.508079470198675	5.54251655629139				0.591788079470199	-0.350834437086093	-0.596238410596026	5.62039735099338	-1.80238410596026	11.005298013245			
146	2940	0.983841059602649	0.00275496688741723	-0.023523178807947	-17.3266225165563	4.8953642384106	-4.26490066225166				0.944953642384106	-0.144211920529801	0.0131390728476822	-13.8460927152318	-7.25218543046358	10.8940397350993				0.965827814569536	-0.0972715231788079	-0.19994701986755	-15.952582781457	9.38649006622517	-1.32026490066225				0.512529801324503	-0.224529801324503	-0.789721854304636	-4.79708609271523	-8.2164238410596	9.18437086092715				0.932026490066225	-0.0925033112582781	0.0379337748344371	-0.888211920529802	1.73192052980133	5.54251655629139				0.607788079470199	-0.382834437086093	-0.596238410596026	6.18039735099338	-0.122384105960265	9.04529801324503			
147	2960	0	0	0	0	0	0				0.976953642384106	-0.128211920529801	0.0611390728476822	-9.64609271523179	-6.97218543046358	5.01403973509934				0	0	0	0	0	0				0	0	0	0	0	0				0	0	0	0	0	0				0	0	0	0	0	0			
148	2980	0.951841059602649	0.0347549668874172	-0.023523178807947	-16.7666225165563	-2.3846357615894	-2.86490066225166				0.976953642384106	-0.0802119205298013	0.0451390728476822	-6.00609271523179	-11.1721854304636	0.25403973509934				0.965827814569536	-0.0492715231788079	-0.23194701986755	4.48741721854305	3.22649006622517	-7.76026490066225				0	0	0	0	0	0				0	0	0	0	0	0				0	0	0	0	0	0			
149	3000	0.967841059602649	0.0347549668874172	-0.039523178807947	-16.2066225165563	0.135364238410596	-2.30490066225166				0.976953642384106	-0.0802119205298013	0.0131390728476822	-7.12609271523179	-10.3321854304636	-1.70596026490066				0.949827814569536	-0.0492715231788079	-0.23194701986755	3.36741721854305	0.706490066225167	-6.92026490066225				0.496529801324503	-0.192529801324503	-0.773721854304636	0.802913907284768	0.1835761589404	4.42437086092715				0.948026490066225	-0.0765033112582781	0.0539337748344371	-8.7282119205298	3.41192052980132	2.74251655629139				0.607788079470199	-0.398834437086093	-0.596238410596026	4.22039735099338	4.35761589403974	4.56529801324503			
150	3020	0.983841059602649	0.0667549668874172	-0.00752317880794696	-13.9666225165563	0.695364238410596	-1.46490066225166				0.976953642384106	-0.0482119205298013	-0.00286092715231785	-5.44609271523179	-9.77218543046358	-4.78596026490066				0.965827814569536	-0.0492715231788079	-0.19994701986755	7.84741721854305	1.26649006622517	-7.20026490066225				0.512529801324503	-0.176529801324503	-0.757721854304636	-1.43708609271523	1.5835761589404	2.46437086092715				0.932026490066225	-0.0605033112582781	0.0699337748344371	-9.2882119205298	6.21192052980133	2.18251655629139				0.607788079470199	-0.414834437086093	-0.580238410596026	1.70039735099338	4.63761589403974	3.72529801324503			
151	3040	0.967841059602649	0.0827549668874172	-0.039523178807947	-12.5666225165563	0.135364238410596	-1.74490066225166				1.00895364238411	-0.0482119205298013	-0.0508609271523178	-2.92609271523179	-10.0521854304636	-3.10596026490066				0.965827814569536	-0.0812715231788079	-0.21594701986755	5.88741721854305	2.10649006622517	-6.92026490066225				0.560529801324503	-0.160529801324503	-0.789721854304636	-1.99708609271523	-1.4964238410596	1.90437086092715				0.932026490066225	-0.0445033112582781	0.0699337748344371	-10.6882119205298	4.53192052980133	1.90251655629139				0.639788079470199	-0.398834437086093	-0.612238410596026	-0.259602649006623	6.31761589403974	3.44529801324503			
152	3060	0.983841059602649	0.0827549668874172	-0.071523178807947	-6.96662251655629	-0.984635761589404	-3.14490066225166				1.00895364238411	-0.0802119205298013	-0.0188609271523178	-3.20609271523179	-4.45218543046358	-2.54596026490066				0.949827814569536	-0.0972715231788079	-0.19994701986755	3.08741721854305	2.94649006622517	-6.08026490066225				0.592529801324503	-0.160529801324503	-0.805721854304636	-0.0370860927152318	-5.1364238410596	3.02437086092715				0.964026490066225	-0.0125033112582781	0.0859337748344371	-10.4082119205298	5.93192052980133	-0.0574834437086077				0.623788079470199	-0.382834437086093	-0.612238410596026	0.580397350993377	3.51761589403974	4.56529801324503			
153	3080	0.967841059602649	0.0667549668874172	-0.039523178807947	-5.56662251655629	-0.424635761589404	-2.86490066225166				0.992953642384106	-0.0482119205298013	0.0291390728476822	-0.966092715231788	-1.65218543046358	-2.54596026490066				0.949827814569536	-0.0812715231788079	-0.16794701986755	1.12741721854305	-0.413509933774833	-3.56026490066225				0.592529801324503	-0.176529801324503	-0.821721854304636	-3.95708609271523	-5.4164238410596	4.70437086092715				0.980026490066225	-0.0285033112582781	0.0859337748344371	-10.1282119205298	6.21192052980133	-0.0574834437086077				0.639788079470199	-0.366834437086093	-0.596238410596026	0.580397350993377	2.67761589403974	4.84529801324503			
154	3100	0.951841059602649	0.0507549668874172	-0.00752317880794696	-3.88662251655629	-0.424635761589404	-1.46490066225166				0.960953642384106	-0.0482119205298013	-0.00286092715231785	1.55390728476821	-1.37218543046358	-3.66596026490066				0.949827814569536	-0.0332715231788079	-0.16794701986755	-1.39258278145695	-2.09350993377483	-2.16026490066225				0.608529801324503	-0.160529801324503	-0.805721854304636	-9.55708609271523	-7.0964238410596	3.30437086092715				0.964026490066225	-0.0285033112582781	0.0859337748344371	-7.6082119205298	7.05192052980133	-0.337483443708608				0.655788079470199	-0.398834437086093	-0.628238410596026	-0.259602649006623	2.11761589403974	4.84529801324503			
155	3120	0.967841059602649	0.0507549668874172	-0.055523178807947	-6.68662251655629	0.415364238410596	-0.624900662251656				0.976953642384106	-0.0642119205298013	-0.0348609271523178	0.713907284768212	-3.05218543046358	-3.38596026490066				0.933827814569536	-0.0652715231788079	-0.16794701986755	2.52741721854305	-0.693509933774834	-1.60026490066225				0.608529801324503	-0.144529801324503	-0.821721854304636	-10.9570860927152	-8.4964238410596	3.58437086092715				0.980026490066225	-0.0285033112582781	0.0699337748344371	-6.4882119205298	5.09192052980133	-2.01748344370861				0.639788079470199	-0.382834437086093	-0.628238410596026	-1.09960264900662	-0.682384105960265	3.16529801324503			
156	3140	0.983841059602649	0.0667549668874172	-0.055523178807947	-6.12662251655629	1.5353642384106	-1.18490066225166				1.00895364238411	-0.0482119205298013	-0.00286092715231785	-0.686092715231788	-2.21218543046358	-2.82596026490066				0.965827814569536	-0.0652715231788079	-0.16794701986755	-2.51258278145695	-0.693509933774834	-1.04026490066225				0.592529801324503	-0.144529801324503	-0.805721854304636	-14.0370860927152	-9.8964238410596	1.90437086092715				0.980026490066225	-0.0285033112582781	0.0699337748344371	-5.6482119205298	3.97192052980133	-2.85748344370861				0.639788079470199	-0.350834437086093	-0.628238410596026	-2.21960264900662	-1.24238410596026	2.60529801324503			
157	3160	0.951841059602649	0.0667549668874172	-0.055523178807947	-4.16662251655629	0.415364238410596	-0.624900662251656				0.976953642384106	-0.0642119205298013	-0.0188609271523178	-4.04609271523179	-3.89218543046358	-2.54596026490066				0.933827814569536	-0.0812715231788079	-0.18394701986755	-6.15258278145695	-2.09350993377483	-0.48026490066225				0.544529801324503	-0.128529801324503	-0.773721854304636	-16.2770860927152	-9.3364238410596	1.90437086092715				0.964026490066225	-0.0125033112582781	0.0699337748344371	-3.4082119205298	2.85192052980133	-3.13748344370861				0.623788079470199	-0.366834437086093	-0.628238410596026	2.54039735099338	-3.20238410596026	2.32529801324503			
158	3180	0.967841059602649	0.0507549668874172	-0.071523178807947	-4.44662251655629	0.695364238410596	-2.02490066225166				0.960953642384106	-0.0642119205298013	-0.00286092715231785	-0.126092715231788	-2.49218543046358	-2.26596026490066				0.933827814569536	-0.0812715231788079	-0.19994701986755	-9.79258278145695	-3.21350993377483	0.91973509933775				0.512529801324503	-0.112529801324503	-0.773721854304636	-12.6370860927152	-7.3764238410596	0.504370860927152				0.980026490066225	-0.0285033112582781	0.0539337748344371	-2.8482119205298	3.41192052980132	-4.25748344370861				0.639788079470199	-0.382834437086093	-0.628238410596026	6.18039735099338	-4.32238410596027	1.48529801324503			
159	3200	0.951841059602649	0.0507549668874172	-0.055523178807947	-4.72662251655629	-0.144635761589404	-1.18490066225166				0.976953642384106	-0.0802119205298013	-0.00286092715231785	1.27390728476821	-2.49218543046358	-2.82596026490066				0.949827814569536	-0.0492715231788079	-0.21594701986755	-10.632582781457	-2.93350993377483	0.91973509933775				0.512529801324503	-0.0965298013245033	-0.773721854304636	-6.47708609271523	-3.7364238410596	-0.335629139072848				0.964026490066225	-0.0445033112582781	0.0539337748344371	-2.5682119205298	2.85192052980133	-3.41748344370861				0.623788079470199	-0.398834437086093	-0.612238410596026	-1.09960264900662	-2.64238410596027	1.20529801324503			
160	3220	0.967841059602649	0.0347549668874172	-0.023523178807947	-2.20662251655629	-0.984635761589404	0.215099337748344				0.976953642384106	-0.0642119205298013	-0.0348609271523178	1.55390728476821	-1.93218543046358	-3.66596026490066				0.933827814569536	-0.0492715231788079	-0.19994701986755	-11.472582781457	-5.17350993377483	2.03973509933775				0.512529801324503	-0.0965298013245033	-0.757721854304636	-2.83708609271523	-1.2164238410596	-0.895629139072848				0.948026490066225	-0.0125033112582781	0.0699337748344371	-1.1682119205298	-0.228079470198675	-3.41748344370861				0.639788079470199	-0.334834437086093	-0.596238410596026	-5.01960264900662	-2.08238410596027	1.20529801324503			
161	3240	0.983841059602649	0.0347549668874172	-0.071523178807947	-2.20662251655629	0.415364238410596	0.495099337748344				0.992953642384106	-0.0482119205298013	0.0131390728476822	2.11390728476821	1.70781456953642	-4.78596026490066				0.949827814569536	-0.0812715231788079	-0.21594701986755	-9.79258278145695	-5.17350993377483	2.87973509933775				0.496529801324503	-0.112529801324503	-0.773721854304636	0.242913907284768	-1.2164238410596	-0.615629139072848				0.932026490066225	-0.0125033112582781	0.0699337748344371	1.0717880794702	-1.06807947019868	-3.13748344370861				0.639788079470199	-0.350834437086093	-0.612238410596026	-0.539602649006623	-1.52238410596026	0.365298013245032			
162	3260	0.967841059602649	0.0347549668874172	-0.071523178807947	-1.92662251655629	0.415364238410596	0.215099337748344				0.976953642384106	-0.0802119205298013	-0.00286092715231785	1.55390728476821	0.307814569536424	-5.34596026490066				0.949827814569536	-0.0812715231788079	-0.23194701986755	-8.95258278145695	-5.17350993377483	2.59973509933775				0.528529801324503	-0.128529801324503	-0.805721854304636	5.00291390728477	-0.0964238410596001	1.62437086092715				0.964026490066225	-0.0285033112582781	0.0699337748344371	2.1917880794702	-0.508079470198675	-2.29748344370861				0.655788079470199	-0.398834437086093	-0.612238410596026	3.66039735099338	-6.00238410596027	-2.15470198675497			
163	3280	0.967841059602649	0.0347549668874172	-0.087523178807947	1.43337748344371	-3.2246357615894	0.215099337748344				0.976953642384106	-0.0802119205298013	0.0131390728476822	1.83390728476821	1.70781456953642	-4.50596026490066				0.933827814569536	-0.0812715231788079	-0.21594701986755	-9.51258278145695	-4.05350993377483	2.31973509933775				0.512529801324503	-0.160529801324503	-0.821721854304636	3.88291390728477	0.7435761589404	0.784370860927152				0.964026490066225	-0.0285033112582781	0.0539337748344371	1.0717880794702	0.331920529801325	-1.73748344370861				0.655788079470199	-0.398834437086093	-0.628238410596026	-1.37960264900662	-5.44238410596027	-1.59470198675497			
164	3300	0.967841059602649	0.0187549668874172	-0.055523178807947	1.99337748344371	-3.5046357615894	-0.344900662251656				0.992953642384106	-0.0802119205298013	-0.00286092715231785	1.83390728476821	0.867814569536424	-3.38596026490066				0.949827814569536	-0.0812715231788079	-0.21594701986755	-8.11258278145695	-4.33350993377483	1.75973509933775				0.528529801324503	-0.144529801324503	-0.805721854304636	-1.71708609271523	-0.6564238410596	-0.615629139072848				0.964026490066225	-0.0285033112582781	0.0539337748344371	2.7517880794702	-0.228079470198675	-1.73748344370861				0.639788079470199	-0.350834437086093	-0.612238410596026	-6.97960264900662	-2.92238410596027	-1.03470198675497			
165	3320	0.951841059602649	0.0187549668874172	-0.071523178807947	3.95337748344371	-2.6646357615894	-0.0649006622516557				0.992953642384106	-0.0802119205298013	-0.0188609271523178	4.35390728476821	1.70781456953642	-3.10596026490066				0.949827814569536	-0.0652715231788079	-0.23194701986755	-6.99258278145695	-3.49350993377483	1.47973509933775				0.512529801324503	-0.144529801324503	-0.789721854304636	-1.71708609271523	-1.2164238410596	-0.615629139072848				0.948026490066225	-0.0125033112582781	0.0539337748344371	3.8717880794702	-0.508079470198675	-1.17748344370861				0.623788079470199	-0.350834437086093	-0.628238410596026	-0.819602649006623	-2.92238410596027	-1.59470198675497			
166	3340	0.967841059602649	0.00275496688741723	-0.055523178807947	7.31337748344371	-3.5046357615894	0.215099337748344				0.976953642384106	-0.0962119205298013	-0.0188609271523178	2.11390728476821	1.70781456953642	-2.82596026490066				0.949827814569536	-0.0972715231788079	-0.23194701986755	-5.31258278145695	-3.77350993377483	1.47973509933775				0.528529801324503	-0.128529801324503	-0.805721854304636	2.48291390728477	-2.0564238410596	0.504370860927152				0.948026490066225	-0.0285033112582781	0.0859337748344371	6.6717880794702	4.81192052980133	-0.617483443708608				0.639788079470199	-0.366834437086093	-0.628238410596026	2.54039735099338	-3.76238410596027	-2.99470198675497			
167	3360	0.967841059602649	0.00275496688741723	-0.055523178807947	6.47337748344371	-2.9446357615894	0.215099337748344				0.976953642384106	-0.0962119205298013	-0.0348609271523178	3.51390728476821	1.14781456953642	-0.86596026490066				0.933827814569536	-0.0972715231788079	-0.19994701986755	-4.75258278145695	-4.89350993377483	2.31973509933775				0.528529801324503	-0.160529801324503	-0.789721854304636	2.48291390728477	-2.6164238410596	2.46437086092715				0.964026490066225	-0.0605033112582781	0.0539337748344371	4.4317880794702	-1.62807947019868	-0.617483443708608				0.623788079470199	-0.382834437086093	-0.628238410596026	-0.819602649006623	-4.32238410596027	-2.99470198675497			
168	3380	0.967841059602649	0.00275496688741723	-0.055523178807947	6.47337748344371	-1.8246357615894	-1.46490066225166				0.976953642384106	-0.0802119205298013	-0.0348609271523178	-0.686092715231788	1.42781456953642	0.25403973509934				0.933827814569536	-0.113271523178808	-0.19994701986755	0.287417218543046	-4.05350993377483	2.31973509933775				0.512529801324503	-0.160529801324503	-0.789721854304636	-0.877086092715232	-2.8964238410596	1.34437086092715				0.964026490066225	-0.0445033112582781	0.0539337748344371	1.6317880794702	1.17192052980133	-1.17748344370861				0.623788079470199	-0.398834437086093	-0.644238410596026	0.0203973509933773	-5.16238410596027	-2.15470198675497			
169	3400	0.983841059602649	0.00275496688741723	-0.087523178807947	5.35337748344371	-4.0646357615894	-1.74490066225166				0.976953642384106	-0.0962119205298013	-0.0188609271523178	-1.80609271523179	3.10781456953642	0.81403973509934				0.949827814569536	-0.113271523178808	-0.18394701986755	1.12741721854305	-1.81350993377483	1.19973509933775				0.496529801324503	-0.128529801324503	-0.805721854304636	-0.0370860927152318	-0.9364238410596	0.504370860927152				0.964026490066225	-0.0445033112582781	0.0539337748344371	1.0717880794702	0.0519205298013249	-1.17748344370861				0.623788079470199	-0.382834437086093	-0.644238410596026	-2.21960264900662	-5.16238410596027	-1.87470198675497			
170	3420	0.967841059602649	0.0187549668874172	-0.071523178807947	3.11337748344371	-6.5846357615894	-0.904900662251656				0.976953642384106	-0.112211920529801	-0.0348609271523178	-0.406092715231788	0.0278145695364242	1.93403973509934				0.965827814569536	-0.0812715231788079	-0.16794701986755	1.96741721854305	-1.25350993377483	0.0797350993377501				0.512529801324503	-0.128529801324503	-0.789721854304636	2.76291390728477	0.7435761589404	-0.615629139072848				0.980026490066225	-0.0445033112582781	0.0539337748344371	3.0317880794702	-1.90807947019868	-0.0574834437086077				0.623788079470199	-0.350834437086093	-0.644238410596026	-0.539602649006623	-2.64238410596027	-1.87470198675497			
171	3440	0.951841059602649	0.00275496688741723	-0.039523178807947	5.35337748344371	-6.5846357615894	-0.624900662251656				0.976953642384106	-0.112211920529801	-0.0348609271523178	2.67390728476821	0.587814569536424	2.21403973509934				0.949827814569536	-0.0972715231788079	-0.21594701986755	-1.39258278145695	-2.37350993377483	-0.48026490066225				0.512529801324503	-0.160529801324503	-0.789721854304636	4.72291390728477	0.1835761589404	-0.0556291390728476				0.964026490066225	-0.0605033112582781	0.0539337748344371	6.6717880794702	-3.86807947019868	3.02251655629139				0.607788079470199	-0.366834437086093	-0.644238410596026	1.70039735099338	-1.52238410596026	-2.43470198675497			
172	3460	0.967841059602649	-0.0132450331125828	-0.087523178807947	4.79337748344371	-5.1846357615894	-1.18490066225166				0.976953642384106	-0.0962119205298013	-0.0348609271523178	5.75390728476821	2.26781456953642	3.05403973509934				0.933827814569536	-0.113271523178808	-0.19994701986755	1.68741721854305	-0.413509933774833	-0.48026490066225				0.512529801324503	-0.160529801324503	-0.789721854304636	4.72291390728477	-0.3764238410596	-0.895629139072848				0.948026490066225	-0.0605033112582781	0.0379337748344371	6.9517880794702	-2.46807947019868	3.30251655629139				0.607788079470199	-0.398834437086093	-0.660238410596027	3.38039735099338	-2.08238410596027	-2.43470198675497			
