No	Time	12-AccX	12-AccY	12-AccZ	12-GyroX	12-GyroY	12-GyroZ	13-AccX	13-AccY	13-AccZ	13-GyroX	13-GyroY	13-GyroZ	14-AccX	14-AccY	14-AccZ	14-GyroX	14-GyroY	14-GyroZ	15-AccX	15-AccY	15-AccZ	15-GyroX	15-GyroY	15-GyroZ	16-AccX	16-AccY	16-AccZ	16-GyroX	16-GyroY	16-GyroZ	17-AccX	17-AccY	17-AccZ	17-GyroX	17-GyroY	17-GyroZ
0	20	-0.248158940397351	0.130754966887417	-0.935523178807947	2.83337748344371	-2.9446357615894	-1.74490066225166				0.944953642384106	0.0317880794701987	0.333139072847682	7.43390728476821	12.6278145695364	6.13403973509934				-0.234172185430464	-0.209271523178808	-0.85594701986755	6.16741721854305	-1.53350993377483	-2.72026490066225				0.720529801324503	-0.224529801324503	-0.581721854304636	1.64291390728477	8.8635761589404	2.46437086092715				0.948026490066225	0.0194966887417219	0.245933774834437	3.8717880794702	4.53192052980133	1.34251655629139				0.591788079470199	-0.174834437086093	-0.740238410596026	1.98039735099338	4.35761589403974	-1.03470198675497			
1	40	-0.248158940397351	0.130754966887417	-0.935523178807947	3.11337748344371	-2.9446357615894	-1.18490066225166				0.960953642384106	0.0157880794701987	0.333139072847682	8.27390728476821	8.70781456953642	5.01403973509934				-0.250172185430464	-0.193271523178808	-0.85594701986755	5.04741721854305	-0.973509933774833	-1.04026490066225				0.720529801324503	-0.224529801324503	-0.565721854304636	4.16291390728477	10.2635761589404	1.34437086092715				0.948026490066225	0.00349668874172187	0.245933774834437	3.8717880794702	4.25192052980133	1.06251655629139				0.575788079470199	-0.190834437086093	-0.740238410596026	6.46039735099338	4.91761589403974	-1.31470198675497			
2	60	-0.264158940397351	0.114754966887417	-0.935523178807947	2.83337748344371	-2.3846357615894	-1.18490066225166				0.976953642384106	0.0157880794701987	0.317139072847682	4.35390728476821	6.74781456953642	3.05403973509934				-0.266172185430464	-0.209271523178808	-0.85594701986755	2.52741721854305	-0.133509933774833	-0.76026490066225				0.736529801324503	-0.224529801324503	-0.565721854304636	7.52291390728477	10.5435761589404	-0.0556291390728476				0.964026490066225	-0.0125033112582781	0.261933774834437	4.4317880794702	4.25192052980133	1.62251655629139				0.591788079470199	-0.222834437086093	-0.740238410596026	5.06039735099338	6.03761589403974	-0.474701986754968			
3	80	-0.280158940397351	0.0987549668874172	-0.919523178807947	1.99337748344371	-1.5446357615894	-1.74490066225166				0.960953642384106	0.0317880794701987	0.301139072847682	0.153907284768212	4.50781456953642	0.25403973509934				-0.282172185430464	-0.209271523178808	-0.87194701986755	1.12741721854305	-0.973509933774833	-0.48026490066225				0.736529801324503	-0.256529801324503	-0.581721854304636	7.24291390728477	10.5435761589404	-0.895629139072848				0.948026490066225	-0.0125033112582781	0.261933774834437	3.5917880794702	2.29192052980133	1.62251655629139				0.591788079470199	-0.238834437086093	-0.724238410596026	0.860397350993377	7.43761589403974	0.925298013245032			
4	100	-0.264158940397351	0.0987549668874172	-0.935523178807947	1.43337748344371	-0.704635761589404	-2.02490066225166				0.976953642384106	0.0317880794701987	0.285139072847682	-0.686092715231788	2.26781456953642	1.37403973509934				-0.282172185430464	-0.193271523178808	-0.88794701986755	1.68741721854305	-0.693509933774834	-0.20026490066225				0.736529801324503	-0.288529801324503	-0.613721854304636	5.28291390728477	8.8635761589404	-0.0556291390728476				0.964026490066225	-0.0125033112582781	0.261933774834437	1.9117880794702	0.611920529801325	1.06251655629139				0.591788079470199	-0.222834437086093	-0.724238410596026	-1.65960264900662	6.03761589403974	1.20529801324503			
5	120	-0.264158940397351	0.0987549668874172	-0.935523178807947	0.313377483443709	-0.704635761589404	-1.74490066225166				0.976953642384106	0.0317880794701987	0.301139072847682	2.11390728476821	-0.252185430463576	2.77403973509934				-0.266172185430464	-0.177271523178808	-0.85594701986755	1.12741721854305	0.706490066225167	0.0797350993377501				0.736529801324503	-0.288529801324503	-0.613721854304636	3.88291390728477	8.5835761589404	-0.0556291390728476				0.964026490066225	-0.0125033112582781	0.245933774834437	-0.0482119205298018	-1.34807947019868	-0.337483443708608				0.591788079470199	-0.206834437086093	-0.740238410596026	-3.33960264900662	7.43761589403974	1.20529801324503			
6	140	-0.248158940397351	0.0987549668874172	-0.951523178807947	0.0333774834437086	-0.704635761589404	-1.18490066225166				0.976953642384106	0.0157880794701987	0.301139072847682	2.11390728476821	-0.252185430463576	0.81403973509934				-0.266172185430464	-0.193271523178808	-0.85594701986755	0.287417218543046	0.706490066225167	0.35973509933775				0.720529801324503	-0.272529801324503	-0.613721854304636	3.04291390728477	8.5835761589404	-0.335629139072848				0.964026490066225	-0.0125033112582781	0.245933774834437	-0.0482119205298018	-1.90807947019868	-0.0574834437086077				0.575788079470199	-0.206834437086093	-0.740238410596026	-4.17960264900662	8.83761589403974	-0.194701986754968			
7	160	-0.264158940397351	0.0987549668874172	-0.935523178807947	0.0333774834437086	-0.144635761589404	-0.904900662251656				0.944953642384106	0.0317880794701987	0.317139072847682	0.713907284768212	1.70781456953642	-0.86596026490066				-0.250172185430464	-0.209271523178808	-0.85594701986755	1.12741721854305	0.146490066225167	-0.20026490066225				0.720529801324503	-0.272529801324503	-0.597721854304636	2.48291390728477	8.5835761589404	-0.615629139072848				0.964026490066225	-0.0125033112582781	0.229933774834437	-0.328211920529802	-1.06807947019868	0.222516556291392				0.591788079470199	-0.190834437086093	-0.740238410596026	-3.61960264900662	11.0776158940397	-0.474701986754968			
8	180	-0.264158940397351	0.0987549668874172	-0.935523178807947	-0.246622516556291	1.2553642384106	-0.624900662251656				0.944953642384106	0.0317880794701987	0.301139072847682	-0.406092715231788	3.10781456953642	-1.70596026490066				-0.266172185430464	-0.209271523178808	-0.87194701986755	0.00741721854304636	-1.81350993377483	-0.76026490066225				0.720529801324503	-0.272529801324503	-0.597721854304636	2.48291390728477	8.3035761589404	0.224370860927152				0.948026490066225	-0.0125033112582781	0.229933774834437	-0.888211920529802	-0.228079470198675	-0.337483443708608				0.575788079470199	-0.190834437086093	-0.740238410596026	-3.61960264900662	11.3576158940397	-1.87470198675497			
9	200	-0.264158940397351	0.0987549668874172	-0.935523178807947	-0.246622516556291	0.135364238410596	-0.624900662251656				0.976953642384106	0.0157880794701987	0.301139072847682	-1.52609271523179	-0.532185430463576	-2.26596026490066				-0.266172185430464	-0.193271523178808	-0.85594701986755	-0.552582781456954	0.706490066225167	-0.76026490066225				0.720529801324503	-0.272529801324503	-0.597721854304636	3.60291390728477	7.7435761589404	1.06437086092715				0.948026490066225	-0.0125033112582781	0.229933774834437	-2.5682119205298	-1.90807947019868	-1.17748344370861				0.575788079470199	-0.190834437086093	-0.740238410596026	-2.77960264900662	8.83761589403974	-3.55470198675497			
10	220	-0.264158940397351	0.114754966887417	-0.935523178807947	-1.64662251655629	0.415364238410596	-0.624900662251656				0.960953642384106	0.0317880794701987	0.269139072847682	-0.406092715231788	-3.05218543046358	-2.26596026490066				-0.266172185430464	-0.177271523178808	-0.85594701986755	-1.39258278145695	0.706490066225167	-0.20026490066225				0.720529801324503	-0.272529801324503	-0.597721854304636	1.92291390728477	6.0635761589404	1.06437086092715				0.948026490066225	-0.0125033112582781	0.213933774834437	-2.2882119205298	-3.86807947019868	-1.17748344370861				0.575788079470199	-0.174834437086093	-0.756238410596026	-5.85960264900662	7.99761589403974	-4.67470198675497			
11	240	-0.264158940397351	0.114754966887417	-0.935523178807947	-1.92662251655629	0.975364238410596	-0.0649006622516557				0.944953642384106	0.0317880794701987	0.285139072847682	1.55390728476821	0.0278145695364242	-2.26596026490066				-0.266172185430464	-0.193271523178808	-0.87194701986755	-0.552582781456954	1.26649006622517	0.63973509933775				0.720529801324503	-0.272529801324503	-0.597721854304636	1.36291390728477	4.6635761589404	1.06437086092715				0.948026490066225	0.0194966887417219	0.229933774834437	-3.6882119205298	-0.228079470198675	-2.01748344370861				0.575788079470199	-0.158834437086093	-0.772238410596026	-5.57960264900662	6.31761589403974	-5.51470198675497			
12	260	-0.248158940397351	0.114754966887417	-0.919523178807947	-1.36662251655629	1.8153642384106	-0.0649006622516557				0.944953642384106	0.0477880794701987	0.301139072847682	3.51390728476821	1.70781456953642	-1.98596026490066				-0.266172185430464	-0.193271523178808	-0.87194701986755	-1.39258278145695	-4.05350993377483	0.91973509933775				0.720529801324503	-0.256529801324503	-0.581721854304636	0.802913907284768	4.1035761589404	2.46437086092715				0.932026490066225	0.00349668874172187	0.213933774834437	-0.888211920529802	-2.74807947019868	-0.617483443708608				0.559788079470199	-0.158834437086093	-0.772238410596026	-3.89960264900662	6.31761589403974	-5.51470198675497			
13	280	-0.248158940397351	0.114754966887417	-0.919523178807947	-1.64662251655629	0.695364238410596	-0.344900662251656				0.960953642384106	0.0477880794701987	0.301139072847682	5.47390728476821	-0.252185430463576	-0.86596026490066				-0.266172185430464	-0.193271523178808	-0.87194701986755	-2.23258278145695	-2.37350993377483	1.19973509933775				0.720529801324503	-0.256529801324503	-0.597721854304636	1.08291390728477	2.1435761589404	2.18437086092715				0.932026490066225	0.00349668874172187	0.213933774834437	-4.2482119205298	-1.06807947019868	-1.73748344370861				0.575788079470199	-0.158834437086093	-0.772238410596026	-1.93960264900662	2.95761589403974	-6.63470198675497			
14	300	-0.248158940397351	0.114754966887417	-0.919523178807947	-2.48662251655629	0.415364238410596	-0.904900662251656				0.960953642384106	0.0477880794701987	0.269139072847682	5.47390728476821	-3.61218543046358	-0.30596026490066				-0.266172185430464	-0.193271523178808	-0.85594701986755	-1.39258278145695	0.146490066225167	1.19973509933775				0.720529801324503	-0.256529801324503	-0.597721854304636	2.20291390728477	1.8635761589404	2.46437086092715				0.948026490066225	0.00349668874172187	0.197933774834437	-4.2482119205298	0.611920529801325	-1.73748344370861				0.559788079470199	-0.158834437086093	-0.772238410596026	-0.819602649006623	-0.122384105960265	-6.63470198675497			
15	320	-0.248158940397351	0.130754966887417	-0.951523178807947	-3.60662251655629	0.695364238410596	-1.18490066225166				0.976953642384106	0.0477880794701987	0.285139072847682	4.63390728476821	-3.33218543046358	-0.86596026490066				-0.266172185430464	-0.177271523178808	-0.87194701986755	-1.11258278145695	1.26649006622517	1.47973509933775				0.736529801324503	-0.256529801324503	-0.613721854304636	1.36291390728477	1.0235761589404	0.784370860927152				0.964026490066225	0.0194966887417219	0.229933774834437	0.511788079470198	0.891920529801325	-1.45748344370861				0.575788079470199	-0.174834437086093	-0.772238410596026	0.580397350993377	-1.80238410596026	-6.35470198675497			
16	340	-0.264158940397351	0.114754966887417	-0.951523178807947	-3.04662251655629	0.975364238410596	-0.904900662251656				0.960953642384106	0.0477880794701987	0.285139072847682	2.95390728476821	-1.37218543046358	-1.98596026490066				-0.282172185430464	-0.161271523178808	-0.85594701986755	-1.95258278145695	1.82649006622517	0.0797350993377501				0.736529801324503	-0.256529801324503	-0.565721854304636	-1.43708609271523	-1.4964238410596	-0.615629139072848				0.964026490066225	0.0194966887417219	0.197933774834437	1.9117880794702	0.331920529801325	-0.337483443708608				0.591788079470199	-0.158834437086093	-0.772238410596026	0.580397350993377	-2.36238410596027	-6.07470198675497			
17	360	-0.264158940397351	0.130754966887417	-0.935523178807947	-2.76662251655629	1.5353642384106	-0.624900662251656				0.960953642384106	0.0637880794701987	0.317139072847682	3.79390728476821	1.42781456953642	-0.86596026490066				-0.266172185430464	-0.177271523178808	-0.87194701986755	0.00741721854304636	3.50649006622517	-0.20026490066225				0.752529801324503	-0.240529801324503	-0.597721854304636	-0.317086092715232	-3.4564238410596	-1.17562913907285				0.964026490066225	0.0194966887417219	0.213933774834437	1.0717880794702	0.0519205298013249	-1.45748344370861				0.591788079470199	-0.158834437086093	-0.756238410596026	-1.09960264900662	-2.92238410596027	-4.67470198675497			
18	380	-0.248158940397351	0.130754966887417	-0.935523178807947	-2.76662251655629	0.975364238410596	-0.904900662251656				0.960953642384106	0.0637880794701987	0.301139072847682	4.35390728476821	0.0278145695364242	-0.585960264900661				-0.266172185430464	-0.177271523178808	-0.87194701986755	0.567417218543046	1.54649006622517	-0.48026490066225				0.736529801324503	-0.256529801324503	-0.613721854304636	2.20291390728477	-4.8564238410596	-2.57562913907285				0.948026490066225	0.0194966887417219	0.213933774834437	1.6317880794702	-0.788079470198675	-2.01748344370861				0.575788079470199	-0.158834437086093	-0.756238410596026	0.860397350993377	-2.92238410596027	-3.83470198675497			
19	400	-0.248158940397351	0.130754966887417	-0.935523178807947	-1.64662251655629	0.695364238410596	-0.624900662251656				0.944953642384106	0.0637880794701987	0.301139072847682	2.95390728476821	2.82781456953642	-0.585960264900661				-0.250172185430464	-0.177271523178808	-0.85594701986755	-0.272582781456954	0.986490066225167	-1.32026490066225				0.736529801324503	-0.256529801324503	-0.613721854304636	-0.317086092715232	-6.5364238410596	-5.09562913907285				0.948026490066225	0.0194966887417219	0.213933774834437	3.0317880794702	-1.06807947019868	-1.45748344370861				0.559788079470199	-0.158834437086093	-0.740238410596026	0.0203973509933773	-3.76238410596027	-2.99470198675497			
20	420	-0.248158940397351	0.130754966887417	-0.935523178807947	-1.08662251655629	1.2553642384106	-0.344900662251656				0.944953642384106	0.0637880794701987	0.301139072847682	1.83390728476821	5.06781456953642	-0.0259602649006601				-0.266172185430464	-0.161271523178808	-0.87194701986755	-1.39258278145695	-1.81350993377483	-1.32026490066225				0.736529801324503	-0.256529801324503	-0.613721854304636	-3.39708609271523	-7.9364238410596	-5.65562913907285				0.948026490066225	0.0194966887417219	0.213933774834437	4.1517880794702	0.331920529801325	-2.01748344370861				0.575788079470199	-0.158834437086093	-0.740238410596026	0.860397350993377	-5.16238410596027	-1.87470198675497			
21	440	-0.232158940397351	0.114754966887417	-0.935523178807947	-1.36662251655629	1.8153642384106	-0.624900662251656				0.944953642384106	0.0477880794701987	0.317139072847682	0.993907284768212	7.02781456953642	-0.0259602649006601				-0.250172185430464	-0.193271523178808	-0.85594701986755	2.24741721854305	0.146490066225167	-1.88026490066225				0.736529801324503	-0.240529801324503	-0.597721854304636	-4.51708609271523	-11.2964238410596	-7.33562913907285				0.948026490066225	0.0194966887417219	0.213933774834437	3.0317880794702	-0.228079470198675	-2.01748344370861				0.591788079470199	-0.174834437086093	-0.708238410596026	0.300397350993377	-4.04238410596027	-0.194701986754968			
22	460	-0.232158940397351	0.130754966887417	-0.919523178807947	-1.64662251655629	-0.144635761589404	-0.0649006622516557				0.928953642384106	0.0477880794701987	0.301139072847682	-2.92609271523179	9.54781456953642	-0.86596026490066				-0.250172185430464	-0.193271523178808	-0.85594701986755	1.96741721854305	0.426490066225167	-2.72026490066225				0.720529801324503	-0.240529801324503	-0.613721854304636	-3.95708609271523	-14.0964238410596	-7.89562913907285				0.932026490066225	0.0194966887417219	0.213933774834437	2.7517880794702	-0.508079470198675	-2.01748344370861				0.575788079470199	-0.158834437086093	-0.740238410596026	-3.33960264900662	0.997615894039735	0.925298013245032			
23	480	-0.216158940397351	0.114754966887417	-0.935523178807947	-1.08662251655629	-0.704635761589404	-0.344900662251656				0.928953642384106	0.0317880794701987	0.317139072847682	-5.72609271523179	9.26781456953642	-0.86596026490066				-0.234172185430464	-0.209271523178808	-0.87194701986755	0.287417218543046	0.706490066225167	-2.72026490066225				0.720529801324503	-0.224529801324503	-0.629721854304636	-0.877086092715232	-20.8164238410596	-10.4156291390728				0.916026490066225	0.0194966887417219	0.245933774834437	3.0317880794702	0.331920529801325	-2.85748344370861				0.575788079470199	-0.158834437086093	-0.708238410596026	-6.97960264900662	0.997615894039735	4.84529801324503			
24	500	-0.232158940397351	0.114754966887417	-0.935523178807947	-1.64662251655629	-0.984635761589404	-0.624900662251656				0.912953642384106	0.0317880794701987	0.317139072847682	-6.00609271523179	8.70781456953642	-1.70596026490066				-0.234172185430464	-0.193271523178808	-0.83994701986755	0.287417218543046	-3.21350993377483	-3.28026490066225				0.736529801324503	-0.224529801324503	-0.645721854304636	-10.1170860927152	-26.9764238410596	-13.2156291390728				0.916026490066225	0.00349668874172187	0.197933774834437	0.791788079470198	-2.46807947019868	-2.57748344370861				0.575788079470199	-0.190834437086093	-0.724238410596026	-0.259602649006623	-0.682384105960265	4.84529801324503			
25	520	-0.264158940397351	0.114754966887417	-0.935523178807947	-1.92662251655629	-2.1046357615894	0.215099337748344				0.928953642384106	0.0477880794701987	0.317139072847682	-5.16609271523179	12.0678145695364	-0.585960264900661				-0.266172185430464	-0.177271523178808	-0.83994701986755	-0.832582781456954	-3.21350993377483	-1.04026490066225				0.736529801324503	-0.240529801324503	-0.645721854304636	-20.1970860927152	-34.8164238410596	-14.8956291390728				0.900026490066225	0.0194966887417219	0.229933774834437	0.791788079470198	1.73192052980133	-2.57748344370861				0.559788079470199	-0.190834437086093	-0.708238410596026	-5.29960264900662	2.11761589403974	7.64529801324503			
26	540	-0.280158940397351	0.114754966887417	-0.935523178807947	-2.48662251655629	-0.704635761589404	0.775099337748344				0.976953642384106	0.0477880794701987	0.301139072847682	-2.92609271523179	14.0278145695364	-1.14596026490066				-0.298172185430464	-0.193271523178808	-0.85594701986755	-1.11258278145695	-1.53350993377483	-1.04026490066225				0.688529801324503	-0.240529801324503	-0.645721854304636	-25.7970860927152	-38.7364238410596	-16.0156291390729				0.916026490066225	0.0194966887417219	0.229933774834437	1.0717880794702	2.85192052980133	-3.13748344370861				0.559788079470199	-0.174834437086093	-0.708238410596026	1.70039735099338	-2.36238410596027	9.60529801324503			
27	560	-0.280158940397351	0.114754966887417	-0.935523178807947	-1.92662251655629	0.135364238410596	0.495099337748344				0.992953642384106	0.0637880794701987	0.317139072847682	-1.80609271523179	13.7478145695364	1.09403973509934				-0.282172185430464	-0.193271523178808	-0.87194701986755	-1.67258278145695	-1.81350993377483	0.0797350993377501				0.672529801324503	-0.224529801324503	-0.629721854304636	-27.7570860927152	-34.8164238410596	-16.0156291390729				0.948026490066225	0.0194966887417219	0.245933774834437	3.0317880794702	4.25192052980133	-2.57748344370861				0.575788079470199	-0.158834437086093	-0.740238410596026	-1.65960264900662	-2.64238410596027	11.005298013245			
28	580	-0.280158940397351	0.130754966887417	-0.935523178807947	-2.20662251655629	0.415364238410596	0.215099337748344				0.976953642384106	0.0477880794701987	0.349139072847682	-2.64609271523179	10.1078145695364	0.53403973509934				-0.298172185430464	-0.177271523178808	-0.88794701986755	-0.552582781456954	-0.693509933774834	0.35973509933775				0.656529801324503	-0.224529801324503	-0.629721854304636	-24.6770860927152	-28.0964238410596	-13.7756291390728				0.964026490066225	0.0194966887417219	0.245933774834437	1.3517880794702	6.21192052980133	-1.73748344370861				0.623788079470199	-0.158834437086093	-0.772238410596026	3.66039735099338	-2.08238410596027	10.725298013245			
29	600	-0.264158940397351	0.130754966887417	-0.935523178807947	-1.92662251655629	0.135364238410596	-0.904900662251656				0.960953642384106	0.0477880794701987	0.381139072847682	-1.80609271523179	6.46781456953642	-0.30596026490066				-0.250172185430464	-0.193271523178808	-0.87194701986755	-1.39258278145695	1.26649006622517	1.47973509933775				0.672529801324503	-0.224529801324503	-0.645721854304636	-19.9170860927152	-22.4964238410596	-10.1356291390728				0.980026490066225	0.0194966887417219	0.229933774834437	0.511788079470198	7.05192052980133	-2.57748344370861				0.607788079470199	-0.174834437086093	-0.772238410596026	0.580397350993377	1.83761589403974	5.96529801324503			
30	620	-0.248158940397351	0.146754966887417	-0.951523178807947	-2.48662251655629	0.135364238410596	0.495099337748344				0.944953642384106	0.0477880794701987	0.333139072847682	-2.36609271523179	3.94781456953642	-0.585960264900661				-0.266172185430464	-0.177271523178808	-0.85594701986755	-1.11258278145695	1.54649006622517	0.63973509933775				0.688529801324503	-0.192529801324503	-0.661721854304636	-18.2370860927152	-18.0164238410596	-7.61562913907285				0.964026490066225	0.00349668874172187	0.229933774834437	0.511788079470198	5.09192052980133	-1.73748344370861				0.623788079470199	-0.190834437086093	-0.740238410596026	5.06039735099338	2.39761589403974	4.56529801324503			
31	640	-0.248158940397351	0.130754966887417	-0.935523178807947	-1.08662251655629	1.2553642384106	0.215099337748344				0.944953642384106	0.0477880794701987	0.333139072847682	-4.04609271523179	9.26781456953642	-1.98596026490066				-0.266172185430464	-0.177271523178808	-0.83994701986755	-2.23258278145695	1.26649006622517	0.35973509933775				0.704529801324503	-0.160529801324503	-0.645721854304636	-17.1170860927152	-16.8964238410596	-5.37562913907285				0.964026490066225	0.0194966887417219	0.245933774834437	-0.328211920529802	3.69192052980133	-1.17748344370861				0.607788079470199	-0.206834437086093	-0.740238410596026	2.54039735099338	2.11761589403974	5.68529801324503			
32	660	-0.248158940397351	0.130754966887417	-0.935523178807947	-0.246622516556291	1.8153642384106	0.495099337748344				0.960953642384106	0.0477880794701987	0.349139072847682	-4.88609271523179	9.82781456953643	-3.10596026490066				-0.266172185430464	-0.177271523178808	-0.88794701986755	-2.51258278145695	2.94649006622517	0.0797350993377501				0.672529801324503	-0.160529801324503	-0.661721854304636	-13.4770860927152	-14.6564238410596	-3.97562913907285				0.964026490066225	0.0194966887417219	0.261933774834437	-1.7282119205298	2.29192052980133	-0.897483443708608				0.607788079470199	-0.206834437086093	-0.724238410596026	-2.49960264900662	1.27761589403974	10.165298013245			
33	680	-0.248158940397351	0.130754966887417	-0.919523178807947	-1.92662251655629	1.2553642384106	-1.18490066225166				0.944953642384106	0.0477880794701987	0.349139072847682	-4.88609271523179	4.78781456953642	-1.98596026490066				-0.250172185430464	-0.177271523178808	-0.87194701986755	-1.67258278145695	0.146490066225167	-1.04026490066225				0.672529801324503	-0.176529801324503	-0.677721854304636	-8.71708609271523	-11.2964238410596	-2.85562913907285				0.948026490066225	0.0194966887417219	0.277933774834437	-2.0082119205298	0.891920529801325	-0.897483443708608				0.623788079470199	-0.206834437086093	-0.724238410596026	-4.17960264900662	-0.122384105960265	12.125298013245			
34	700	-0.232158940397351	0.130754966887417	-0.919523178807947	-2.20662251655629	0.975364238410596	-0.624900662251656				0.928953642384106	0.0477880794701987	0.365139072847682	-5.72609271523179	1.14781456953642	-3.10596026490066				-0.250172185430464	-0.177271523178808	-0.87194701986755	-1.67258278145695	-1.81350993377483	-1.60026490066225				0.672529801324503	-0.160529801324503	-0.677721854304636	-8.15708609271523	-10.7364238410596	-0.615629139072848				0.932026490066225	0.0194966887417219	0.245933774834437	-3.6882119205298	-0.228079470198675	-1.17748344370861				0.607788079470199	-0.206834437086093	-0.708238410596026	-3.05960264900662	-0.682384105960265	11.285298013245			
35	720	-0.232158940397351	0.130754966887417	-0.935523178807947	-1.36662251655629	0.695364238410596	-0.624900662251656				0.928953642384106	0.0477880794701987	0.365139072847682	-4.60609271523179	1.98781456953642	-2.54596026490066				-0.266172185430464	-0.161271523178808	-0.85594701986755	-3.07258278145695	0.146490066225167	-1.32026490066225				0.656529801324503	-0.160529801324503	-0.661721854304636	-10.1170860927152	-10.1764238410596	-0.335629139072848				0.916026490066225	0.0354966887417219	0.261933774834437	-2.8482119205298	0.891920529801325	-2.29748344370861				0.591788079470199	-0.206834437086093	-0.708238410596026	-1.37960264900662	-2.36238410596027	12.965298013245			
36	740	-0.232158940397351	0.130754966887417	-0.935523178807947	-0.526622516556291	-0.144635761589404	-0.624900662251656				0.928953642384106	0.0637880794701987	0.349139072847682	-3.20609271523179	2.82781456953642	-2.26596026490066				-0.266172185430464	-0.177271523178808	-0.87194701986755	-2.51258278145695	1.26649006622517	0.0797350993377501				0.624529801324503	-0.176529801324503	-0.677721854304636	-5.63708609271523	-9.0564238410596	-1.45562913907285				0.916026490066225	0.0354966887417219	0.261933774834437	-2.2882119205298	2.01192052980133	-1.45748344370861				0.575788079470199	-0.206834437086093	-0.740238410596026	-3.33960264900662	1.83761589403974	17.165298013245			
37	760	-0.248158940397351	0.130754966887417	-0.935523178807947	-0.246622516556291	-0.144635761589404	0.215099337748344				0.928953642384106	0.0477880794701987	0.349139072847682	-2.08609271523179	1.42781456953642	-2.82596026490066				-0.250172185430464	-0.177271523178808	-0.85594701986755	2.24741721854305	-1.25350993377483	-0.76026490066225				0.624529801324503	-0.208529801324503	-0.661721854304636	29.6429139072848	-15.7764238410596	-8.73562913907285				0.932026490066225	0.0194966887417219	0.245933774834437	-3.9682119205298	6.49192052980132	-2.01748344370861				0.543788079470199	-0.206834437086093	-0.772238410596026	-11.1796026490066	8.83761589403974	21.365298013245			
38	780	-0.232158940397351	0.130754966887417	-0.919523178807947	-0.246622516556291	-0.704635761589404	0.775099337748344				0.912953642384106	0.0477880794701987	0.333139072847682	-0.966092715231788	-3.05218543046358	-2.26596026490066				-0.234172185430464	-0.161271523178808	-0.83994701986755	-1.67258278145695	-3.49350993377483	-0.48026490066225				0.640529801324503	-0.144529801324503	-0.757721854304636	4.44291390728477	-19.1364238410596	-8.73562913907285				0.916026490066225	0.0194966887417219	0.245933774834437	-2.5682119205298	9.29192052980133	-2.29748344370861				0.559788079470199	-0.206834437086093	-0.740238410596026	-14.2596026490066	13.3176158940397	22.205298013245			
39	800	-0.232158940397351	0.130754966887417	-0.935523178807947	-1.36662251655629	-2.1046357615894	1.33509933774834				0.928953642384106	0.0317880794701987	0.349139072847682	0.993907284768212	-3.05218543046358	-1.70596026490066				-0.250172185430464	-0.193271523178808	-0.83994701986755	0.287417218543046	-3.49350993377483	-0.76026490066225				0.688529801324503	-0.0645298013245033	-0.725721854304636	-15.1570860927152	-19.6964238410596	-7.33562913907285				0.948026490066225	0.0194966887417219	0.261933774834437	-2.5682119205298	3.97192052980133	-1.17748344370861				0.543788079470199	-0.222834437086093	-0.740238410596026	-1.65960264900662	0.717615894039735	23.045298013245			
40	820	-0.264158940397351	0.114754966887417	-0.935523178807947	-1.92662251655629	-2.1046357615894	0.775099337748344				0.944953642384106	0.0477880794701987	0.333139072847682	1.27390728476821	-0.252185430463576	-2.54596026490066				-0.282172185430464	-0.193271523178808	-0.87194701986755	-2.23258278145695	-2.09350993377483	-0.20026490066225				0.688529801324503	-0.112529801324503	-0.709721854304636	-9.55708609271523	-24.4564238410596	-12.0956291390728				0.948026490066225	0.0194966887417219	0.229933774834437	0.791788079470198	4.53192052980133	-0.617483443708608				0.559788079470199	-0.222834437086093	-0.756238410596026	-7.25960264900662	-0.402384105960265	28.365298013245			
41	840	-0.264158940397351	0.114754966887417	-0.935523178807947	-1.92662251655629	-1.5446357615894	0.215099337748344				0.928953642384106	0.0637880794701987	0.349139072847682	0.993907284768212	5.34781456953642	-1.42596026490066				-0.282172185430464	-0.193271523178808	-0.87194701986755	-2.23258278145695	-2.37350993377483	-0.20026490066225				0.656529801324503	-0.192529801324503	-0.709721854304636	-10.3970860927152	-23.8964238410596	-14.3356291390729				0.948026490066225	0.0354966887417219	0.197933774834437	1.3517880794702	0.331920529801325	0.782516556291392				0.559788079470199	-0.206834437086093	-0.756238410596026	-16.4996026490066	1.27761589403974	34.245298013245			
42	860	-0.280158940397351	0.130754966887417	-0.935523178807947	-1.64662251655629	-0.144635761589404	-0.624900662251656				0.960953642384106	0.0637880794701987	0.365139072847682	-0.406092715231788	7.30781456953642	0.53403973509934				-0.298172185430464	-0.193271523178808	-0.85594701986755	0.00741721854304636	-1.81350993377483	-0.20026490066225				0.624529801324503	-0.176529801324503	-0.709721854304636	-16.8370860927152	-20.5364238410596	-12.9356291390728				0.948026490066225	0.0354966887417219	0.245933774834437	-3.1282119205298	5.37192052980133	-1.17748344370861				0.559788079470199	-0.142834437086093	-0.756238410596026	-13.6996026490066	0.437615894039735	31.725298013245			
43	880	-0.264158940397351	0.146754966887417	-0.919523178807947	-1.36662251655629	1.5353642384106	-1.18490066225166				0.976953642384106	0.0637880794701987	0.333139072847682	-0.406092715231788	7.58781456953643	1.93403973509934				-0.298172185430464	-0.177271523178808	-0.85594701986755	-1.39258278145695	0.426490066225167	0.0797350993377501				0.592529801324503	-0.144529801324503	-0.677721854304636	-19.0770860927152	-15.2164238410596	-10.1356291390728				0.932026490066225	0.0194966887417219	0.245933774834437	-0.608211920529802	8.17192052980133	-0.337483443708608				0.559788079470199	-0.126834437086093	-0.740238410596026	-4.45960264900662	1.27761589403974	23.325298013245			
44	900	-0.280158940397351	0.146754966887417	-0.919523178807947	-1.64662251655629	1.5353642384106	-1.46490066225166				0.992953642384106	0.0957880794701987	0.381139072847682	0.993907284768212	3.10781456953642	-0.30596026490066				-0.282172185430464	-0.177271523178808	-0.87194701986755	-5.03258278145695	0.146490066225167	1.47973509933775				0.560529801324503	-0.128529801324503	-0.677721854304636	-16.5570860927152	-6.8164238410596	-5.93562913907285				0.964026490066225	0.0354966887417219	0.277933774834437	0.791788079470198	9.29192052980133	-0.617483443708608				0.591788079470199	-0.126834437086093	-0.724238410596026	2.82039735099338	3.79761589403974	15.485298013245			
45	920	-0.264158940397351	0.162754966887417	-0.935523178807947	-1.92662251655629	1.8153642384106	-1.46490066225166				0	0	0	0	0	0				0	0	0	0	0	0				0.592529801324503	-0.112529801324503	-0.661721854304636	-3.39708609271523	11.6635761589404	-1.17562913907285				0.980026490066225	0.0514966887417219	0.277933774834437	2.7517880794702	5.93192052980133	-0.337483443708608				0.607788079470199	-0.174834437086093	-0.708238410596026	5.06039735099338	7.43761589403974	7.92529801324503			
46	940	0	0	0	0	0	0				0	0	0	0	0	0				0	0	0	0	0	0				0.624529801324503	-0.0965298013245033	-0.661721854304636	7.52291390728477	23.7035761589404	4.98437086092715				0.964026490066225	0.0354966887417219	0.261933774834437	2.1917880794702	2.29192052980133	-0.897483443708608				0.623788079470199	-0.206834437086093	-0.692238410596026	-0.539602649006623	8.83761589403974	1.76529801324503			
47	960	0	0	0	0	0	0				0.912953642384106	0.0797880794701987	0.349139072847682	2.11390728476821	-1.93218543046358	0.53403973509934				-0.266172185430464	-0.161271523178808	-0.90394701986755	-1.11258278145695	3.78649006622517	2.03973509933775				0.624529801324503	-0.112529801324503	-0.693721854304636	12.8429139072848	28.1835761589404	7.22437086092715				0.932026490066225	0.0194966887417219	0.293933774834437	-0.328211920529802	0.331920529801325	-1.45748344370861				0.591788079470199	-0.206834437086093	-0.708238410596026	-2.49960264900662	10.2376158940397	-2.15470198675497			
48	980	-0.216158940397351	0.130754966887417	-0.919523178807947	-1.36662251655629	1.5353642384106	-0.624900662251656				0.896953642384106	0.0637880794701987	0.381139072847682	0.713907284768212	1.42781456953642	1.09403973509934				-0.234172185430464	-0.161271523178808	-0.87194701986755	1.40741721854305	-0.413509933774833	-0.20026490066225				0.656529801324503	-0.128529801324503	-0.725721854304636	13.1229139072848	25.1035761589404	11.4243708609272				0.916026490066225	0.0354966887417219	0.277933774834437	0.231788079470198	-1.90807947019868	-0.897483443708608				0.607788079470199	-0.222834437086093	-0.708238410596026	-2.49960264900662	12.1976158940397	-3.83470198675497			
49	1000	-0.216158940397351	0.130754966887417	-0.935523178807947	-2.20662251655629	0.695364238410596	-1.18490066225166				0.928953642384106	0.0477880794701987	0.365139072847682	-2.64609271523179	-0.812185430463576	-0.30596026490066				-0.234172185430464	-0.145271523178808	-0.85594701986755	0.287417218543046	-0.133509933774833	-0.20026490066225				0.688529801324503	-0.144529801324503	-0.741721854304636	6.96291390728477	18.9435761589404	11.1443708609272				0.900026490066225	0.0514966887417219	0.261933774834437	-0.0482119205298018	-2.46807947019868	-0.617483443708608				0.607788079470199	-0.222834437086093	-0.708238410596026	-5.29960264900662	9.67761589403974	-2.71470198675497			
50	1020	-0.248158940397351	0.130754966887417	-0.935523178807947	-1.36662251655629	-0.144635761589404	0.495099337748344				0.928953642384106	0.0317880794701987	0.365139072847682	-2.36609271523179	-2.49218543046358	-1.14596026490066				-0.266172185430464	-0.177271523178808	-0.85594701986755	2.52741721854305	0.146490066225167	-0.48026490066225				0.704529801324503	-0.160529801324503	-0.741721854304636	-1.15708609271523	11.3835761589404	8.34437086092715				0.900026490066225	0.0354966887417219	0.261933774834437	-0.0482119205298018	0.891920529801325	-0.897483443708608				0.607788079470199	-0.222834437086093	-0.708238410596026	-4.45960264900662	5.19761589403974	2.04529801324503			
51	1040	-0.232158940397351	0.130754966887417	-0.935523178807947	-1.08662251655629	-0.144635761589404	-0.0649006622516557				0.928953642384106	0.0477880794701987	0.365139072847682	-2.36609271523179	-4.45218543046358	-0.0259602649006601				-0.266172185430464	-0.193271523178808	-0.85594701986755	2.52741721854305	-2.09350993377483	-1.32026490066225				0.688529801324503	-0.128529801324503	-0.725721854304636	-7.59708609271523	6.3435761589404	5.82437086092715				0.932026490066225	0.0194966887417219	0.277933774834437	-1.4482119205298	1.73192052980133	-1.45748344370861				0.607788079470199	-0.238834437086093	-0.708238410596026	-2.77960264900662	3.51761589403974	6.52529801324503			
52	1060	-0.264158940397351	0.114754966887417	-0.935523178807947	-1.36662251655629	-0.424635761589404	-0.0649006622516557				0.944953642384106	0.0637880794701987	0.349139072847682	-2.36609271523179	-4.73218543046358	-0.0259602649006601				-0.266172185430464	-0.177271523178808	-0.85594701986755	-0.552582781456954	-2.37350993377483	-1.60026490066225				0.688529801324503	-0.128529801324503	-0.709721854304636	-7.87708609271523	0.7435761589404	6.66437086092715				0.948026490066225	0.0354966887417219	0.277933774834437	-1.7282119205298	0.611920529801325	-2.01748344370861				0.607788079470199	-0.238834437086093	-0.724238410596026	-3.33960264900662	1.55761589403974	8.48529801324503			
53	1080	-0.248158940397351	0.130754966887417	-0.951523178807947	-1.92662251655629	-0.984635761589404	-0.624900662251656				0.944953642384106	0.0637880794701987	0.349139072847682	-2.64609271523179	-5.01218543046358	-0.585960264900661				-0.266172185430464	-0.177271523178808	-0.85594701986755	0.287417218543046	-0.413509933774833	-0.76026490066225				0.688529801324503	-0.160529801324503	-0.709721854304636	-8.71708609271523	-6.2564238410596	8.62437086092715				0.964026490066225	0.0194966887417219	0.261933774834437	-2.2882119205298	0.0519205298013249	-1.73748344370861				0.623788079470199	-0.238834437086093	-0.740238410596026	-3.33960264900662	-0.122384105960265	9.88529801324503			
54	1100	-0.248158940397351	0.130754966887417	-0.935523178807947	-1.64662251655629	-0.704635761589404	-0.344900662251656				0.928953642384106	0.0477880794701987	0.349139072847682	-4.32609271523179	-5.01218543046358	-1.14596026490066				-0.250172185430464	-0.193271523178808	-0.87194701986755	3.64741721854305	1.26649006622517	-0.20026490066225				0.688529801324503	-0.144529801324503	-0.709721854304636	-8.99708609271523	-8.4964238410596	8.90437086092715				0.964026490066225	0.0194966887417219	0.293933774834437	-2.2882119205298	-0.788079470198675	-0.337483443708608				0.623788079470199	-0.238834437086093	-0.740238410596026	-2.77960264900662	-2.08238410596027	10.725298013245			
55	1120	-0.248158940397351	0.130754966887417	-0.935523178807947	-1.64662251655629	-0.704635761589404	0.215099337748344				0.960953642384106	0.0477880794701987	0.333139072847682	-4.60609271523179	-7.25218543046358	-1.14596026490066				-0.266172185430464	-0.177271523178808	-0.85594701986755	1.40741721854305	-1.81350993377483	-0.20026490066225				0.688529801324503	-0.144529801324503	-0.725721854304636	-8.15708609271523	-8.4964238410596	8.90437086092715				0.964026490066225	0.0354966887417219	0.277933774834437	-2.2882119205298	-1.34807947019868	-0.897483443708608				0.607788079470199	-0.238834437086093	-0.740238410596026	-2.49960264900662	-2.92238410596027	11.285298013245			
56	1140	-0.264158940397351	0.130754966887417	-0.951523178807947	-1.36662251655629	-0.424635761589404	0.495099337748344				0.992953642384106	0.0637880794701987	0.365139072847682	-2.64609271523179	-15.3721854304636	-1.98596026490066				-0.282172185430464	-0.177271523178808	-0.87194701986755	-1.11258278145695	-1.53350993377483	0.0797350993377501				0.688529801324503	-0.144529801324503	-0.725721854304636	-7.59708609271523	-8.4964238410596	10.5843708609272				0.964026490066225	0.0194966887417219	0.261933774834437	-1.1682119205298	-4.42807947019868	-1.17748344370861				0.607788079470199	-0.238834437086093	-0.740238410596026	-5.85960264900662	-4.60238410596027	11.565298013245			
57	1160	-0.264158940397351	0.146754966887417	-0.935523178807947	-0.526622516556291	0.135364238410596	0.215099337748344				0.960953642384106	0.0477880794701987	0.349139072847682	-1.80609271523179	-24.0521854304636	-1.70596026490066				-0.282172185430464	-0.193271523178808	-0.88794701986755	-1.11258278145695	1.54649006622517	0.91973509933775				0.720529801324503	-0.144529801324503	-0.741721854304636	-5.63708609271523	-14.0964238410596	11.7043708609272				0.964026490066225	0.0354966887417219	0.293933774834437	-0.0482119205298018	-3.86807947019868	0.222516556291392				0.607788079470199	-0.238834437086093	-0.788238410596027	-5.85960264900662	-6.00238410596027	12.405298013245			
58	1180	-0.248158940397351	0.130754966887417	-0.951523178807947	-1.08662251655629	1.2553642384106	0.215099337748344				0.960953642384106	0.0637880794701987	0.333139072847682	-0.966092715231788	-21.2521854304636	-1.14596026490066				-0.282172185430464	-0.177271523178808	-0.85594701986755	1.96741721854305	1.26649006622517	0.0797350993377501				0.752529801324503	-0.144529801324503	-0.741721854304636	-2.27708609271523	-25.0164238410596	11.1443708609272				0.964026490066225	0.0354966887417219	0.293933774834437	0.231788079470198	-3.02807947019868	-0.0574834437086077				0.639788079470199	-0.222834437086093	-0.804238410596027	-5.29960264900662	-0.122384105960265	15.205298013245			
59	1200	-0.232158940397351	0.146754966887417	-0.935523178807947	-1.36662251655629	0.415364238410596	1.05509933774834				0.976953642384106	0.0637880794701987	0.317139072847682	5.19390728476821	-25.4521854304636	0.81403973509934				-0.266172185430464	-0.161271523178808	-0.87194701986755	-0.272582781456954	0.706490066225167	-1.04026490066225				0.736529801324503	-0.224529801324503	-0.853721854304636	18.1629139072848	-37.3364238410596	3.02437086092715				0.964026490066225	0.0354966887417219	0.293933774834437	3.3117880794702	-4.14807947019868	0.222516556291392				0.607788079470199	-0.238834437086093	-0.820238410596026	3.10039735099338	-9.92238410596027	17.165298013245			
60	1220	-0.216158940397351	0.146754966887417	-0.935523178807947	-1.64662251655629	-0.424635761589404	2.73509933774834				0.960953642384106	0.0477880794701987	0.269139072847682	7.15390728476821	-29.9321854304636	2.21403973509934				-0.202172185430464	-0.177271523178808	-0.83994701986755	-1.95258278145695	-2.09350993377483	-1.60026490066225				0.752529801324503	-0.160529801324503	-0.853721854304636	11.4429139072848	-37.8964238410596	-9.85562913907285				0.964026490066225	0.0354966887417219	0.245933774834437	3.8717880794702	-3.02807947019868	-0.897483443708608				0.623788079470199	-0.270834437086093	-0.804238410596027	0.0203973509933773	-21.9623841059603	19.685298013245			
61	1240	-0.184158940397351	0.130754966887417	-0.919523178807947	-1.92662251655629	-0.144635761589404	2.45509933774835				1.08895364238411	0.0317880794701987	0.413139072847682	9.67390728476821	-63.2521854304636	3.89403973509934				-0.202172185430464	-0.241271523178808	-0.83994701986755	-0.832582781456954	-0.973509933774833	0.0797350993377501				0.736529801324503	-0.0325298013245033	-0.885721854304636	-25.2370860927152	-71.2164238410596	-11.5356291390728				0.948026490066225	0.0354966887417219	0.213933774834437	8.9117880794702	-1.06807947019868	-0.0574834437086077				0.607788079470199	-0.302834437086093	-0.836238410596026	-6.13960264900662	-36.8023841059603	26.685298013245			
62	1260	-0.184158940397351	0.114754966887417	-0.935523178807947	-9.20662251655629	0.975364238410596	4.97509933774835				0.896953642384106	0.0157880794701987	0.237139072847682	11.3539072847682	-101.332185430464	7.25403973509934				-0.122172185430464	-0.369271523178808	-0.82394701986755	-2.51258278145695	0.146490066225167	3.71973509933775				0.816529801324503	-0.112529801324503	-0.917721854304636	-20.1970860927152	-89.9764238410596	-17.1356291390729				0.932026490066225	0.0194966887417219	0.245933774834437	7.2317880794702	-8.06807947019868	0.782516556291392				0.543788079470199	-0.318834437086093	-0.868238410596026	-24.8996026490066	-49.6823841059603	36.485298013245			
63	1280	-0.216158940397351	0.114754966887417	-0.967523178807947	-8.92662251655629	-2.6646357615894	6.65509933774834				0.848953642384106	-0.000211920529801304	0.109139072847682	2.11390728476821	-69.9721854304636	6.97403973509934				-0.218172185430464	-0.369271523178808	-0.82394701986755	-12.032582781457	-2.09350993377483	12.9597350993378				0.752529801324503	-0.224529801324503	-0.981721854304636	-18.5170860927152	-117.69642384106	-24.4156291390728				0.932026490066225	0.0354966887417219	0.181933774834437	7.2317880794702	-8.06807947019868	-0.0574834437086077				0.463788079470199	-0.158834437086093	-0.948238410596026	-40.8596026490066	-44.9223841059603	47.125298013245			
64	1300	-0.232158940397351	0.0827549668874172	-0.935523178807947	-10.3266225165563	-4.6246357615894	7.21509933774835				0.976953642384106	0.0477880794701987	0.0771390728476822	-4.32609271523179	-45.0521854304636	9.77403973509934				-0.250172185430464	-0.145271523178808	-0.82394701986755	-16.232582781457	-3.49350993377483	9.87973509933775				0.656529801324503	-0.384529801324503	-1.06172185430464	-22.9970860927152	-131.13642384106	-35.0556291390728				0.916026490066225	0.0194966887417219	0.197933774834437	6.9517880794702	-3.30807947019868	-3.13748344370861				0.415788079470199	-0.0788344370860927	-1.02823841059603	-22.6596026490066	-48.0023841059603	40.405298013245			
65	1320	-0.264158940397351	0.114754966887417	-0.951523178807947	-15.9266225165563	-2.3846357615894	9.45509933774835				1.05695364238411	0.0797880794701987	0.205139072847682	-6.84609271523179	-75.8521854304636	12.2940397350993				-0.298172185430464	-0.0652715231788079	-0.85594701986755	-14.552582781457	-4.61350993377483	7.91973509933775				0.496529801324503	-0.256529801324503	-1.07772185430464	-69.4770860927152	-158.01642384106	-41.2156291390729				0.948026490066225	-0.0125033112582781	0.0699337748344371	4.7117880794702	0.0519205298013249	-7.61748344370861				0.511788079470199	-0.174834437086093	-1.01223841059603	9.54039735099338	-83.8423841059603	31.165298013245			
66	1340	-0.328158940397351	0.146754966887417	-0.919523178807947	-22.9266225165563	-0.984635761589404	11.9750993377483				1.02495364238411	0.0477880794701987	0.0611390728476822	2.95390728476821	-94.0521854304636	17.6140397350993				-0.394172185430464	-0.0492715231788079	-0.85594701986755	-13.152582781457	-5.45350993377483	6.23973509933775				0.352529801324503	-0.224529801324503	-0.997721854304636	-86.5570860927152	-184.89642384106	-44.2956291390729				1.01202649006623	-0.0125033112582781	-0.0100662251655629	6.6717880794702	-5.26807947019868	-5.93748344370861				0.367788079470199	-0.286834437086093	-0.980238410596026	1.14039735099338	-119.96238410596	51.045298013245			
67	1360	-0.360158940397351	0.162754966887417	-0.919523178807947	-27.1266225165563	-0.424635761589404	13.0950993377483				0.800953642384106	0.0957880794701987	-0.306860927152318	16.6739072847682	-42.2521854304636	12.0140397350993				-0.378172185430464	-0.0972715231788079	-0.90394701986755	-8.11258278145695	-1.53350993377483	5.11973509933775				0.160529801324503	-0.320529801324503	-1.17372185430464	-85.7170860927152	-184.89642384106	-56.3356291390729				0.996026490066225	-0.0285033112582781	-0.0420662251655629	8.9117880794702	-4.70807947019868	-5.09748344370861				0.255788079470199	-0.270834437086093	-1.06023841059603	0.0203973509933773	-108.20238410596	68.125298013245			
68	1380	-0.312158940397351	0.162754966887417	-0.951523178807947	-19.8466225165563	4.8953642384106	14.4950993377483				0.992953642384106	0.111788079470199	-0.0508609271523178	0.993907284768212	32.7878145695364	13.9740397350993				-0.314172185430464	-0.129271523178808	-0.85594701986755	0.567417218543046	0.986490066225167	2.59973509933775				0.0485298013245033	-0.176529801324503	-1.07772185430464	-121.557086092715	-183.77642384106	-62.4956291390729				1.02802649006623	0.0194966887417219	-0.0740662251655629	6.6717880794702	6.21192052980133	-3.41748344370861				0.255788079470199	-0.238834437086093	-1.15623841059603	6.74039735099338	-97.8423841059603	69.245298013245			
69	1400	-0.328158940397351	0.210754966887417	-0.951523178807947	-30.2066225165563	2.3753642384106	17.2950993377483				1.08895364238411	0.0477880794701987	0.0611390728476822	-4.88609271523179	21.0278145695364	12.2940397350993				-0.346172185430464	-0.161271523178808	-0.80794701986755	-0.552582781456954	-3.21350993377483	5.67973509933775				0.0165298013245033	0.0154701986754967	-0.933721854304636	-129.957086092715	-196.37642384106	-68.0956291390729				1.18802649006623	0.0194966887417219	-0.0740662251655629	-1.7282119205298	7.05192052980133	4.14251655629139				0.271788079470199	-0.174834437086093	-1.18823841059603	9.82039735099338	-111.00238410596	91.085298013245			
70	1420	-0.504158940397351	0.258754966887417	-1.19152317880795	-51.7666225165563	-14.7046357615894	21.7750993377483				1.00895364238411	0.0317880794701987	-0.0988609271523179	-0.406092715231788	36.4278145695364	12.5740397350993				-0.474172185430464	-0.225271523178808	-0.90394701986755	-3.63258278145695	0.706490066225167	8.75973509933775				0.000529801324503301	0.0474701986754967	-0.933721854304636	-114.837086092715	-183.77642384106	-82.3756291390729				1.25202649006623	0.0354966887417219	-0.106066225165563	-3.1282119205298	7.89192052980133	5.26251655629139				0.0797880794701987	-0.158834437086093	-1.07623841059603	21.5803973509934	-112.40238410596	117.965298013245			
71	1440	-0.456158940397351	0.162754966887417	-1.14352317880795	-66.3266225165563	38.7753642384106	24.8550993377483				1.15295364238411	0.111788079470199	-0.242860927152318	-0.406092715231788	64.4278145695364	15.3740397350993				-0.570172185430464	-0.177271523178808	-1.19194701986755	-0.552582781456954	14.4264900662252	7.07973509933775				-0.175470198675497	0.175470198675497	-0.965721854304636	-92.4370860927152	-167.53642384106	-84.6156291390729				1.23602649006623	0.163496688741722	-0.0260662251655629	5.5517880794702	3.97192052980133	2.74251655629139				-0.0162119205298013	-0.174834437086093	-1.07623841059603	41.1803973509934	-89.4423841059603	121.325298013245			
72	1460	-0.392158940397351	0.274754966887417	-0.871523178807947	-34.6866225165563	36.5353642384106	18.1350993377483				1.31295364238411	0.175788079470199	-0.0188609271523178	3.51390728476821	103.627814569536	19.0140397350993				-0.586172185430464	0.0467284768211921	-1.28794701986755	8.68741721854305	40.4664900662252	2.59973509933775				-0.207470198675497	0.351470198675497	-0.965721854304636	-68.3570860927152	-144.01642384106	-72.5756291390729				1.31602649006623	0.163496688741722	0.181933774834437	25.4317880794702	12.9319205298013	10.0225165562914				0.0957880794701987	-0.286834437086093	-1.04423841059603	47.0603973509934	-79.3623841059603	117.685298013245			
73	1480	-0.568158940397351	0.386754966887417	-0.871523178807947	-60.4466225165563	46.0553642384106	25.9750993377483				1.40895364238411	0.127788079470199	0.477139072847682	10.7939072847682	115.667814569536	20.6940397350993				-0.602172185430464	0.0307284768211921	-0.90394701986755	3.08741721854305	45.5064900662252	1.75973509933775				-0.0954701986754967	0.367470198675497	-1.06172185430464	-19.3570860927152	-112.09642384106	-58.2956291390729				1.52402649006623	0.0514966887417219	0.437933774834437	40.2717880794702	19.6519205298013	4.98251655629139				0.287788079470199	-0.398834437086093	-1.07623841059603	31.9403973509934	-68.4423841059603	105.085298013245			
74	1500	-0.552158940397351	0.322754966887417	-1.19152317880795	-27.6866225165563	56.6953642384106	36.3350993377484				1.56895364238411	-0.0162119205298013	0.717139072847682	-0.406092715231788	103.627814569536	17.6140397350993				-0.650172185430464	-0.0812715231788079	-1.09594701986755	18.2074172185431	52.5064900662252	-8.60026490066225				-0.0474701986754967	0.335470198675497	-1.36572185430464	32.1629139072848	-60.5764238410596	-29.1756291390729				1.44402649006623	0.0674966887417219	0.725933774834437	48.6717880794702	24.1319205298013	-2.85748344370861				0.383788079470199	-0.526834437086093	-1.04423841059603	13.7403973509934	-42.1223841059603	88.285298013245			
75	1520	-0.456158940397351	0.290754966887417	-1.09552317880795	-2.76662251655629	64.5353642384106	41.0950993377484				1.82495364238411	-0.0642119205298013	0.973139072847682	-11.6060927152318	75.6278145695364	4.73403973509934				-0.410172185430464	-0.161271523178808	-1.17594701986755	17.087417218543	66.5064900662252	-15.8802649006623				0.0645298013245033	0.335470198675497	-1.26972185430464	31.6029139072848	6.0635761589404	-2.01562913907285				1.28402649006623	0.179496688741722	1.02993377483444	43.3517880794702	15.4519205298013	1.90251655629139				0.399788079470199	-0.686834437086093	-0.932238410596026	-17.0596026490066	16.3976158940397	70.645298013245			
76	1540	-0.312158940397351	0.530754966887417	-1.07952317880795	7.87337748344371	77.9753642384106	47.2550993377484				1.66495364238411	-0.0962119205298013	0.893139072847682	-6.84609271523179	12.9078145695364	0.25403973509934				-0.250172185430464	-0.241271523178808	-1.14394701986755	-1.67258278145695	80.2264900662252	-17.0002649006623				0.128529801324503	0.463470198675497	-1.04572185430464	3.88291390728477	32.1035761589404	19.5443708609272				1.30002649006623	0.0834966887417219	0.901933774834437	11.4317880794702	19.6519205298013	2.46251655629139				0.495788079470199	-0.702834437086093	-0.916238410596027	-39.4596026490066	53.3576158940397	55.245298013245			
77	1560	-0.024158940397351	0.450754966887417	-1.09552317880795	35.5933774834437	92.2553642384106	46.1350993377484				1.36095364238411	-0.0162119205298013	0.621139072847682	-14.1260927152318	2.26781456953642	-5.90596026490066				-0.218172185430464	-0.257271523178808	-1.03194701986755	4.48741721854305	96.7464900662252	-16.1602649006623				0.176529801324503	0.511470198675497	-1.14172185430464	33.8429139072848	64.0235761589404	40.8243708609272				1.31602649006623	0.0994966887417219	0.709933774834437	-9.5682119205298	9.85192052980133	0.502516556291392				0.575788079470199	-0.718834437086093	-0.836238410596026	-48.6996026490066	59.2376158940397	37.045298013245			
78	1580	0.055841059602649	0.386754966887417	-1.09552317880795	59.1133774834437	103.455364238411	40.8150993377484				1.32895364238411	0.0317880794701987	0.509139072847682	-8.80609271523179	-1.37218543046358	-7.30596026490066				-0.122172185430464	-0.305271523178808	-1.07994701986755	-1.39258278145695	107.666490066225	-12.2402649006623				0.208529801324503	0.415470198675497	-1.22172185430464	59.8829139072848	85.8635761589404	50.0643708609272				1.28402649006623	0.131496688741722	0.725933774834437	-4.8082119205298	3.97192052980133	0.502516556291392				0.543788079470199	-0.734834437086093	-0.788238410596027	-38.3396026490066	79.3976158940397	10.165298013245			
79	1600	0.151841059602649	0.162754966887417	-1.04752317880795	54.0733774834437	117.455364238411	35.2150993377483				1.36095364238411	-0.144211920529801	0.589139072847682	-17.7660927152318	2.26781456953642	4.17403973509934				0.0538278145695364	-0.209271523178808	-1.07994701986755	0.847417218543046	119.146490066225	-11.4002649006623				0.224529801324503	0.383470198675497	-1.22172185430464	43.6429139072848	97.9035761589404	57.3443708609272				1.25202649006623	0.147496688741722	0.757933774834437	-14.3282119205298	-11.7080794701987	3.30251655629139				0.431788079470199	-0.590834437086093	-0.996238410596026	-22.9396026490066	98.1576158940398	-0.474701986754968			
80	1620	0.231841059602649	0.338754966887417	-1.09552317880795	33.9133774834437	122.215364238411	25.6950993377483				1.32895364238411	0.0637880794701987	0.765139072847682	-34.5660927152318	-8.93218543046358	-0.30596026490066				0.101827814569536	-0.289271523178808	-1.07994701986755	3.36741721854305	129.506490066225	-14.2002649006623				0.256529801324503	0.255470198675497	-1.22172185430464	39.4429139072848	107.98357615894	67.4243708609272				1.25202649006623	0.147496688741722	0.613933774834437	-27.7682119205298	-19.5480794701987	5.26251655629139				0.415788079470199	-0.494834437086093	-1.14023841059603	12.9003973509934	101.23761589404	-15.034701986755			
81	1640	0.311841059602649	0.418754966887417	-0.999523178807947	39.7933774834437	131.735364238411	18.9750993377483				1.29695364238411	0.0477880794701987	0.589139072847682	-27.8460927152318	-31.3321854304636	6.97403973509934				0.197827814569536	-0.241271523178808	-0.95194701986755	-2.23258278145695	137.906490066225	-17.8402649006623				0.320529801324503	0.127470198675497	-1.20572185430464	48.4029139072848	122.26357615894	64.0643708609272				1.17202649006623	0.147496688741722	0.421933774834437	-28.6082119205298	-17.8680794701987	4.98251655629139				0.495788079470199	-0.574834437086093	-1.12423841059603	24.3803973509934	98.4376158940397	-14.194701986755			
82	1660	0.359841059602649	0.258754966887417	-0.999523178807947	35.5933774834437	143.215364238411	18.4150993377483				1.23295364238411	0.0317880794701987	0.397139072847682	-5.16609271523179	-49.8121854304636	11.7340397350993				0.245827814569536	-0.113271523178808	-0.96794701986755	13.727417218543	146.586490066225	-18.9602649006623				0.304529801324503	0.111470198675497	-1.14172185430464	49.5229139072848	135.70357615894	55.3843708609272				1.12402649006623	0.0994966887417219	0.341933774834437	-4.5282119205298	10.9719205298013	4.98251655629139				0.463788079470199	-0.638834437086093	-1.02823841059603	30.5403973509934	97.8776158940397	-9.99470198675497			
83	1680	0.375841059602649	0.194754966887417	-0.983523178807947	21.8733774834437	151.335364238411	19.5350993377483				1.16895364238411	0.127788079470199	0.317139072847682	21.1539072847682	-53.4521854304636	17.0540397350993				0.325827814569536	-0.113271523178808	-0.93594701986755	20.447417218543	153.026490066225	-15.8802649006623				0.368529801324503	0.111470198675497	-1.01372185430464	44.4829139072848	154.46357615894	49.5043708609272				1.12402649006623	0.0354966887417219	0.373933774834437	10.8717880794702	28.8919205298013	0.782516556291392				0.399788079470199	-0.558834437086093	-0.964238410596026	4.50039735099338	104.31761589404	-5.51470198675497			
84	1700	0.375841059602649	0.226754966887417	-0.903523178807947	13.7533774834437	160.015364238411	15.6150993377483				1.13695364238411	-0.144211920529801	0.445139072847682	5.19390728476821	-45.6121854304636	19.5740397350993				0.309827814569536	-0.209271523178808	-0.83994701986755	17.927417218543	155.266490066225	-14.7602649006622				0.432529801324503	0.175470198675497	-0.949721854304636	43.6429139072848	160.06357615894	44.7443708609272				1.07602649006623	0.0354966887417219	0.357933774834437	4.9917880794702	21.3319205298013	-3.97748344370861				0.367788079470199	-0.382834437086093	-0.900238410596026	-10.8996026490066	118.03761589404	-8.31470198675497			
85	1720	0.407841059602649	0.210754966887417	-0.839523178807947	11.5133774834437	162.535364238411	12.2550993377483				1.20095364238411	-0.0962119205298013	0.333139072847682	-1.52609271523179	-96.0121854304636	9.21403973509934				0.325827814569536	-0.209271523178808	-0.77594701986755	5.88741721854305	152.466490066225	-12.2402649006623				0.416529801324503	0.143470198675497	-0.885721854304636	61.8429139072848	151.66357615894	43.3443708609272				0	0	0	0	0	0				0.399788079470199	-0.286834437086093	-0.740238410596026	-1.37960264900662	139.87761589404	-10.274701986755			
86	1740	0.439841059602649	0.210754966887417	-0.775523178807947	8.15337748344371	162.255364238411	9.17509933774834				0.944953642384106	0.0477880794701987	-0.0188609271523178	32.3539072847682	-103.852185430464	5.57403973509934				0.405827814569536	-0.113271523178808	-0.80794701986755	-9.23258278145695	151.906490066225	-13.9202649006623				0.400529801324503	-0.000529801324503289	-0.773721854304636	77.2429139072848	141.58357615894	36.6243708609272				0.948026490066225	-0.0125033112582781	0.197933774834437	-14.0482119205298	-6.10807947019868	8.34251655629139				0.383788079470199	-0.222834437086093	-0.708238410596026	31.9403973509934	130.35761589404	-20.634701986755			
87	1760	0.407841059602649	0.226754966887417	-0.727523178807947	14.3133774834437	160.575364238411	6.65509933774834				0.864953642384106	-0.176211920529801	-0.0188609271523178	31.7939072847682	-59.0521854304636	12.8540397350993				0.389827814569536	0.0147284768211921	-0.71194701986755	-5.31258278145695	152.186490066225	-18.1202649006623				0.384529801324503	-0.176529801324503	-0.661721854304636	50.3629139072848	128.42357615894	14.7843708609272				0.836026490066225	-0.108503311258278	0.181933774834437	-0.888211920529802	-1.62807947019868	10.3025165562914				0.351788079470199	-0.318834437086093	-0.596238410596026	71.7003973509934	120.83761589404	-33.234701986755			
88	1780	0.375841059602649	0.114754966887417	-0.711523178807947	28.0333774834437	157.495364238411	4.13509933774834				0.720953642384106	-0.0802119205298013	-0.00286092715231785	-18.0460927152318	-66.0521854304636	0.53403973509934				0.373827814569536	0.0147284768211921	-0.63194701986755	-4.19258278145695	156.386490066225	-18.4002649006623				0.352529801324503	-0.192529801324503	-0.693721854304636	37.2029139072848	118.90357615894	1.62437086092715				0.804026490066225	-0.156503311258278	0.181933774834437	-22.7282119205298	-6.66807947019868	4.98251655629139				0.415788079470199	-0.366834437086093	-0.564238410596026	60.2203973509934	122.51761589404	-37.154701986755			
89	1800	0.391841059602649	0.00275496688741723	-0.647523178807947	24.1133774834437	155.535364238411	1.89509933774834				0.608953642384106	0.207788079470199	-0.354860927152318	-14.4060927152318	-53.1721854304636	-12.6259602649007				0.373827814569536	-0.113271523178808	-0.59994701986755	-24.632582781457	159.466490066225	-18.6802649006623				0.368529801324503	-0.192529801324503	-0.725721854304636	39.7229139072848	134.30357615894	8.34437086092715				0.772026490066225	-0.0605033112582781	0.101933774834437	-30.8482119205298	-26.5480794701987	2.74251655629139				0.479788079470199	-0.270834437086093	-0.628238410596026	5.34039735099338	125.03761589404	-38.274701986755			
90	1820	0.391841059602649	0.0507549668874172	-0.583523178807947	12.6333774834437	148.535364238411	-0.624900662251656				0.752953642384106	-0.0322119205298013	-0.0348609271523178	22.5539072847682	-26.2921854304636	-4.50596026490066				0.357827814569536	-0.113271523178808	-0.61594701986755	-23.792582781457	162.266490066225	-15.3202649006623				0.400529801324503	-0.0965298013245033	-0.677721854304636	41.9629139072848	131.50357615894	-3.41562913907285				0.676026490066225	0.0354966887417219	0.133933774834437	-22.7282119205298	-36.0680794701987	6.10251655629139				0.399788079470199	-0.254834437086093	-0.596238410596026	-20.6996026490066	118.59761589404	-39.114701986755			
91	1840	0.327841059602649	0.162754966887417	-0.599523178807947	10.1133774834437	148.255364238411	-0.624900662251656				0.656953642384106	-0.0962119205298013	-0.00286092715231785	-2.36609271523179	-66.0521854304636	-4.78596026490066				0.357827814569536	-0.177271523178808	-0.51994701986755	-45.632582781457	167.306490066225	-11.4002649006623				0.416529801324503	-0.000529801324503289	-0.517721854304636	43.3629139072848	112.46357615894	-16.5756291390728				0.580026490066225	0.00349668874172187	0.0699337748344371	-10.6882119205298	-53.1480794701987	12.8225165562914				0.335788079470199	-0.254834437086093	-0.420238410596026	-7.25960264900662	119.99761589404	-31.554701986755			
92	1860	0.391841059602649	0.226754966887417	-0.599523178807947	2.83337748344371	160.295364238411	1.33509933774834				0.480953642384106	0.0637880794701987	-0.226860927152318	-24.4860927152318	-58.2121854304636	-16.2659602649007				0.357827814569536	-0.129271523178808	-0.69594701986755	-42.832582781457	155.826490066225	-13.0802649006623				0.320529801324503	-0.0805298013245033	-0.485721854304636	45.6029139072848	87.2635761589404	-13.2156291390728				0.564026490066225	-0.0285033112582781	-0.0740662251655629	-13.2082119205298	-64.9080794701987	13.1025165562914				0.367788079470199	-0.222834437086093	-0.388238410596026	-15.0996026490066	114.67761589404	-11.394701986755			
93	1880	0.503841059602649	0.146754966887417	-0.535523178807947	19.3533774834437	157.775364238411	4.97509933774835				0.544953642384106	0.0957880794701987	-0.114860927152318	-15.2460927152318	-29.0921854304636	-14.5859602649007				0.485827814569536	0.0467284768211921	-0.56794701986755	-23.232582781457	161.426490066225	-8.88026490066225				0.336529801324503	-0.160529801324503	-0.485721854304636	46.7229139072848	81.3835761589404	-1.17562913907285				0.548026490066225	0.0194966887417219	0.0379337748344371	-14.3282119205298	-53.9880794701987	9.74251655629139				0.335788079470199	-0.110834437086093	-0.452238410596026	-25.1796026490066	93.9576158940397	-7.75470198675497			
94	1900	0.519841059602649	0.0667549668874172	-0.503523178807947	22.4333774834437	163.375364238411	8.33509933774834				0.592953642384106	-0.0802119205298013	0.0771390728476822	-18.6060927152318	-40.0121854304636	-5.62596026490066				0.533827814569536	-0.00127152317880793	-0.29594701986755	-61.312582781457	170.106490066225	-1.88026490066225				0.352529801324503	-0.144529801324503	-0.581721854304636	48.6829139072848	71.0235761589404	-1.17562913907285				0.500026490066225	-0.0925033112582781	0.229933774834437	-11.8082119205298	-42.5080794701987	4.70251655629139				0.399788079470199	-0.0948344370860927	-0.404238410596026	-43.9396026490066	82.1976158940397	-21.474701986755			
95	1920	0.535841059602649	0.0667549668874172	-0.455523178807947	39.5133774834437	161.135364238411	11.6950993377483				0.480953642384106	-0.000211920529801304	0.0451390728476822	-31.7660927152318	-47.8521854304636	-13.4659602649007				0.645827814569536	-0.145271523178808	-0.35994701986755	-86.512582781457	163.666490066225	2.87973509933775				0.384529801324503	-0.192529801324503	-0.565721854304636	35.5229139072848	70.7435761589404	-9.85562913907285				0.500026490066225	-0.0445033112582781	0.0859337748344371	-31.1282119205298	-71.9080794701987	-0.337483443708608				0.479788079470199	-0.126834437086093	-0.484238410596026	-41.1396026490066	67.6376158940397	-32.674701986755			
96	1940	0.583841059602649	0.0187549668874172	-0.375523178807947	17.6733774834437	152.735364238411	9.73509933774834				0.416953642384106	0.159788079470199	-0.0828609271523179	-14.9660927152318	-36.6521854304636	-21.0259602649007				0.533827814569536	-0.0172715231788079	-0.39194701986755	-83.432582781457	145.746490066225	12.1197350993378				0.416529801324503	-0.208529801324503	-0.421721854304636	22.3629139072848	57.0235761589404	-19.3756291390728				0	0	0	0	0	0				0	0	0	0	0	0			
97	1960	0.711841059602649	0.0187549668874172	-0.423523178807947	6.75337748344371	143.215364238411	9.73509933774834				0.432953642384106	-0.000211920529801304	-0.0188609271523178	-10.7660927152318	-26.0121854304636	-11.5059602649007				0.517827814569536	-0.145271523178808	-0.31194701986755	-65.232582781457	136.786490066225	15.1997350993378				0	0	0	0	0	0				0	0	0	0	0	0				0	0	0	0	0	0			
98	1980	0.727841059602649	0.0347549668874172	-0.343523178807947	10.1133774834437	122.215364238411	5.81509933774834				0.432953642384106	0.0157880794701987	0.0771390728476822	-12.4460927152318	-26.8521854304636	-5.62596026490066				0.741827814569536	-0.145271523178808	-0.39194701986755	-62.712582781457	109.906490066225	12.1197350993378				0	0	0	0	0	0				0	0	0	0	0	0				0.335788079470199	-0.0148344370860927	-0.324238410596026	-36.6596026490066	39.9176158940397	-4.67470198675497			
99	2000	0.695841059602649	0.146754966887417	-0.407523178807947	-2.20662251655629	107.655364238411	16.1750993377483				0.448953642384106	0.0317880794701987	0.0931390728476822	-21.9660927152318	-9.49218543046358	-0.30596026490066				0.773827814569536	-0.00127152317880793	-0.43994701986755	-31.352582781457	82.7464900662252	6.23973509933775				0.432529801324503	-0.0805298013245033	-0.549721854304636	24.8829139072848	23.7035761589404	8.90437086092715				0.484026490066225	0.00349668874172187	0.101933774834437	-12.0882119205298	-55.1080794701987	1.06251655629139				0.431788079470199	-0.0468344370860927	-0.436238410596026	-61.8596026490066	38.7976158940397	-17.554701986755			
100	2020	0.823841059602649	0.0987549668874172	-0.359523178807947	-21.8066225165563	88.0553642384106	17.2950993377483				0.480953642384106	0.0477880794701987	0.125139072847682	-20.8460927152318	1.98781456953642	-3.66596026490066				0.693827814569536	0.0947284768211921	-0.42394701986755	-12.032582781457	49.7064900662252	1.19973509933775				0.464529801324503	-0.256529801324503	-0.517721854304636	21.8029139072848	16.9835761589404	4.42437086092715				0.500026490066225	0.0354966887417219	0.0219337748344371	-11.2482119205298	-62.3880794701987	-0.337483443708608				0.511788079470199	-0.0788344370860927	-0.484238410596026	-32.1796026490066	28.9976158940397	-10.554701986755			
101	2040	0.887841059602649	0.0347549668874172	-0.487523178807947	-21.2466225165563	68.7353642384106	14.4950993377483				0.640953642384106	-0.160211920529801	0.0611390728476822	-4.04609271523179	16.2678145695364	0.53403973509934				0.773827814569536	0.126728476821192	-0.51994701986755	-1.95258278145695	22.2664900662252	3.15973509933775				0.464529801324503	-0.240529801324503	-0.565721854304636	-4.23708609271523	-0.9364238410596	-6.21562913907285				0.580026490066225	0.00349668874172187	-0.0420662251655629	-5.6482119205298	-20.6680794701987	-6.77748344370861				0.543788079470199	-0.110834437086093	-0.468238410596026	-7.25960264900662	15.8376158940397	-2.99470198675497			
102	2060	0.807841059602649	0.162754966887417	-0.407523178807947	-27.9666225165563	40.7353642384106	9.73509933774834				0.896953642384106	-0.0642119205298013	0.0931390728476822	-10.2060927152318	4.22781456953642	2.77403973509934				0.885827814569536	-0.0492715231788079	-0.40794701986755	-9.51258278145695	11.3464900662252	7.35973509933775				0.544529801324503	-0.144529801324503	-0.485721854304636	-15.7170860927152	-5.1364238410596	-9.29562913907285				0.676026490066225	-0.0925033112582781	0.149933774834437	-1.7282119205298	4.25192052980133	-6.49748344370861				0.623788079470199	-0.0788344370860927	-0.484238410596026	-21.2596026490066	18.3576158940397	-4.95470198675497			
103	2080	0.855841059602649	0.178754966887417	-0.343523178807947	-8.08662251655629	32.0553642384106	1.33509933774834				0.832953642384106	0.0637880794701987	0.205139072847682	-23.9260927152318	8.14781456953643	-3.38596026490066				0.805827814569536	-0.177271523178808	-0.34394701986755	-1.11258278145695	13.8664900662252	5.95973509933775				0.608529801324503	-0.128529801324503	-0.469721854304636	-15.4370860927152	-5.4164238410596	-5.93562913907285				0.756026490066225	-0.0125033112582781	0.101933774834437	-10.9682119205298	1.45192052980132	-3.41748344370861				0.687788079470199	-0.142834437086093	-0.548238410596027	-13.9796026490066	19.7576158940397	-8.31470198675497			
104	2100	1.01584105960265	0.0187549668874172	-0.391523178807947	14.0333774834437	27.0153642384106	-3.42490066225166				0.928953642384106	-0.0802119205298013	-0.0668609271523178	2.67390728476821	-9.77218543046358	2.77403973509934				0.901827814569536	-0.113271523178808	-0.29594701986755	-8.11258278145695	17.2264900662252	5.95973509933775				0.688529801324503	-0.128529801324503	-0.613721854304636	-13.4770860927152	3.2635761589404	-4.81562913907285				0.900026490066225	0.0674966887417219	0.0219337748344371	-10.1282119205298	13.2119205298013	-3.13748344370861				0.767788079470199	-0.270834437086093	-0.500238410596026	5.34039735099338	13.0376158940397	-10.554701986755			
105	2120	0.919841059602649	-0.109245033112583	-0.295523178807947	9.55337748344371	20.8553642384106	-0.344900662251656				1.10495364238411	-0.0322119205298013	-0.114860927152318	1.55390728476821	0.587814569536424	1.93403973509934				0.917827814569536	-0.113271523178808	-0.24794701986755	-13.712582781457	14.9864900662252	0.91973509933775				0.784529801324503	-0.0805298013245033	-0.565721854304636	-2.55708609271523	18.3835761589404	-9.29562913907285				1.04402649006623	-0.0445033112582781	0.165933774834437	4.4317880794702	17.4119205298013	-2.57748344370861				0.831788079470199	-0.334834437086093	-0.484238410596026	9.82039735099338	9.67761589403974	-10.274701986755			
106	2140	0.903841059602649	-0.125245033112583	-0.215523178807947	3.11337748344371	22.5353642384106	3.01509933774834				1.05695364238411	0.0157880794701987	0.173139072847682	-1.52609271523179	15.1478145695364	0.81403973509934				0.949827814569536	-0.0492715231788079	-0.27994701986755	-17.912582781457	21.9864900662252	0.63973509933775				0.816529801324503	-0.0165298013245033	-0.549721854304636	6.12291390728477	22.5835761589404	-8.73562913907285				1.14002649006623	-0.0125033112582781	0.149933774834437	0.231788079470198	8.73192052980133	-0.337483443708608				0.911788079470199	-0.382834437086093	-0.580238410596026	3.66039735099338	10.5176158940397	-9.43470198675497			
107	2160	0.967841059602649	-0.125245033112583	-0.231523178807947	-15.0866225165563	22.8153642384106	3.57509933774835				1.02495364238411	-0.0322119205298013	0.0771390728476822	-2.92609271523179	-9.49218543046358	1.65403973509934				1.01382781456954	0.0787284768211921	-0.39194701986755	-7.83258278145695	23.6664900662252	0.0797350993377501				0.864529801324503	-0.0645298013245033	-0.581721854304636	19.0029139072848	23.9835761589404	-2.29562913907285				1.15602649006623	0.0194966887417219	0.0859337748344371	-6.7682119205298	0.331920529801325	-0.0574834437086077				0.959788079470199	-0.366834437086093	-0.596238410596026	-7.53960264900662	10.7976158940397	-8.03470198675497			
108	2180	0.951841059602649	0.0667549668874172	-0.199523178807947	-20.4066225165563	28.9753642384106	2.73509933774834				1.00895364238411	-0.0162119205298013	-0.0988609271523179	-8.80609271523179	-5.57218543046358	4.73403973509934				0.901827814569536	0.0627284768211921	-0.42394701986755	2.80741721854305	25.0664900662252	-1.32026490066225				0.864529801324503	-0.160529801324503	-0.645721854304636	22.9229139072848	25.6635761589404	2.18437086092715				1.06002649006623	0.00349668874172187	0.101933774834437	-6.7682119205298	-5.54807947019868	1.62251655629139				0.879788079470199	-0.302834437086093	-0.532238410596027	-8.93960264900662	9.11761589403974	-3.83470198675497			
109	2200	0.887841059602649	0.178754966887417	-0.167523178807947	-11.1666225165563	34.2953642384106	1.61509933774834				1.00895364238411	-0.0162119205298013	-0.00286092715231785	-7.40609271523179	4.50781456953642	5.85403973509934				0.821827814569536	-0.0332715231788079	-0.39194701986755	10.087417218543	27.3064900662252	-0.76026490066225				0.720529801324503	-0.160529801324503	-0.629721854304636	11.1629139072848	21.4635761589404	-2.01562913907285				0.948026490066225	-0.0125033112582781	0.0699337748344371	-4.8082119205298	-6.66807947019868	2.18251655629139				0.799788079470199	-0.254834437086093	-0.532238410596027	-4.45960264900662	6.03761589403974	-0.474701986754968			
110	2220	0.871841059602649	0.194754966887417	-0.183523178807947	-2.20662251655629	33.4553642384106	-0.904900662251656				0.992953642384106	-0.0322119205298013	0.0771390728476822	2.11390728476821	-3.89218543046358	5.57403973509934				0.805827814569536	-0.0812715231788079	-0.39194701986755	15.687417218543	24.2264900662252	-3.84026490066225				0.672529801324503	-0.128529801324503	-0.597721854304636	-0.877086092715232	9.4235761589404	-5.09562913907285				0.868026490066225	-0.0285033112582781	0.0859337748344371	-2.8482119205298	0.0519205298013249	4.70251655629139				0.767788079470199	-0.222834437086093	-0.548238410596027	0.300397350993377	4.91761589403974	0.0852980132450323			
111	2240	0.967841059602649	0.162754966887417	-0.215523178807947	5.35337748344371	31.7753642384106	-4.26490066225166				0.880953642384106	-0.0162119205298013	-0.178860927152318	0.433907284768212	-7.53218543046358	1.09403973509934				0.869827814569536	0.0147284768211921	-0.35994701986755	4.76741721854305	26.1864900662252	-7.48026490066225				0.752529801324503	-0.0805298013245033	-0.565721854304636	1.92291390728477	1.0235761589404	-4.81562913907285				0.900026490066225	-0.0125033112582781	0.0859337748344371	-2.2882119205298	1.17192052980133	6.10251655629139				0.767788079470199	-0.238834437086093	-0.516238410596026	7.30039735099338	0.157615894039735	1.76529801324503			
112	2260	0.935841059602649	0.146754966887417	-0.263523178807947	7.59337748344371	27.0153642384106	-4.26490066225166				0.944953642384106	0.0477880794701987	-0.0188609271523178	7.99390728476821	13.4678145695364	-1.98596026490066				0.885827814569536	0.0307284768211921	-0.39194701986755	-0.552582781456954	27.0264900662252	-4.40026490066225				0.816529801324503	-0.112529801324503	-0.533721854304636	3.88291390728477	-1.4964238410596	-4.81562913907285				0.916026490066225	0.0354966887417219	0.0699337748344371	-0.888211920529802	0.331920529801325	5.54251655629139				0.735788079470199	-0.238834437086093	-0.500238410596026	5.34039735099338	-2.64238410596027	3.44529801324503			
113	2280	0.919841059602649	0.0827549668874172	-0.279523178807947	13.1933774834437	24.2153642384106	-3.14490066225166				0.944953642384106	0.0637880794701987	0.0451390728476822	23.3939072847682	7.02781456953642	1.65403973509934				0.869827814569536	0.0147284768211921	-0.35994701986755	17.927417218543	19.7464900662252	-4.40026490066225				0.784529801324503	-0.0965298013245033	-0.533721854304636	5.00291390728477	0.4635761589404	-4.25562913907285				0.900026490066225	0.0354966887417219	0.101933774834437	5.5517880794702	5.09192052980133	3.86251655629139				0.703788079470199	-0.222834437086093	-0.452238410596026	3.10039735099338	0.717615894039735	5.68529801324503			
114	2300	0.887841059602649	0.0347549668874172	-0.295523178807947	12.6333774834437	19.4553642384106	-2.58490066225166				0.912953642384106	0.0317880794701987	0.109139072847682	20.8739072847682	3.38781456953642	1.09403973509934				0.869827814569536	0.0147284768211921	-0.34394701986755	19.8874172185431	24.5064900662252	-2.16026490066225				0.784529801324503	-0.0645298013245033	-0.533721854304636	4.44291390728477	2.9835761589404	-5.65562913907285				0.900026490066225	0.0194966887417219	0.133933774834437	11.1517880794702	6.77192052980133	2.18251655629139				0.703788079470199	-0.206834437086093	-0.500238410596026	7.02039735099338	0.437615894039735	7.08529801324503			
115	2320	0.903841059602649	0.0667549668874172	-0.263523178807947	10.3933774834437	13.8553642384106	1.61509933774834				0.912953642384106	0.0157880794701987	-0.00286092715231785	12.1939072847682	7.86781456953642	-0.30596026490066				0.949827814569536	-0.0332715231788079	-0.29594701986755	11.207417218543	19.1864900662252	0.63973509933775				0.800529801324503	-0.0485298013245033	-0.533721854304636	9.76291390728477	6.9035761589404	-6.77562913907285				0.932026490066225	0.0194966887417219	0.149933774834437	14.7917880794702	4.25192052980133	-0.337483443708608				0.735788079470199	-0.222834437086093	-0.452238410596026	13.4603973509934	0.157615894039735	4.00529801324503			
116	2340	0.967841059602649	0.00275496688741723	-0.263523178807947	6.19337748344371	14.4153642384106	1.33509933774834				1.02495364238411	0.0477880794701987	0.0611390728476822	7.71390728476821	17.1078145695364	-0.0259602649006601				0.933827814569536	-0.0972715231788079	-0.24794701986755	15.967417218543	13.5864900662252	0.35973509933775				0.784529801324503	-0.0645298013245033	-0.565721854304636	16.7629139072848	10.8235761589404	-5.93562913907285				0.964026490066225	0.0194966887417219	0.117933774834437	11.9917880794702	-0.788079470198675	-2.85748344370861				0.767788079470199	-0.206834437086093	-0.452238410596026	10.1003973509934	0.157615894039735	-1.87470198675497			
117	2360	0.983841059602649	0.0507549668874172	-0.263523178807947	5.63337748344371	13.5753642384106	-0.0649006622516557				0.960953642384106	0.0157880794701987	0.0451390728476822	6.59390728476821	4.50781456953642	5.57403973509934				0.853827814569536	-0.0652715231788079	-0.21594701986755	10.647417218543	16.3864900662252	-1.04026490066225				0.784529801324503	-0.112529801324503	-0.629721854304636	12.0029139072848	13.6235761589404	-5.65562913907285				0.964026490066225	0.0354966887417219	0.101933774834437	11.1517880794702	-2.18807947019868	-3.97748344370861				0.831788079470199	-0.270834437086093	-0.468238410596026	10.1003973509934	0.997615894039735	-4.67470198675497			
118	2380	0.935841059602649	0.0667549668874172	-0.279523178807947	2.83337748344371	9.0953642384106	-2.30490066225166				0.976953642384106	-0.0802119205298013	0.0611390728476822	9.11390728476821	8.70781456953642	7.25403973509934				0.933827814569536	-0.00127152317880793	-0.26394701986755	-3.63258278145695	17.5064900662252	-2.16026490066225				0.800529801324503	-0.128529801324503	-0.629721854304636	10.6029139072848	10.5435761589404	-9.85562913907285				0.980026490066225	-0.0285033112582781	0.117933774834437	14.5117880794702	2.01192052980133	-3.97748344370861				0.815788079470199	-0.334834437086093	-0.468238410596026	7.86039735099338	3.23761589403974	-0.194701986754968			
119	2400	0.903841059602649	0.0827549668874172	-0.247523178807947	2.27337748344371	0.975364238410596	-2.86490066225166				1.02495364238411	-0.0642119205298013	0.0931390728476822	5.19390728476821	8.98781456953643	3.05403973509934				0.981827814569536	-0.0332715231788079	-0.29594701986755	3.92741721854305	15.8264900662252	-3.28026490066225				0.736529801324503	-0.144529801324503	-0.581721854304636	6.68291390728477	5.7835761589404	-11.8156291390728				0.948026490066225	-0.0765033112582781	0.117933774834437	13.6717880794702	3.97192052980133	-1.17748344370861				0.799788079470199	-0.318834437086093	-0.420238410596026	0.580397350993377	7.71761589403974	0.365298013245032			
120	2420	0.935841059602649	0.0507549668874172	-0.199523178807947	3.11337748344371	4.8953642384106	-0.904900662251656				0.992953642384106	0.0157880794701987	-0.00286092715231785	6.03390728476821	8.98781456953643	-0.0259602649006601				0.917827814569536	-0.0172715231788079	-0.31194701986755	9.24741721854305	13.5864900662252	-1.32026490066225				0.720529801324503	-0.176529801324503	-0.581721854304636	2.48291390728477	1.0235761589404	-8.45562913907285				0.948026490066225	-0.0125033112582781	0.133933774834437	7.2317880794702	2.01192052980133	-0.617483443708608				0.799788079470199	-0.270834437086093	-0.452238410596026	-3.05960264900662	7.43761589403974	-4.67470198675497			
121	2440	0.935841059602649	0.0347549668874172	-0.199523178807947	3.67337748344371	10.2153642384106	-1.46490066225166				0.976953642384106	-0.0802119205298013	0.0931390728476822	-1.24609271523179	9.82781456953643	1.93403973509934				0.901827814569536	-0.0172715231788079	-0.27994701986755	2.24741721854305	8.82649006622517	0.35973509933775				0.736529801324503	-0.144529801324503	-0.613721854304636	-1.43708609271523	1.3035761589404	-6.21562913907285				0.916026490066225	0.00349668874172187	0.149933774834437	1.9117880794702	2.29192052980133	-3.41748344370861				0.815788079470199	-0.302834437086093	-0.420238410596026	12.6203973509934	2.95761589403974	-5.51470198675497			
122	2460	0.903841059602649	0.0347549668874172	-0.231523178807947	-3.60662251655629	10.4953642384106	-0.344900662251656				0.944953642384106	-0.0642119205298013	0.0611390728476822	-6.56609271523179	-3.05218543046358	-0.30596026490066				0.933827814569536	-0.0652715231788079	-0.29594701986755	1.68741721854305	2.94649006622517	-0.20026490066225				0.720529801324503	-0.112529801324503	-0.581721854304636	-2.83708609271523	2.9835761589404	-4.53562913907285				0.948026490066225	-0.0605033112582781	0.117933774834437	0.511788079470198	2.85192052980133	-3.41748344370861				0.831788079470199	-0.366834437086093	-0.452238410596026	8.98039735099338	2.11761589403974	-2.15470198675497			
123	2480	0.903841059602649	0.0667549668874172	-0.247523178807947	-5.28662251655629	7.1353642384106	-2.30490066225166				0.960953642384106	-0.000211920529801304	0.0131390728476822	-7.68609271523179	1.98781456953642	-2.26596026490066				0.917827814569536	-0.113271523178808	-0.26394701986755	-1.39258278145695	-0.973509933774833	-2.72026490066225				0.720529801324503	-0.144529801324503	-0.549721854304636	2.20291390728477	4.6635761589404	-3.13562913907285				0.980026490066225	-0.0445033112582781	0.117933774834437	-3.6882119205298	2.01192052980133	-2.29748344370861				0.815788079470199	-0.350834437086093	-0.436238410596026	-1.65960264900662	4.07761589403974	-4.67470198675497			
124	2500	0.967841059602649	0.0827549668874172	-0.263523178807947	-8.36662251655629	7.4153642384106	-1.74490066225166				0.992953642384106	0.0637880794701987	-0.00286092715231785	-5.44609271523179	4.22781456953642	-3.66596026490066				0.917827814569536	-0.00127152317880793	-0.21594701986755	-6.71258278145695	4.34649006622517	-3.84026490066225				0.752529801324503	-0.128529801324503	-0.581721854304636	-2.27708609271523	3.2635761589404	-2.01562913907285				0.980026490066225	0.0194966887417219	0.101933774834437	-8.1682119205298	-0.228079470198675	-1.73748344370861				0.799788079470199	-0.286834437086093	-0.452238410596026	-11.7396026490066	4.35761589403974	-4.95470198675497			
125	2520	0.983841059602649	0.0667549668874172	-0.215523178807947	-6.12662251655629	8.8153642384106	0.495099337748344				1.00895364238411	-0.0162119205298013	0.0131390728476822	-3.48609271523179	-0.532185430463576	-3.66596026490066				0.885827814569536	-0.00127152317880793	-0.26394701986755	-7.55258278145695	0.706490066225167	-2.16026490066225				0.784529801324503	-0.0805298013245033	-0.581721854304636	-6.75708609271523	1.8635761589404	-2.01562913907285				0.948026490066225	0.0194966887417219	0.133933774834437	-8.1682119205298	-0.228079470198675	-1.45748344370861				0.815788079470199	-0.270834437086093	-0.452238410596026	-1.37960264900662	4.63761589403974	-1.59470198675497			
126	2540	0.935841059602649	0.0667549668874172	-0.215523178807947	-2.20662251655629	7.6953642384106	-1.18490066225166				0.976953642384106	-0.0322119205298013	0.0451390728476822	-4.32609271523179	0.867814569536424	-5.62596026490066				0.933827814569536	-0.00127152317880793	-0.27994701986755	-3.63258278145695	5.46649006622517	-0.48026490066225				0.784529801324503	-0.0965298013245033	-0.597721854304636	-2.55708609271523	1.5835761589404	-1.17562913907285				0.964026490066225	-0.0285033112582781	0.101933774834437	-3.9682119205298	2.57192052980133	-0.897483443708608				0.799788079470199	-0.270834437086093	-0.484238410596026	-3.61960264900662	5.47761589403974	2.60529801324503			
127	2560	0.903841059602649	0.0827549668874172	-0.199523178807947	-6.40662251655629	6.5753642384106	-1.74490066225166				1.00895364238411	0.0157880794701987	0.0771390728476822	-7.12609271523179	3.66781456953642	-6.74596026490066				0.981827814569536	-0.00127152317880793	-0.27994701986755	-5.87258278145695	6.30649006622517	0.0797350993377501				0.800529801324503	-0.144529801324503	-0.597721854304636	-2.83708609271523	0.7435761589404	-1.73562913907285				0.996026490066225	-0.0125033112582781	0.101933774834437	-6.2082119205298	1.17192052980133	-2.01748344370861				0.799788079470199	-0.270834437086093	-0.468238410596026	-3.89960264900662	5.19761589403974	1.20529801324503			
128	2580	0.951841059602649	0.0667549668874172	-0.183523178807947	-7.24662251655629	7.4153642384106	-1.18490066225166				0.992953642384106	0.0477880794701987	0.0611390728476822	-12.1660927152318	0.0278145695364242	-5.34596026490066				0.933827814569536	-0.0332715231788079	-0.29594701986755	-7.83258278145695	3.78649006622517	-0.48026490066225				0.784529801324503	-0.128529801324503	-0.613721854304636	-10.3970860927152	-0.9364238410596	-2.85562913907285				0.964026490066225	0.0194966887417219	0.0859337748344371	-9.5682119205298	-2.18807947019868	-2.29748344370861				0.799788079470199	-0.238834437086093	-0.468238410596026	-6.97960264900662	2.67761589403974	-1.59470198675497			
129	2600	0.951841059602649	0.0827549668874172	-0.167523178807947	-6.12662251655629	8.8153642384106	-1.74490066225166				0.976953642384106	0.0317880794701987	0.0131390728476822	-8.80609271523179	-1.37218543046358	-3.38596026490066				0.885827814569536	-0.0332715231788079	-0.24794701986755	-7.83258278145695	2.94649006622517	-0.48026490066225				0.768529801324503	-0.0965298013245033	-0.597721854304636	-9.83708609271523	-3.4564238410596	-3.69562913907285				0.916026490066225	0.0194966887417219	0.0859337748344371	-7.8882119205298	1.17192052980133	-3.41748344370861				0.799788079470199	-0.206834437086093	-0.500238410596026	1.14039735099338	1.83761589403974	-1.03470198675497			
130	2620	0.951841059602649	0.0827549668874172	-0.151523178807947	-3.88662251655629	10.2153642384106	-1.18490066225166				0.992953642384106	0.0317880794701987	0.0131390728476822	-6.84609271523179	1.98781456953642	-3.94596026490066				0.949827814569536	-0.00127152317880793	-0.24794701986755	-12.592582781457	6.30649006622517	0.91973509933775				0.736529801324503	-0.0965298013245033	-0.597721854304636	-6.47708609271523	-4.0164238410596	-5.93562913907285				0.916026490066225	0.0194966887417219	0.117933774834437	-2.8482119205298	8.17192052980133	-3.97748344370861				0.783788079470199	-0.238834437086093	-0.468238410596026	0.580397350993377	1.55761589403974	1.76529801324503			
131	2640	0.935841059602649	0.0827549668874172	-0.167523178807947	-5.84662251655629	7.9753642384106	-1.46490066225166				0.976953642384106	0.0317880794701987	0.0611390728476822	-6.56609271523179	2.54781456953642	-4.50596026490066				0.917827814569536	0.0307284768211921	-0.29594701986755	-7.83258278145695	5.46649006622517	0.0797350993377501				0.768529801324503	-0.0965298013245033	-0.581721854304636	-9.55708609271523	-3.7364238410596	-8.45562913907285				0.964026490066225	0.0194966887417219	0.0859337748344371	-4.5282119205298	4.25192052980133	-3.69748344370861				0.799788079470199	-0.254834437086093	-0.452238410596026	-0.819602649006623	4.07761589403974	2.04529801324503			
132	2660	0.935841059602649	0.0987549668874172	-0.151523178807947	-0.246622516556291	5.1753642384106	-2.02490066225166				0.960953642384106	0.0477880794701987	0.0291390728476822	-2.92609271523179	1.14781456953642	-1.70596026490066				0.917827814569536	-0.00127152317880793	-0.29594701986755	-2.23258278145695	3.78649006622517	-0.48026490066225				0.784529801324503	-0.0805298013245033	-0.549721854304636	-12.9170860927152	-2.8964238410596	-7.61562913907285				0.948026490066225	0.0354966887417219	0.101933774834437	-6.7682119205298	5.93192052980133	-5.09748344370861				0.799788079470199	-0.238834437086093	-0.452238410596026	-4.17960264900662	4.07761589403974	2.60529801324503			
133	2680	0.951841059602649	0.0667549668874172	-0.167523178807947	0.873377483443709	3.7753642384106	-1.18490066225166				0.976953642384106	-0.000211920529801304	0.0131390728476822	-1.52609271523179	3.10781456953642	-0.585960264900661				0.933827814569536	-0.0172715231788079	-0.26394701986755	0.287417218543046	2.10649006622517	0.0797350993377501				0.752529801324503	-0.0485298013245033	-0.533721854304636	-9.55708609271523	-0.6564238410596	-7.61562913907285				0.932026490066225	0.00349668874172187	0.117933774834437	-4.8082119205298	8.45192052980133	-4.25748344370861				0.783788079470199	-0.254834437086093	-0.452238410596026	0.0203973509933773	5.47761589403974	3.16529801324503			
134	2700	0.919841059602649	0.0507549668874172	-0.151523178807947	0.593377483443709	1.5353642384106	-1.18490066225166				0.960953642384106	0.0157880794701987	0.0291390728476822	-2.92609271523179	7.58781456953643	-3.66596026490066				0.933827814569536	-0.0172715231788079	-0.27994701986755	-2.79258278145695	1.82649006622517	0.0797350993377501				0.736529801324503	-0.0485298013245033	-0.549721854304636	-5.63708609271523	1.8635761589404	-8.73562913907285				0.948026490066225	0.00349668874172187	0.117933774834437	-2.2882119205298	7.33192052980133	-3.69748344370861				0.799788079470199	-0.270834437086093	-0.468238410596026	1.70039735099338	6.31761589403974	4.56529801324503			
135	2720	0.935841059602649	0.0507549668874172	-0.215523178807947	-0.526622516556291	0.695364238410596	-0.344900662251656				0.976953642384106	0.0317880794701987	0.0771390728476822	-0.686092715231788	7.86781456953642	-3.10596026490066				0.933827814569536	-0.0332715231788079	-0.27994701986755	-5.59258278145695	-0.973509933774833	-0.76026490066225				0.768529801324503	-0.0325298013245033	-0.549721854304636	-2.27708609271523	3.8235761589404	-8.45562913907285				0.964026490066225	0.0354966887417219	0.149933774834437	-1.7282119205298	5.09192052980133	-3.41748344370861				0.831788079470199	-0.238834437086093	-0.468238410596026	-1.65960264900662	6.87761589403974	2.60529801324503			
136	2740	0.951841059602649	0.0827549668874172	-0.183523178807947	-1.36662251655629	0.975364238410596	-0.0649006622516557				0.992953642384106	-0.000211920529801304	0.0611390728476822	-0.966092715231788	5.62781456953642	-1.98596026490066				0.949827814569536	-0.0652715231788079	-0.24794701986755	-2.51258278145695	-0.133509933774833	0.63973509933775				0.800529801324503	-0.0485298013245033	-0.565721854304636	-1.99708609271523	4.6635761589404	-5.65562913907285				0.980026490066225	0.0354966887417219	0.101933774834437	-2.5682119205298	2.57192052980133	-3.13748344370861				0.831788079470199	-0.254834437086093	-0.468238410596026	-1.65960264900662	5.75761589403974	1.48529801324503			
137	2760	0.935841059602649	0.0667549668874172	-0.215523178807947	-2.76662251655629	0.975364238410596	-0.624900662251656				0.944953642384106	0.0157880794701987	0.0451390728476822	-7.96609271523179	2.82781456953642	-2.54596026490066				0.917827814569536	-0.0492715231788079	-0.24794701986755	-6.15258278145695	-1.25350993377483	0.35973509933775				0.784529801324503	-0.0805298013245033	-0.581721854304636	1.64291390728477	4.3835761589404	-4.25562913907285				0.964026490066225	0.0194966887417219	0.117933774834437	-1.4482119205298	3.97192052980133	-1.73748344370861				0.799788079470199	-0.254834437086093	-0.468238410596026	0.0203973509933773	7.15761589403974	3.44529801324503			
138	2780	0.951841059602649	0.0507549668874172	-0.215523178807947	-3.32662251655629	1.2553642384106	-2.02490066225166				0.976953642384106	0.0317880794701987	0.0291390728476822	-5.44609271523179	3.66781456953642	-2.82596026490066				0.917827814569536	-0.00127152317880793	-0.24794701986755	-9.79258278145695	-1.53350993377483	-0.48026490066225				0.768529801324503	-0.0805298013245033	-0.581721854304636	-0.0370860927152318	2.1435761589404	-3.69562913907285				0.964026490066225	0.0194966887417219	0.117933774834437	0.511788079470198	3.69192052980133	-2.29748344370861				0.799788079470199	-0.270834437086093	-0.468238410596026	3.66039735099338	7.15761589403974	3.16529801324503			
139	2800	0.967841059602649	0.0667549668874172	-0.215523178807947	-6.40662251655629	-1.2646357615894	-2.58490066225166				0.992953642384106	0.0157880794701987	0.0451390728476822	1.27390728476821	10.6678145695364	-2.26596026490066				0.933827814569536	0.0307284768211921	-0.27994701986755	-9.51258278145695	-1.25350993377483	-1.32026490066225				0.784529801324503	-0.0965298013245033	-0.597721854304636	-5.35708609271523	1.3035761589404	-3.69562913907285				0.964026490066225	0.0194966887417219	0.133933774834437	0.791788079470198	2.57192052980133	-2.57748344370861				0.815788079470199	-0.254834437086093	-0.452238410596026	0.860397350993377	4.07761589403974	0.925298013245032			
140	2820	0.951841059602649	0.0827549668874172	-0.199523178807947	-4.44662251655629	-1.8246357615894	-2.86490066225166				0.992953642384106	0.0317880794701987	0.0611390728476822	0.153907284768212	10.3878145695364	-1.14596026490066				0.917827814569536	0.0467284768211921	-0.29594701986755	-5.03258278145695	-2.09350993377483	-2.44026490066225				0.800529801324503	-0.0645298013245033	-0.597721854304636	-5.91708609271523	0.1835761589404	-4.53562913907285				0.964026490066225	0.0194966887417219	0.117933774834437	-2.2882119205298	0.891920529801325	-2.85748344370861				0.815788079470199	-0.238834437086093	-0.452238410596026	-1.65960264900662	2.39761589403974	-2.43470198675497			
141	2840	0.919841059602649	0.0667549668874172	-0.151523178807947	-1.92662251655629	-0.984635761589404	-0.0649006622516557				0.992953642384106	0.0477880794701987	0.0931390728476822	-8.24609271523179	5.06781456953642	-1.14596026490066				0.901827814569536	0.0147284768211921	-0.31194701986755	-0.552582781456954	-2.37350993377483	-2.44026490066225				0.768529801324503	-0.0485298013245033	-0.565721854304636	-8.15708609271523	-3.7364238410596	-5.09562913907285				0.948026490066225	0.0354966887417219	0.117933774834437	-2.2882119205298	2.57192052980133	-3.41748344370861				0.815788079470199	-0.254834437086093	-0.452238410596026	-0.819602649006623	0.997615894039735	-0.194701986754968			
142	2860	0.919841059602649	0.0827549668874172	-0.151523178807947	-1.08662251655629	-0.984635761589404	0.215099337748344				1.00895364238411	0.0317880794701987	0.0931390728476822	-6.00609271523179	1.42781456953642	-1.14596026490066				0.933827814569536	0.0147284768211921	-0.27994701986755	-2.23258278145695	-0.693509933774834	-2.72026490066225				0.752529801324503	-0.0485298013245033	-0.565721854304636	-5.35708609271523	-4.5764238410596	-3.41562913907285				0.948026490066225	0.0354966887417219	0.133933774834437	-0.888211920529802	3.13192052980133	-3.97748344370861				0.799788079470199	-0.270834437086093	-0.452238410596026	-1.09960264900662	1.83761589403974	1.48529801324503			
143	2880	0.935841059602649	0.0987549668874172	-0.151523178807947	-0.806622516556291	1.8153642384106	-1.46490066225166				0.976953642384106	0.0477880794701987	0.0611390728476822	-1.24609271523179	-0.252185430463576	-1.14596026490066				0.933827814569536	0.0307284768211921	-0.31194701986755	0.00741721854304636	1.26649006622517	-2.16026490066225				0.784529801324503	-0.0485298013245033	-0.549721854304636	-5.35708609271523	-4.5764238410596	-0.895629139072848				0.964026490066225	0.0194966887417219	0.133933774834437	1.0717880794702	3.69192052980133	-3.69748344370861				0.831788079470199	-0.254834437086093	-0.436238410596026	-1.93960264900662	3.51761589403974	-0.474701986754968			
144	2900	0.967841059602649	0.130754966887417	-0.151523178807947	-2.48662251655629	1.8153642384106	-0.904900662251656				0.976953642384106	0.0477880794701987	0.0451390728476822	-0.126092715231788	1.42781456953642	-2.26596026490066				0.901827814569536	0.0467284768211921	-0.29594701986755	2.52741721854305	1.82649006622517	-3.28026490066225				0.784529801324503	-0.0485298013245033	-0.565721854304636	-7.59708609271523	-3.7364238410596	-0.0556291390728476				0.964026490066225	0.0514966887417219	0.117933774834437	-0.328211920529802	0.611920529801325	-3.13748344370861				0.831788079470199	-0.238834437086093	-0.452238410596026	-1.93960264900662	4.63761589403974	-2.71470198675497			
145	2920	0.951841059602649	0.130754966887417	-0.183523178807947	-1.92662251655629	0.975364238410596	-0.344900662251656				0.992953642384106	0.0637880794701987	0.0451390728476822	0.433907284768212	2.82781456953642	-1.70596026490066				0.917827814569536	0.0467284768211921	-0.27994701986755	3.36741721854305	1.26649006622517	-3.28026490066225				0.752529801324503	-0.0325298013245033	-0.565721854304636	-7.03708609271523	-1.2164238410596	-1.17562913907285				0.964026490066225	0.0354966887417219	0.117933774834437	1.9117880794702	2.01192052980133	-3.13748344370861				0.815788079470199	-0.254834437086093	-0.436238410596026	0.0203973509933773	4.91761589403974	-0.754701986754968			
146	2940	0.951841059602649	0.114754966887417	-0.167523178807947	4.51337748344371	-0.424635761589404	-1.74490066225166				0.992953642384106	0.0637880794701987	0.0611390728476822	1.27390728476821	1.14781456953642	-2.26596026490066				0.933827814569536	0.0147284768211921	-0.26394701986755	6.16741721854305	0.706490066225167	-2.44026490066225				0.736529801324503	-0.0325298013245033	-0.565721854304636	-3.11708609271523	1.0235761589404	0.224370860927152				0.980026490066225	0.0194966887417219	0.117933774834437	10.5917880794702	3.69192052980133	1.06251655629139				0.799788079470199	-0.254834437086093	-0.452238410596026	0.580397350993377	4.91761589403974	-0.754701986754968			
147	2960	0.903841059602649	0.0667549668874172	-0.231523178807947	7.87337748344371	-6.8646357615894	-0.624900662251656				0.960953642384106	0.0317880794701987	0.0131390728476822	8.83390728476821	-5.85218543046358	0.53403973509934				0.917827814569536	-0.0172715231788079	-0.27994701986755	4.20741721854305	-2.65350993377483	-0.48026490066225				0.784529801324503	-0.0965298013245033	-0.581721854304636	10.6029139072848	-0.9364238410596	-6.77562913907285				0	0	0	0	0	0				0	0	0	0	0	0			
148	2980	0	0	0	0	0	0				0.976953642384106	0.0477880794701987	0.0451390728476822	7.15390728476821	3.94781456953642	-4.22596026490066				0.933827814569536	0.0147284768211921	-0.26394701986755	5.32741721854305	0.426490066225167	-2.44026490066225				0	0	0	0	0	0				0	0	0	0	0	0				0	0	0	0	0	0			
149	3000	0.951841059602649	0.0987549668874172	-0.199523178807947	0.313377483443709	1.2553642384106	-0.624900662251656				1.00895364238411	0.0157880794701987	0.0931390728476822	2.11390728476821	4.50781456953642	-2.54596026490066				0.949827814569536	-0.00127152317880793	-0.26394701986755	3.64741721854305	-0.693509933774834	0.0797350993377501				0.752529801324503	-0.0485298013245033	-0.597721854304636	-1.15708609271523	5.5035761589404	-2.01562913907285				0.948026490066225	0.0354966887417219	0.101933774834437	-0.608211920529802	1.45192052980132	-3.97748344370861				0.815788079470199	-0.238834437086093	-0.484238410596026	-4.17960264900662	3.51761589403974	0.365298013245032			
150	3020	0.935841059602649	0.0827549668874172	-0.183523178807947	1.71337748344371	-0.984635761589404	-0.904900662251656				0.992953642384106	0.0157880794701987	0.0611390728476822	-2.36609271523179	0.587814569536424	-3.10596026490066				0.933827814569536	-0.0332715231788079	-0.27994701986755	4.20741721854305	-4.05350993377483	0.35973509933775				0.736529801324503	-0.0485298013245033	-0.597721854304636	-0.317086092715232	5.7835761589404	-2.57562913907285				0.948026490066225	0.00349668874172187	0.133933774834437	1.6317880794702	2.29192052980133	-3.41748344370861				0.815788079470199	-0.222834437086093	-0.468238410596026	-0.259602649006623	1.83761589403974	0.0852980132450323			
151	3040	0.935841059602649	0.0667549668874172	-0.215523178807947	-1.08662251655629	0.695364238410596	-0.0649006622516557				0.944953642384106	0.0637880794701987	0.0451390728476822	-3.48609271523179	3.10781456953642	-5.62596026490066				0.901827814569536	-0.0172715231788079	-0.24794701986755	-0.832582781456954	-4.33350993377483	1.19973509933775				0.736529801324503	-0.0645298013245033	-0.597721854304636	0.802913907284768	3.5435761589404	-3.41562913907285				0.948026490066225	0.0194966887417219	0.101933774834437	-0.888211920529802	0.331920529801325	-4.25748344370861				0.799788079470199	-0.254834437086093	-0.452238410596026	1.42039735099338	-0.402384105960265	-2.71470198675497			
152	3060	0.935841059602649	0.0827549668874172	-0.215523178807947	-0.246622516556291	0.695364238410596	-1.18490066225166				0.976953642384106	0.0317880794701987	0.0451390728476822	0.153907284768212	7.30781456953642	-3.66596026490066				0.901827814569536	-0.0172715231788079	-0.27994701986755	-6.15258278145695	-3.21350993377483	1.19973509933775				0.752529801324503	-0.0645298013245033	-0.613721854304636	-1.43708609271523	2.4235761589404	-5.09562913907285				0.932026490066225	0.0514966887417219	0.117933774834437	-2.8482119205298	0.331920529801325	-4.53748344370861				0.815788079470199	-0.254834437086093	-0.452238410596026	0.860397350993377	-0.122384105960265	-1.87470198675497			
153	3080	0.951841059602649	0.0827549668874172	-0.215523178807947	-1.64662251655629	-1.5446357615894	-0.624900662251656				0.992953642384106	0.0317880794701987	0.0611390728476822	4.35390728476821	5.34781456953642	-3.38596026490066				0.933827814569536	0.0147284768211921	-0.26394701986755	-4.75258278145695	-1.53350993377483	-0.20026490066225				0.768529801324503	-0.0485298013245033	-0.581721854304636	-4.23708609271523	3.5435761589404	-6.77562913907285				0.932026490066225	0.0514966887417219	0.117933774834437	-0.328211920529802	4.25192052980133	-3.97748344370861				0.815788079470199	-0.222834437086093	-0.468238410596026	-1.65960264900662	0.437615894039735	-0.754701986754968			
154	3100	0.919841059602649	0.0667549668874172	-0.199523178807947	1.43337748344371	-2.3846357615894	0.495099337748344				0.976953642384106	0.0477880794701987	0.0451390728476822	4.91390728476821	-0.812185430463576	-3.10596026490066				0.917827814569536	0.0467284768211921	-0.29594701986755	1.40741721854305	-1.25350993377483	-1.88026490066225				0.768529801324503	-0.0325298013245033	-0.597721854304636	-1.71708609271523	3.2635761589404	-5.93562913907285				0.964026490066225	0.0674966887417219	0.117933774834437	1.0717880794702	5.65192052980133	-3.41748344370861				0.847788079470199	-0.222834437086093	-0.452238410596026	3.94039735099338	0.997615894039735	-1.87470198675497			
155	3120	0.935841059602649	0.0507549668874172	-0.183523178807947	0.873377483443709	-1.2646357615894	-0.344900662251656				0.992953642384106	0.0637880794701987	0.0291390728476822	2.39390728476821	1.42781456953642	-2.82596026490066				0.917827814569536	0.0307284768211921	-0.32794701986755	3.64741721854305	-0.693509933774834	-3.00026490066225				0.784529801324503	-0.0325298013245033	-0.597721854304636	-0.597086092715232	3.2635761589404	-3.41562913907285				1.01202649006623	0.0674966887417219	0.117933774834437	0.791788079470198	4.25192052980133	-2.85748344370861				0.863788079470199	-0.238834437086093	-0.452238410596026	1.70039735099338	1.55761589403974	-3.83470198675497			
156	3140	0.951841059602649	0.0507549668874172	-0.183523178807947	-2.76662251655629	0.415364238410596	-0.624900662251656				1.00895364238411	0.0637880794701987	0.0611390728476822	-0.126092715231788	5.62781456953642	-2.54596026490066				0.917827814569536	-0.0172715231788079	-0.31194701986755	3.64741721854305	0.146490066225167	-0.76026490066225				0.800529801324503	-0.0325298013245033	-0.597721854304636	-0.877086092715232	2.7035761589404	-3.13562913907285				0.996026490066225	0.0674966887417219	0.101933774834437	0.511788079470198	2.57192052980133	-3.13748344370861				0.847788079470199	-0.238834437086093	-0.452238410596026	3.38039735099338	1.55761589403974	-4.67470198675497			
157	3160	0.967841059602649	0.0987549668874172	-0.183523178807947	-2.48662251655629	0.135364238410596	0.215099337748344				0.976953642384106	0.0797880794701987	0.0451390728476822	2.39390728476821	0.867814569536424	-2.26596026490066				0.917827814569536	-0.0332715231788079	-0.31194701986755	4.48741721854305	-3.21350993377483	-0.48026490066225				0.768529801324503	-0.0165298013245033	-0.565721854304636	-1.71708609271523	2.1435761589404	-4.25562913907285				0.980026490066225	0.0514966887417219	0.117933774834437	1.9117880794702	2.57192052980133	-2.29748344370861				0.831788079470199	-0.254834437086093	-0.468238410596026	4.22039735099338	0.997615894039735	-3.83470198675497			
