No	Time	12-AccX	12-AccY	12-AccZ	12-GyroX	12-GyroY	12-GyroZ	13-AccX	13-AccY	13-AccZ	13-GyroX	13-GyroY	13-GyroZ	14-AccX	14-AccY	14-AccZ	14-GyroX	14-GyroY	14-GyroZ	15-AccX	15-AccY	15-AccZ	15-GyroX	15-GyroY	15-GyroZ	16-AccX	16-AccY	16-AccZ	16-GyroX	16-GyroY	16-GyroZ	17-AccX	17-AccY	17-AccZ	17-GyroX	17-GyroY	17-GyroZ
0	100	0	0	0	0	0	0				0	0	0	0	0	0				0	0	0	0	0	0				0	0	0	0	0	0				0.948026490066225	0.147496688741722	0.229933774834437	-0.0482119205298018	0.331920529801325	0.222516556291392				0.479788079470199	-0.222834437086093	-0.804238410596027	-0.259602649006623	0.437615894039735	0.645298013245032			
1	120	-0.216158940397351	0.194754966887417	-0.935523178807947	0.0333774834437086	0.695364238410596	-0.904900662251656				0.944953642384106	0.111788079470199	0.381139072847682	1.27390728476821	-2.49218543046358	0.53403973509934				-0.266172185430464	-0.0652715231788079	-0.88794701986755	-0.552582781456954	0.146490066225167	-0.76026490066225				0.368529801324503	-0.0485298013245033	-0.901721854304636	0.802913907284768	1.0235761589404	0.224370860927152				0.932026490066225	0.163496688741722	0.229933774834437	-0.888211920529802	-0.228079470198675	-0.0574834437086077				0.463788079470199	-0.222834437086093	-0.820238410596026	0.0203973509933773	-0.962384105960265	0.645298013245032			
2	140	-0.216158940397351	0.194754966887417	-0.935523178807947	-1.08662251655629	0.135364238410596	-0.904900662251656				0.944953642384106	0.111788079470199	0.381139072847682	-0.126092715231788	-1.93218543046358	1.09403973509934				-0.266172185430464	-0.0652715231788079	-0.87194701986755	0.847417218543046	0.706490066225167	-0.76026490066225				0.368529801324503	-0.0485298013245033	-0.901721854304636	1.36291390728477	1.0235761589404	1.34437086092715				0.948026490066225	0.163496688741722	0.229933774834437	-1.7282119205298	-0.508079470198675	0.222516556291392				0.463788079470199	-0.222834437086093	-0.804238410596027	0.580397350993377	-0.962384105960265	0.0852980132450323			
3	160	-0.200158940397351	0.194754966887417	-0.919523178807947	0.0333774834437086	0.695364238410596	-0.904900662251656				0.928953642384106	0.111788079470199	0.365139072847682	0.433907284768212	-2.49218543046358	0.81403973509934				-0.266172185430464	-0.0652715231788079	-0.87194701986755	0.567417218543046	0.706490066225167	-0.48026490066225				0.368529801324503	-0.0645298013245033	-0.901721854304636	1.64291390728477	1.5835761589404	1.06437086092715				0.948026490066225	0.163496688741722	0.229933774834437	-1.1682119205298	0.0519205298013249	0.502516556291392				0.463788079470199	-0.222834437086093	-0.804238410596027	0.300397350993377	-0.122384105960265	1.20529801324503			
4	180	-0.200158940397351	0.178754966887417	-0.935523178807947	0.313377483443709	0.135364238410596	-1.74490066225166				0.928953642384106	0.0957880794701987	0.381139072847682	1.83390728476821	-3.05218543046358	0.53403973509934				-0.266172185430464	-0.0652715231788079	-0.88794701986755	0.287417218543046	-0.693509933774834	-0.20026490066225				0.368529801324503	-0.0645298013245033	-0.901721854304636	-0.0370860927152318	1.0235761589404	1.62437086092715				0.948026490066225	0.163496688741722	0.229933774834437	-0.608211920529802	0.331920529801325	0.782516556291392				0.463788079470199	-0.222834437086093	-0.804238410596027	-0.259602649006623	0.157615894039735	0.645298013245032			
5	200	-0.216158940397351	0.194754966887417	-0.919523178807947	0.313377483443709	0.415364238410596	-1.18490066225166				0.928953642384106	0.111788079470199	0.381139072847682	2.95390728476821	-3.61218543046358	0.53403973509934				-0.266172185430464	-0.0652715231788079	-0.88794701986755	0.847417218543046	0.426490066225167	0.0797350993377501				0.368529801324503	-0.0645298013245033	-0.901721854304636	1.36291390728477	1.0235761589404	2.46437086092715				0.932026490066225	0.163496688741722	0.229933774834437	-0.608211920529802	0.331920529801325	0.502516556291392				0.463788079470199	-0.222834437086093	-0.820238410596026	0.0203973509933773	-0.122384105960265	0.645298013245032			
6	220	-0.200158940397351	0.194754966887417	-0.935523178807947	-0.246622516556291	-0.424635761589404	-0.344900662251656				0.928953642384106	0.111788079470199	0.365139072847682	1.83390728476821	-2.49218543046358	0.53403973509934				-0.266172185430464	-0.0652715231788079	-0.85594701986755	0.847417218543046	0.426490066225167	0.0797350993377501				0.368529801324503	-0.0645298013245033	-0.885721854304636	1.08291390728477	-0.3764238410596	1.90437086092715				0.932026490066225	0.163496688741722	0.229933774834437	-0.328211920529802	0.611920529801325	0.222516556291392				0.463788079470199	-0.222834437086093	-0.804238410596027	1.98039735099338	-0.962384105960265	1.20529801324503			
7	240	-0.200158940397351	0.194754966887417	-0.919523178807947	-0.806622516556291	0.415364238410596	-0.624900662251656				0.928953642384106	0.111788079470199	0.365139072847682	0.993907284768212	-1.65218543046358	1.09403973509934				-0.250172185430464	-0.0492715231788079	-0.88794701986755	1.12741721854305	0.426490066225167	-0.20026490066225				0.384529801324503	-0.0485298013245033	-0.885721854304636	0.522913907284768	0.1835761589404	0.784370860927152				0.932026490066225	0.163496688741722	0.213933774834437	-0.328211920529802	-0.228079470198675	-0.0574834437086077				0.463788079470199	-0.222834437086093	-0.804238410596027	0.580397350993377	-0.402384105960265	0.0852980132450323			
8	260	-0.200158940397351	0.194754966887417	-0.935523178807947	-0.246622516556291	0.695364238410596	-1.46490066225166				0.928953642384106	0.111788079470199	0.381139072847682	1.27390728476821	-1.65218543046358	1.37403973509934				-0.266172185430464	-0.0652715231788079	-0.87194701986755	0.847417218543046	0.146490066225167	-0.76026490066225				0.368529801324503	-0.0645298013245033	-0.901721854304636	0.802913907284768	1.0235761589404	1.06437086092715				0.916026490066225	0.163496688741722	0.245933774834437	0.511788079470198	2.01192052980133	0.782516556291392				0.447788079470199	-0.222834437086093	-0.804238410596027	-0.259602649006623	-0.122384105960265	0.365298013245032			
9	280	-0.216158940397351	0.194754966887417	-0.935523178807947	0.313377483443709	0.415364238410596	-0.624900662251656				0.944953642384106	0.0957880794701987	0.381139072847682	2.11390728476821	-1.93218543046358	0.25403973509934				-0.266172185430464	-0.0652715231788079	-0.88794701986755	1.12741721854305	0.426490066225167	-0.76026490066225				0.368529801324503	-0.0645298013245033	-0.901721854304636	-0.317086092715232	0.7435761589404	0.504370860927152				0.948026490066225	0.147496688741722	0.213933774834437	-0.608211920529802	0.331920529801325	0.222516556291392				0.463788079470199	-0.222834437086093	-0.820238410596026	0.580397350993377	0.157615894039735	-1.03470198675497			
10	300	-0.200158940397351	0.194754966887417	-0.935523178807947	0.0333774834437086	0.695364238410596	-0.904900662251656				0.928953642384106	0.111788079470199	0.365139072847682	3.51390728476821	-2.49218543046358	-0.0259602649006601				-0.266172185430464	-0.0652715231788079	-0.87194701986755	0.567417218543046	0.426490066225167	0.0797350993377501				0.368529801324503	-0.0645298013245033	-0.885721854304636	0.802913907284768	1.3035761589404	1.06437086092715				0.948026490066225	0.163496688741722	0.229933774834437	-1.7282119205298	2.85192052980133	-0.337483443708608				0.463788079470199	-0.222834437086093	-0.804238410596027	1.70039735099338	-0.122384105960265	0.0852980132450323			
11	320	-0.200158940397351	0.194754966887417	-0.919523178807947	0.313377483443709	0.975364238410596	-0.624900662251656				0.912953642384106	0.111788079470199	0.333139072847682	2.67390728476821	-0.252185430463576	1.37403973509934				-0.266172185430464	-0.0492715231788079	-0.87194701986755	0.00741721854304636	0.706490066225167	-0.20026490066225				0.368529801324503	-0.0645298013245033	-0.901721854304636	2.76291390728477	2.1435761589404	0.784370860927152				0.932026490066225	0.163496688741722	0.245933774834437	-0.0482119205298018	1.45192052980132	-0.0574834437086077				0.463788079470199	-0.222834437086093	-0.804238410596027	1.14039735099338	-1.24238410596026	-0.754701986754968			
12	340	-0.200158940397351	0.194754966887417	-0.919523178807947	-0.246622516556291	0.135364238410596	-1.18490066225166				0.928953642384106	0.111788079470199	0.381139072847682	-0.686092715231788	1.70781456953642	1.65403973509934				-0.250172185430464	-0.0652715231788079	-0.88794701986755	0.567417218543046	0.706490066225167	0.0797350993377501				0.368529801324503	-0.0485298013245033	-0.901721854304636	2.20291390728477	2.9835761589404	0.784370860927152				0.948026490066225	0.179496688741722	0.229933774834437	-1.7282119205298	2.29192052980133	-0.337483443708608				0.447788079470199	-0.222834437086093	-0.804238410596027	1.98039735099338	-1.52238410596026	-1.31470198675497			
13	360	-0.200158940397351	0.178754966887417	-0.935523178807947	0.593377483443709	0.415364238410596	-1.18490066225166				0.944953642384106	0.111788079470199	0.397139072847682	1.55390728476821	-2.77218543046358	0.53403973509934				-0.250172185430464	-0.0652715231788079	-0.87194701986755	1.12741721854305	0.146490066225167	-0.20026490066225				0.384529801324503	-0.0645298013245033	-0.901721854304636	1.08291390728477	2.4235761589404	0.784370860927152				0.948026490066225	0.147496688741722	0.229933774834437	2.1917880794702	0.331920529801325	0.222516556291392				0.463788079470199	-0.222834437086093	-0.820238410596026	0.860397350993377	-0.402384105960265	-1.31470198675497			
14	380	-0.200158940397351	0.194754966887417	-0.935523178807947	0.873377483443709	0.135364238410596	-0.904900662251656				0.928953642384106	0.0957880794701987	0.365139072847682	2.95390728476821	-3.89218543046358	1.09403973509934				-0.250172185430464	-0.0652715231788079	-0.88794701986755	1.12741721854305	-0.133509933774833	-0.48026490066225				0.368529801324503	-0.0645298013245033	-0.885721854304636	-0.597086092715232	1.3035761589404	0.224370860927152				0.948026490066225	0.163496688741722	0.229933774834437	1.0717880794702	2.01192052980133	0.502516556291392				0.479788079470199	-0.222834437086093	-0.820238410596026	-0.819602649006623	0.157615894039735	0.0852980132450323			
15	400	-0.216158940397351	0.178754966887417	-0.935523178807947	0.0333774834437086	0.415364238410596	-0.904900662251656				0.928953642384106	0.0957880794701987	0.349139072847682	1.55390728476821	-0.252185430463576	0.53403973509934				-0.250172185430464	-0.0492715231788079	-0.88794701986755	0.567417218543046	0.426490066225167	0.0797350993377501				0.368529801324503	-0.0485298013245033	-0.885721854304636	0.802913907284768	1.5835761589404	0.504370860927152				0.948026490066225	0.163496688741722	0.229933774834437	-0.888211920529802	1.17192052980133	0.222516556291392				0.463788079470199	-0.222834437086093	-0.804238410596027	0.580397350993377	-0.402384105960265	0.365298013245032			
16	420	-0.216158940397351	0.178754966887417	-0.935523178807947	-0.246622516556291	0.135364238410596	-0.624900662251656				0.928953642384106	0.111788079470199	0.381139072847682	0.993907284768212	0.867814569536424	1.09403973509934				-0.266172185430464	-0.0492715231788079	-0.88794701986755	0.287417218543046	0.706490066225167	-0.20026490066225				0.384529801324503	-0.0645298013245033	-0.901721854304636	2.20291390728477	1.8635761589404	1.34437086092715				0.932026490066225	0.147496688741722	0.229933774834437	0.791788079470198	0.331920529801325	1.06251655629139				0.463788079470199	-0.222834437086093	-0.804238410596027	0.300397350993377	-0.962384105960265	1.76529801324503			
17	440	-0.216158940397351	0.194754966887417	-0.919523178807947	0.593377483443709	0.695364238410596	-1.18490066225166				0.944953642384106	0.111788079470199	0.381139072847682	1.55390728476821	-0.532185430463576	1.09403973509934				-0.266172185430464	-0.0492715231788079	-0.87194701986755	0.287417218543046	0.986490066225167	0.0797350993377501				0.384529801324503	-0.0805298013245033	-0.901721854304636	0.802913907284768	1.5835761589404	0.784370860927152				0.932026490066225	0.147496688741722	0.245933774834437	-0.328211920529802	1.17192052980133	0.502516556291392				0.463788079470199	-0.222834437086093	-0.804238410596027	0.860397350993377	-1.52238410596026	1.48529801324503			
18	460	-0.200158940397351	0.194754966887417	-0.919523178807947	0.873377483443709	0.695364238410596	-0.624900662251656				0.944953642384106	0.111788079470199	0.365139072847682	2.11390728476821	-3.05218543046358	1.09403973509934				-0.266172185430464	-0.0652715231788079	-0.88794701986755	0.287417218543046	0.986490066225167	-0.48026490066225				0.384529801324503	-0.0645298013245033	-0.885721854304636	-1.43708609271523	0.1835761589404	1.06437086092715				0.932026490066225	0.163496688741722	0.229933774834437	-0.888211920529802	1.73192052980133	-0.0574834437086077				0.463788079470199	-0.222834437086093	-0.788238410596027	0.0203973509933773	-0.122384105960265	2.04529801324503			
19	480	-0.200158940397351	0.194754966887417	-0.919523178807947	0.0333774834437086	0.415364238410596	-0.624900662251656				0.928953642384106	0.0957880794701987	0.349139072847682	2.95390728476821	-2.77218543046358	1.09403973509934				-0.266172185430464	-0.0652715231788079	-0.87194701986755	0.287417218543046	0.426490066225167	-0.20026490066225				0.384529801324503	-0.0485298013245033	-0.885721854304636	-1.71708609271523	-0.3764238410596	1.62437086092715				0.932026490066225	0.147496688741722	0.245933774834437	-1.4482119205298	1.45192052980132	-0.0574834437086077				0.463788079470199	-0.222834437086093	-0.788238410596027	0.0203973509933773	0.157615894039735	2.60529801324503			
20	500	-0.200158940397351	0.194754966887417	-0.919523178807947	-0.806622516556291	1.2553642384106	-0.904900662251656				0.912953642384106	0.111788079470199	0.365139072847682	1.83390728476821	-1.37218543046358	0.53403973509934				-0.250172185430464	-0.0492715231788079	-0.87194701986755	1.12741721854305	0.986490066225167	-0.20026490066225				0.384529801324503	-0.0485298013245033	-0.885721854304636	-0.877086092715232	-0.6564238410596	1.62437086092715				0.932026490066225	0.163496688741722	0.245933774834437	-1.4482119205298	0.891920529801325	-0.0574834437086077				0.463788079470199	-0.222834437086093	-0.788238410596027	0.0203973509933773	0.157615894039735	2.32529801324503			
21	520	-0.200158940397351	0.194754966887417	-0.935523178807947	-0.806622516556291	-0.144635761589404	-0.904900662251656				0.928953642384106	0.111788079470199	0.365139072847682	1.55390728476821	0.307814569536424	0.53403973509934				-0.250172185430464	-0.0652715231788079	-0.87194701986755	0.567417218543046	0.706490066225167	0.0797350993377501				0.400529801324503	-0.0645298013245033	-0.869721854304636	-0.597086092715232	0.1835761589404	2.18437086092715				0.932026490066225	0.163496688741722	0.245933774834437	-0.328211920529802	1.17192052980133	-0.337483443708608				0.447788079470199	-0.222834437086093	-0.804238410596027	0.860397350993377	-0.122384105960265	1.48529801324503			
22	540	-0.200158940397351	0.194754966887417	-0.919523178807947	-0.526622516556291	0.135364238410596	-0.624900662251656				0.928953642384106	0.111788079470199	0.365139072847682	0.713907284768212	0.587814569536424	-0.0259602649006601				-0.266172185430464	-0.0652715231788079	-0.87194701986755	0.847417218543046	0.146490066225167	-0.48026490066225				0.384529801324503	-0.0805298013245033	-0.885721854304636	-1.15708609271523	0.4635761589404	2.46437086092715				0.932026490066225	0.163496688741722	0.245933774834437	-1.1682119205298	0.331920529801325	-0.337483443708608				0.447788079470199	-0.238834437086093	-0.804238410596027	0.860397350993377	0.157615894039735	1.76529801324503			
23	560	-0.216158940397351	0.194754966887417	-0.935523178807947	0.0333774834437086	0.135364238410596	-1.46490066225166				0.928953642384106	0.111788079470199	0.381139072847682	0.433907284768212	2.54781456953642	0.53403973509934				-0.250172185430464	-0.0492715231788079	-0.87194701986755	0.287417218543046	0.146490066225167	-0.76026490066225				0.368529801324503	-0.0645298013245033	-0.885721854304636	-1.43708609271523	1.3035761589404	2.46437086092715				0.932026490066225	0.147496688741722	0.245933774834437	-2.5682119205298	1.73192052980133	0.502516556291392				0.463788079470199	-0.222834437086093	-0.804238410596027	-0.259602649006623	0.437615894039735	1.76529801324503			
24	580	-0.216158940397351	0.178754966887417	-0.935523178807947	-0.526622516556291	0.415364238410596	-0.904900662251656				0.944953642384106	0.111788079470199	0.381139072847682	0.993907284768212	1.70781456953642	1.09403973509934				-0.266172185430464	-0.0492715231788079	-0.88794701986755	0.287417218543046	0.146490066225167	0.0797350993377501				0.384529801324503	-0.0485298013245033	-0.885721854304636	-1.99708609271523	0.1835761589404	2.46437086092715				0.916026490066225	0.147496688741722	0.245933774834437	1.3517880794702	1.45192052980132	-0.0574834437086077				0.463788079470199	-0.222834437086093	-0.804238410596027	-0.539602649006623	1.55761589403974	1.76529801324503			
25	600	-0.200158940397351	0.194754966887417	-0.935523178807947	0.0333774834437086	0.135364238410596	-1.18490066225166				0.928953642384106	0.0957880794701987	0.365139072847682	1.55390728476821	0.0278145695364242	-0.0259602649006601				-0.266172185430464	-0.0492715231788079	-0.88794701986755	0.287417218543046	0.146490066225167	-0.20026490066225				0.384529801324503	-0.0645298013245033	-0.885721854304636	-1.71708609271523	-0.3764238410596	0.784370860927152				0.948026490066225	0.163496688741722	0.245933774834437	-1.1682119205298	1.45192052980132	-0.617483443708608				0.463788079470199	-0.222834437086093	-0.804238410596027	0.580397350993377	2.11761589403974	0.925298013245032			
26	620	-0.216158940397351	0.194754966887417	-0.919523178807947	-0.806622516556291	-0.144635761589404	-1.46490066225166				0.928953642384106	0.111788079470199	0.365139072847682	1.27390728476821	-1.09218543046358	-0.585960264900661				-0.266172185430464	-0.0652715231788079	-0.88794701986755	-0.272582781456954	-0.693509933774834	-0.76026490066225				0.384529801324503	-0.0645298013245033	-0.901721854304636	-1.71708609271523	0.7435761589404	1.62437086092715				0.948026490066225	0.163496688741722	0.229933774834437	-1.1682119205298	0.891920529801325	-0.337483443708608				0.463788079470199	-0.222834437086093	-0.820238410596026	1.70039735099338	1.83761589403974	0.365298013245032			
27	640	-0.200158940397351	0.194754966887417	-0.935523178807947	0.873377483443709	-0.144635761589404	-1.18490066225166				0.928953642384106	0.111788079470199	0.381139072847682	0.993907284768212	-1.37218543046358	-0.30596026490066				-0.266172185430464	-0.0652715231788079	-0.88794701986755	0.00741721854304636	-0.973509933774833	0.0797350993377501				0.384529801324503	-0.0645298013245033	-0.885721854304636	-1.15708609271523	-0.0964238410596001	1.34437086092715				0.948026490066225	0.163496688741722	0.245933774834437	-0.608211920529802	0.0519205298013249	-0.897483443708608				0.463788079470199	-0.222834437086093	-0.804238410596027	0.0203973509933773	1.27761589403974	-0.474701986754968			
28	660	-0.216158940397351	0.194754966887417	-0.935523178807947	-0.526622516556291	0.135364238410596	-0.904900662251656				0.944953642384106	0.111788079470199	0.349139072847682	0.153907284768212	0.587814569536424	-0.0259602649006601				-0.266172185430464	-0.0652715231788079	-0.87194701986755	0.287417218543046	0.426490066225167	-0.20026490066225				0.400529801324503	-0.0645298013245033	-0.901721854304636	-0.597086092715232	0.1835761589404	1.62437086092715				0.932026490066225	0.163496688741722	0.245933774834437	-0.608211920529802	-0.508079470198675	-0.337483443708608				0.463788079470199	-0.238834437086093	-0.804238410596027	-0.539602649006623	1.27761589403974	-0.194701986754968			
29	680	-0.216158940397351	0.178754966887417	-0.935523178807947	0.0333774834437086	0.135364238410596	-2.02490066225166				0.928953642384106	0.127788079470199	0.365139072847682	-0.406092715231788	1.14781456953642	-0.30596026490066				-0.266172185430464	-0.0492715231788079	-0.88794701986755	-0.272582781456954	0.426490066225167	-0.48026490066225				0.400529801324503	-0.0485298013245033	-0.885721854304636	-1.43708609271523	-0.0964238410596001	1.90437086092715				0.948026490066225	0.163496688741722	0.245933774834437	0.791788079470198	-0.508079470198675	-0.0574834437086077				0.463788079470199	-0.222834437086093	-0.804238410596027	-1.37960264900662	2.11761589403974	1.48529801324503			
30	700	-0.216158940397351	0.178754966887417	-0.919523178807947	-0.526622516556291	0.695364238410596	-0.904900662251656				0.944953642384106	0.111788079470199	0.365139072847682	0.713907284768212	0.0278145695364242	0.25403973509934				-0.266172185430464	-0.0652715231788079	-0.88794701986755	0.287417218543046	0.986490066225167	-0.48026490066225				0.384529801324503	-0.0485298013245033	-0.901721854304636	-1.15708609271523	-1.2164238410596	1.62437086092715				0.948026490066225	0.163496688741722	0.245933774834437	1.0717880794702	-1.34807947019868	-0.337483443708608				0.463788079470199	-0.238834437086093	-0.804238410596027	-1.93960264900662	1.27761589403974	0.645298013245032			
31	720	-0.200158940397351	0.194754966887417	-0.935523178807947	-0.526622516556291	0.135364238410596	-1.18490066225166				0.944953642384106	0.127788079470199	0.365139072847682	2.67390728476821	-1.37218543046358	0.81403973509934				-0.266172185430464	-0.0652715231788079	-0.88794701986755	0.287417218543046	0.426490066225167	0.0797350993377501				0.384529801324503	-0.0645298013245033	-0.901721854304636	-1.99708609271523	-2.3364238410596	2.18437086092715				0.932026490066225	0.163496688741722	0.245933774834437	0.511788079470198	-1.34807947019868	-0.617483443708608				0.463788079470199	-0.222834437086093	-0.804238410596027	-1.09960264900662	0.717615894039735	0.365298013245032			
32	740	-0.200158940397351	0.194754966887417	-0.935523178807947	-0.526622516556291	0.135364238410596	-0.344900662251656				0.928953642384106	0.111788079470199	0.365139072847682	2.67390728476821	-1.37218543046358	0.25403973509934				-0.266172185430464	-0.0492715231788079	-0.88794701986755	0.847417218543046	0.706490066225167	0.35973509933775				0.368529801324503	-0.0645298013245033	-0.885721854304636	-2.27708609271523	-1.7764238410596	1.06437086092715				0.932026490066225	0.163496688741722	0.245933774834437	0.511788079470198	-0.228079470198675	-0.337483443708608				0.463788079470199	-0.222834437086093	-0.804238410596027	-0.259602649006623	-0.402384105960265	0.0852980132450323			
33	760	-0.216158940397351	0.194754966887417	-0.919523178807947	0.0333774834437086	0.975364238410596	-1.18490066225166				0.944953642384106	0.111788079470199	0.365139072847682	2.11390728476821	-1.37218543046358	1.09403973509934				-0.266172185430464	-0.0492715231788079	-0.88794701986755	-0.552582781456954	0.146490066225167	0.0797350993377501				0.368529801324503	-0.0485298013245033	-0.901721854304636	-0.877086092715232	-1.2164238410596	1.34437086092715				0.932026490066225	0.147496688741722	0.229933774834437	1.0717880794702	-0.228079470198675	-0.897483443708608				0.463788079470199	-0.222834437086093	-0.820238410596026	-1.37960264900662	0.157615894039735	0.0852980132450323			
34	780	-0.200158940397351	0.178754966887417	-0.935523178807947	-0.246622516556291	0.415364238410596	-1.46490066225166				0.928953642384106	0.111788079470199	0.365139072847682	1.55390728476821	-0.532185430463576	0.53403973509934				-0.266172185430464	-0.0652715231788079	-0.88794701986755	0.00741721854304636	0.426490066225167	-0.76026490066225				0.368529801324503	-0.0485298013245033	-0.885721854304636	0.802913907284768	-0.3764238410596	0.784370860927152				0.932026490066225	0.163496688741722	0.229933774834437	0.511788079470198	-1.06807947019868	-0.897483443708608				0.463788079470199	-0.222834437086093	-0.804238410596027	-1.09960264900662	-0.122384105960265	0.0852980132450323			
35	800	-0.200158940397351	0.194754966887417	-0.935523178807947	-1.08662251655629	0.695364238410596	-1.18490066225166				0.928953642384106	0.111788079470199	0.349139072847682	0.153907284768212	0.307814569536424	0.25403973509934				-0.266172185430464	-0.0652715231788079	-0.87194701986755	0.00741721854304636	0.706490066225167	-0.20026490066225				0.384529801324503	-0.0485298013245033	-0.869721854304636	0.522913907284768	-0.0964238410596001	0.504370860927152				0.932026490066225	0.163496688741722	0.229933774834437	0.511788079470198	-0.508079470198675	-0.617483443708608				0.463788079470199	-0.222834437086093	-0.804238410596027	-0.819602649006623	0.437615894039735	-0.754701986754968			
36	820	-0.200158940397351	0.194754966887417	-0.935523178807947	-1.36662251655629	0.695364238410596	-1.18490066225166				0.928953642384106	0.111788079470199	0.365139072847682	-0.126092715231788	0.307814569536424	-0.585960264900661				-0.266172185430464	-0.0492715231788079	-0.87194701986755	-0.272582781456954	0.426490066225167	-0.20026490066225				0.384529801324503	-0.0645298013245033	-0.885721854304636	-0.0370860927152318	-0.3764238410596	0.504370860927152				0.932026490066225	0.163496688741722	0.245933774834437	0.791788079470198	-1.34807947019868	-0.337483443708608				0.463788079470199	-0.222834437086093	-0.772238410596026	-1.09960264900662	-0.122384105960265	0.0852980132450323			
37	840	-0.200158940397351	0.194754966887417	-0.919523178807947	-0.526622516556291	0.135364238410596	-1.18490066225166				0.928953642384106	0.111788079470199	0.381139072847682	-0.686092715231788	-0.532185430463576	-0.30596026490066				-0.250172185430464	-0.0492715231788079	-0.87194701986755	-0.272582781456954	-0.413509933774833	0.0797350993377501				0.384529801324503	-0.0485298013245033	-0.885721854304636	1.36291390728477	-0.3764238410596	1.06437086092715				0.932026490066225	0.163496688741722	0.261933774834437	1.9117880794702	1.73192052980133	-0.337483443708608				0.447788079470199	-0.222834437086093	-0.804238410596027	-0.259602649006623	-0.122384105960265	-0.754701986754968			
38	860	-0.184158940397351	0.194754966887417	-0.919523178807947	-1.08662251655629	-0.144635761589404	-0.904900662251656				0.928953642384106	0.111788079470199	0.381139072847682	0.713907284768212	-1.37218543046358	-1.14596026490066				-0.250172185430464	-0.0492715231788079	-0.87194701986755	0.287417218543046	0.146490066225167	0.35973509933775				0.384529801324503	-0.0485298013245033	-0.885721854304636	0.522913907284768	-0.0964238410596001	-0.0556291390728476				0.932026490066225	0.163496688741722	0.213933774834437	0.511788079470198	-1.62807947019868	0.222516556291392				0.463788079470199	-0.222834437086093	-0.804238410596027	-0.819602649006623	0.717615894039735	-1.31470198675497			
39	880	-0.200158940397351	0.194754966887417	-0.935523178807947	0.593377483443709	0.695364238410596	-1.18490066225166				0.928953642384106	0.111788079470199	0.349139072847682	1.83390728476821	-1.65218543046358	-0.0259602649006601				-0.266172185430464	-0.0652715231788079	-0.88794701986755	-0.272582781456954	-0.413509933774833	0.0797350993377501				0.384529801324503	-0.0645298013245033	-0.901721854304636	-0.0370860927152318	-0.3764238410596	-0.615629139072848				0.932026490066225	0.163496688741722	0.245933774834437	0.231788079470198	0.891920529801325	-1.73748344370861				0.463788079470199	-0.222834437086093	-0.788238410596027	0.300397350993377	-0.122384105960265	-1.59470198675497			
40	900	-0.200158940397351	0.178754966887417	-0.919523178807947	-0.526622516556291	0.415364238410596	-0.624900662251656				0.928953642384106	0.111788079470199	0.349139072847682	0.433907284768212	0.587814569536424	0.81403973509934				-0.250172185430464	-0.0652715231788079	-0.88794701986755	0.287417218543046	-0.133509933774833	-0.20026490066225				0.368529801324503	-0.0485298013245033	-0.885721854304636	0.522913907284768	-0.0964238410596001	-0.615629139072848				0.900026490066225	0.163496688741722	0.245933774834437	-0.888211920529802	0.0519205298013249	-1.73748344370861				0.447788079470199	-0.222834437086093	-0.804238410596027	-0.819602649006623	-0.122384105960265	-2.15470198675497			
41	920	-0.216158940397351	0.194754966887417	-0.935523178807947	-1.92662251655629	0.135364238410596	-1.46490066225166				0.944953642384106	0.111788079470199	0.381139072847682	-1.80609271523179	1.70781456953642	0.25403973509934				-0.266172185430464	-0.0652715231788079	-0.87194701986755	0.567417218543046	-0.133509933774833	-0.20026490066225				0.368529801324503	-0.0485298013245033	-0.901721854304636	-0.597086092715232	-1.4964238410596	-0.895629139072848				0.948026490066225	0.163496688741722	0.229933774834437	-0.0482119205298018	0.891920529801325	-1.17748344370861				0.463788079470199	-0.222834437086093	-0.804238410596027	-4.73960264900662	0.717615894039735	-2.71470198675497			
42	940	-0.216158940397351	0.210754966887417	-0.919523178807947	-1.92662251655629	0.415364238410596	-0.904900662251656				0.944953642384106	0.111788079470199	0.381139072847682	-0.686092715231788	-0.812185430463576	-1.42596026490066				0	0	0	0	0	0				0.400529801324503	-0.0485298013245033	-0.885721854304636	-1.15708609271523	-0.3764238410596	-1.17562913907285				0	0	0	0	0	0				0	0	0	0	0	0			
43	1060	-0.200158940397351	0.178754966887417	-0.919523178807947	0.0333774834437086	0.415364238410596	-1.46490066225166				0.928953642384106	0.111788079470199	0.365139072847682	-1.24609271523179	1.70781456953642	-0.585960264900661				-0.266172185430464	-0.0652715231788079	-0.87194701986755	0.567417218543046	0.426490066225167	-0.76026490066225				0	0	0	0	0	0				0.932026490066225	0.163496688741722	0.229933774834437	1.3517880794702	-1.06807947019868	-0.617483443708608				0.479788079470199	-0.206834437086093	-0.804238410596027	-0.819602649006623	-0.682384105960265	-1.87470198675497			
44	1080	-0.200158940397351	0.194754966887417	-0.935523178807947	-0.246622516556291	0.695364238410596	-1.18490066225166				0.928953642384106	0.111788079470199	0.365139072847682	-1.80609271523179	3.94781456953642	-0.0259602649006601				-0.266172185430464	-0.0492715231788079	-0.87194701986755	0.567417218543046	0.426490066225167	0.0797350993377501				0.384529801324503	-0.0485298013245033	-0.885721854304636	2.20291390728477	-0.6564238410596	-2.01562913907285				0.932026490066225	0.179496688741722	0.245933774834437	0.791788079470198	-2.18807947019868	-0.0574834437086077				0.463788079470199	-0.206834437086093	-0.804238410596027	0.300397350993377	-0.402384105960265	-1.03470198675497			
45	1100	-0.200158940397351	0.178754966887417	-0.919523178807947	-0.246622516556291	0.135364238410596	-0.624900662251656				0.928953642384106	0.111788079470199	0.365139072847682	-2.92609271523179	5.06781456953642	-0.30596026490066				-0.266172185430464	-0.0492715231788079	-0.87194701986755	0.287417218543046	-0.133509933774833	-0.48026490066225				0.368529801324503	-0.0485298013245033	-0.885721854304636	0.802913907284768	0.4635761589404	-1.17562913907285				0.932026490066225	0.163496688741722	0.229933774834437	1.0717880794702	-1.90807947019868	-0.337483443708608				0.463788079470199	-0.206834437086093	-0.804238410596027	-0.259602649006623	-0.682384105960265	-2.15470198675497			
46	1120	-0.216158940397351	0.178754966887417	-0.919523178807947	-0.526622516556291	0.415364238410596	-0.624900662251656				0.928953642384106	0.111788079470199	0.381139072847682	-2.64609271523179	4.78781456953642	-0.86596026490066				-0.266172185430464	-0.0492715231788079	-0.87194701986755	-0.272582781456954	-0.413509933774833	-0.76026490066225				0.368529801324503	-0.0485298013245033	-0.901721854304636	2.48291390728477	-0.6564238410596	-1.17562913907285				0.916026490066225	0.179496688741722	0.261933774834437	-0.328211920529802	-1.34807947019868	0.222516556291392				0.463788079470199	-0.206834437086093	-0.804238410596027	0.300397350993377	-1.24238410596026	-2.71470198675497			
47	1140	-0.200158940397351	0.194754966887417	-0.903523178807947	-1.08662251655629	0.135364238410596	-0.624900662251656				0.944953642384106	0.111788079470199	0.381139072847682	-2.36609271523179	5.62781456953642	-0.86596026490066				-0.266172185430464	-0.0652715231788079	-0.88794701986755	0.287417218543046	0.146490066225167	-0.20026490066225				0.368529801324503	-0.0485298013245033	-0.901721854304636	1.36291390728477	-0.6564238410596	-1.17562913907285				0.948026490066225	0.163496688741722	0.245933774834437	-0.608211920529802	-0.788079470198675	-0.0574834437086077				0.463788079470199	-0.206834437086093	-0.804238410596027	-0.259602649006623	-0.682384105960265	-2.15470198675497			
48	1160	-0.200158940397351	0.194754966887417	-0.919523178807947	0.593377483443709	-0.144635761589404	-0.344900662251656				0.928953642384106	0.127788079470199	0.381139072847682	-2.92609271523179	3.66781456953642	-0.585960264900661				-0.266172185430464	-0.0492715231788079	-0.88794701986755	0.287417218543046	-0.413509933774833	-0.20026490066225				0.368529801324503	-0.0485298013245033	-0.885721854304636	1.08291390728477	-0.0964238410596001	-0.895629139072848				0.932026490066225	0.179496688741722	0.245933774834437	1.6317880794702	-1.06807947019868	0.502516556291392				0.479788079470199	-0.222834437086093	-0.804238410596027	0.580397350993377	-0.962384105960265	-2.71470198675497			
49	1180	-0.200158940397351	0.194754966887417	-0.935523178807947	-0.246622516556291	0.135364238410596	-0.904900662251656				0.928953642384106	0.127788079470199	0.381139072847682	-2.92609271523179	3.66781456953642	-1.14596026490066				-0.250172185430464	-0.0492715231788079	-0.88794701986755	0.847417218543046	-0.413509933774833	-0.48026490066225				0.368529801324503	-0.0325298013245033	-0.885721854304636	1.08291390728477	-1.2164238410596	-0.335629139072848				0.948026490066225	0.179496688741722	0.229933774834437	-0.888211920529802	-1.06807947019868	0.222516556291392				0.479788079470199	-0.222834437086093	-0.820238410596026	0.300397350993377	-0.962384105960265	-4.11470198675497			
50	1200	-0.216158940397351	0.194754966887417	-0.919523178807947	-0.806622516556291	0.415364238410596	-0.904900662251656				0.944953642384106	0.111788079470199	0.381139072847682	-2.08609271523179	2.54781456953642	-0.86596026490066				-0.266172185430464	-0.0652715231788079	-0.88794701986755	0.00741721854304636	-0.693509933774834	-0.20026490066225				0.384529801324503	-0.0485298013245033	-0.885721854304636	1.64291390728477	-0.3764238410596	-0.0556291390728476				0.948026490066225	0.179496688741722	0.229933774834437	-0.608211920529802	-1.62807947019868	-0.0574834437086077				0.463788079470199	-0.222834437086093	-0.804238410596027	1.14039735099338	-1.52238410596026	-2.99470198675497			
51	1220	-0.200158940397351	0.194754966887417	-0.935523178807947	-0.246622516556291	0.135364238410596	-0.624900662251656				0.928953642384106	0.111788079470199	0.381139072847682	-1.24609271523179	3.10781456953642	-0.0259602649006601				-0.266172185430464	-0.0492715231788079	-0.88794701986755	0.567417218543046	0.426490066225167	0.0797350993377501				0.384529801324503	-0.0485298013245033	-0.901721854304636	1.36291390728477	-0.0964238410596001	-0.335629139072848				0.948026490066225	0.179496688741722	0.229933774834437	-0.328211920529802	-2.18807947019868	0.502516556291392				0.479788079470199	-0.222834437086093	-0.804238410596027	-0.819602649006623	-0.122384105960265	-2.43470198675497			
52	1240	-0.200158940397351	0.194754966887417	-0.919523178807947	0.0333774834437086	0.135364238410596	-1.74490066225166				0.928953642384106	0.111788079470199	0.381139072847682	-1.80609271523179	3.94781456953642	-0.30596026490066				-0.266172185430464	-0.0652715231788079	-0.87194701986755	0.847417218543046	0.426490066225167	-0.48026490066225				0.384529801324503	-0.0645298013245033	-0.901721854304636	2.20291390728477	1.3035761589404	-0.895629139072848				0.948026490066225	0.179496688741722	0.229933774834437	-0.608211920529802	-2.18807947019868	0.502516556291392				0.463788079470199	-0.222834437086093	-0.820238410596026	-0.819602649006623	0.157615894039735	-0.754701986754968			
53	1260	-0.200158940397351	0.178754966887417	-0.935523178807947	-0.246622516556291	0.695364238410596	-0.624900662251656				0.928953642384106	0.127788079470199	0.397139072847682	-1.52609271523179	2.82781456953642	0.25403973509934				-0.266172185430464	-0.0652715231788079	-0.88794701986755	0.287417218543046	0.146490066225167	-0.20026490066225				0.384529801324503	-0.0645298013245033	-0.901721854304636	2.20291390728477	1.5835761589404	-0.335629139072848				0.948026490066225	0.179496688741722	0.229933774834437	-0.328211920529802	-2.18807947019868	1.62251655629139				0.479788079470199	-0.222834437086093	-0.804238410596027	-1.37960264900662	-0.122384105960265	-0.474701986754968			
54	1280	-0.216158940397351	0.194754966887417	-0.935523178807947	0.873377483443709	0.135364238410596	-1.18490066225166				0.928953642384106	0.111788079470199	0.397139072847682	-0.406092715231788	0.587814569536424	0.53403973509934				-0.266172185430464	-0.0492715231788079	-0.88794701986755	0.847417218543046	0.146490066225167	0.0797350993377501				0.384529801324503	-0.0485298013245033	-0.885721854304636	2.20291390728477	0.7435761589404	0.504370860927152				0.948026490066225	0.163496688741722	0.229933774834437	0.231788079470198	-2.18807947019868	0.782516556291392				0.463788079470199	-0.206834437086093	-0.820238410596026	-0.819602649006623	-0.682384105960265	0.0852980132450323			
55	1300	-0.200158940397351	0.194754966887417	-0.935523178807947	1.15337748344371	0.415364238410596	-0.344900662251656				0.928953642384106	0.111788079470199	0.381139072847682	-0.126092715231788	1.14781456953642	-0.0259602649006601				-0.266172185430464	-0.0652715231788079	-0.88794701986755	0.567417218543046	0.426490066225167	-0.20026490066225				0.368529801324503	-0.0485298013245033	-0.901721854304636	2.20291390728477	-0.0964238410596001	0.504370860927152				0.932026490066225	0.179496688741722	0.213933774834437	-0.328211920529802	-3.58807947019868	0.502516556291392				0.479788079470199	-0.206834437086093	-0.804238410596027	-1.09960264900662	-0.682384105960265	-0.754701986754968			
56	1320	-0.200158940397351	0.194754966887417	-0.935523178807947	-0.246622516556291	0.415364238410596	-0.624900662251656				0.928953642384106	0.111788079470199	0.365139072847682	-1.52609271523179	3.10781456953642	0.53403973509934				-0.250172185430464	-0.0652715231788079	-0.88794701986755	0.847417218543046	0.426490066225167	-0.48026490066225				0.368529801324503	-0.0485298013245033	-0.885721854304636	2.20291390728477	-0.0964238410596001	-0.615629139072848				0.932026490066225	0.163496688741722	0.213933774834437	-1.1682119205298	-3.02807947019868	0.502516556291392				0.463788079470199	-0.190834437086093	-0.804238410596027	0.0203973509933773	-0.402384105960265	-1.31470198675497			
57	1340	-0.200158940397351	0.178754966887417	-0.919523178807947	1.15337748344371	0.135364238410596	-0.904900662251656				0.912953642384106	0.111788079470199	0.397139072847682	-2.36609271523179	3.94781456953642	0.25403973509934				-0.250172185430464	-0.0652715231788079	-0.87194701986755	1.40741721854305	0.706490066225167	-0.20026490066225				0.368529801324503	-0.0645298013245033	-0.885721854304636	1.92291390728477	-0.3764238410596	-0.615629139072848				0.932026490066225	0.179496688741722	0.229933774834437	0.231788079470198	-1.62807947019868	0.502516556291392				0.463788079470199	-0.206834437086093	-0.804238410596027	0.0203973509933773	0.157615894039735	-2.43470198675497			
58	1360	-0.200158940397351	0.178754966887417	-0.919523178807947	0.313377483443709	0.415364238410596	-0.904900662251656				0.928953642384106	0.111788079470199	0.397139072847682	-1.80609271523179	3.10781456953642	-0.0259602649006601				-0.250172185430464	-0.0652715231788079	-0.88794701986755	0.567417218543046	-0.413509933774833	0.0797350993377501				0.368529801324503	-0.0485298013245033	-0.885721854304636	1.92291390728477	0.1835761589404	-0.335629139072848				0.932026490066225	0.179496688741722	0.229933774834437	0.791788079470198	-1.34807947019868	-0.337483443708608				0.447788079470199	-0.206834437086093	-0.804238410596027	0.0203973509933773	0.157615894039735	-2.43470198675497			
59	1380	-0.200158940397351	0.194754966887417	-0.935523178807947	-0.246622516556291	0.135364238410596	-1.46490066225166				0.928953642384106	0.127788079470199	0.397139072847682	-0.966092715231788	3.10781456953642	0.81403973509934				-0.266172185430464	-0.0652715231788079	-0.88794701986755	-0.272582781456954	0.146490066225167	-0.48026490066225				0.368529801324503	-0.0485298013245033	-0.885721854304636	-0.0370860927152318	-0.6564238410596	-0.335629139072848				0.948026490066225	0.163496688741722	0.229933774834437	1.0717880794702	-0.788079470198675	0.782516556291392				0.463788079470199	-0.206834437086093	-0.788238410596027	-0.539602649006623	0.157615894039735	-2.15470198675497			
60	1400	-0.200158940397351	0.194754966887417	-0.935523178807947	0.873377483443709	0.415364238410596	-0.344900662251656				0.928953642384106	0.111788079470199	0.397139072847682	-2.08609271523179	3.66781456953642	0.53403973509934				-0.266172185430464	-0.0652715231788079	-0.88794701986755	0.567417218543046	0.146490066225167	-0.20026490066225				0.384529801324503	-0.0645298013245033	-0.901721854304636	0.802913907284768	-1.2164238410596	-0.0556291390728476				0.948026490066225	0.163496688741722	0.213933774834437	1.0717880794702	-1.34807947019868	0.502516556291392				0.479788079470199	-0.206834437086093	-0.804238410596027	0.580397350993377	0.157615894039735	-2.43470198675497			
61	1420	-0.200158940397351	0.194754966887417	-0.935523178807947	0.0333774834437086	-0.424635761589404	-1.18490066225166				0.928953642384106	0.111788079470199	0.397139072847682	-2.36609271523179	3.66781456953642	1.09403973509934				-0.266172185430464	-0.0652715231788079	-0.87194701986755	0.847417218543046	0.146490066225167	-0.20026490066225				0.384529801324503	-0.0485298013245033	-0.885721854304636	0.802913907284768	-0.3764238410596	-0.0556291390728476				0.932026490066225	0.163496688741722	0.229933774834437	1.6317880794702	-2.18807947019868	1.34251655629139				0.479788079470199	-0.222834437086093	-0.804238410596027	1.14039735099338	-0.122384105960265	-2.71470198675497			
62	1440	-0.200158940397351	0.194754966887417	-0.935523178807947	0.593377483443709	-0.144635761589404	-1.46490066225166				0.928953642384106	0.111788079470199	0.397139072847682	-2.08609271523179	3.66781456953642	0.81403973509934				-0.250172185430464	-0.0652715231788079	-0.88794701986755	0.567417218543046	-0.413509933774833	0.0797350993377501				0.368529801324503	-0.0645298013245033	-0.885721854304636	-0.0370860927152318	-0.3764238410596	-1.17562913907285				0.948026490066225	0.163496688741722	0.229933774834437	-0.608211920529802	-0.788079470198675	1.06251655629139				0.463788079470199	-0.222834437086093	-0.804238410596027	0.860397350993377	0.157615894039735	-2.71470198675497			
63	1460	-0.216158940397351	0.194754966887417	-0.919523178807947	1.15337748344371	0.415364238410596	-0.624900662251656				0.912953642384106	0.127788079470199	0.397139072847682	-0.126092715231788	2.82781456953642	0.81403973509934				-0.266172185430464	-0.0652715231788079	-0.87194701986755	0.287417218543046	-0.413509933774833	-0.20026490066225				0.368529801324503	-0.0645298013245033	-0.885721854304636	0.802913907284768	-0.0964238410596001	-1.45562913907285				0.932026490066225	0.163496688741722	0.229933774834437	-0.328211920529802	0.0519205298013249	0.502516556291392				0.463788079470199	-0.206834437086093	-0.820238410596026	-0.539602649006623	0.997615894039735	-1.03470198675497			
64	1480	-0.200158940397351	0.194754966887417	-0.919523178807947	0.313377483443709	0.135364238410596	-1.18490066225166				0.928953642384106	0.111788079470199	0.397139072847682	-0.406092715231788	4.22781456953642	0.81403973509934				-0.266172185430464	-0.0652715231788079	-0.87194701986755	0.287417218543046	0.146490066225167	0.0797350993377501				0.368529801324503	-0.0485298013245033	-0.885721854304636	1.92291390728477	-0.9364238410596	-1.73562913907285				0.932026490066225	0.163496688741722	0.229933774834437	-0.608211920529802	-1.34807947019868	-0.0574834437086077				0.479788079470199	-0.206834437086093	-0.804238410596027	0.300397350993377	-0.962384105960265	-1.59470198675497			
65	1500	-0.200158940397351	0.194754966887417	-0.935523178807947	0.873377483443709	0.695364238410596	-1.18490066225166				0.928953642384106	0.111788079470199	0.413139072847682	-2.92609271523179	4.22781456953642	1.37403973509934				-0.250172185430464	-0.0652715231788079	-0.87194701986755	0.287417218543046	0.426490066225167	0.35973509933775				0.368529801324503	-0.0485298013245033	-0.885721854304636	-0.0370860927152318	-0.3764238410596	-1.45562913907285				0.932026490066225	0.163496688741722	0.229933774834437	-1.4482119205298	0.0519205298013249	0.222516556291392				0.463788079470199	-0.206834437086093	-0.804238410596027	1.98039735099338	-0.962384105960265	-1.31470198675497			
66	1520	-0.200158940397351	0.194754966887417	-0.935523178807947	0.593377483443709	0.135364238410596	-1.18490066225166				0.928953642384106	0.111788079470199	0.413139072847682	-1.80609271523179	2.54781456953642	0.81403973509934				-0.266172185430464	-0.0652715231788079	-0.87194701986755	0.287417218543046	-0.133509933774833	-0.48026490066225				0.384529801324503	-0.0805298013245033	-0.885721854304636	1.36291390728477	-0.6564238410596	-0.895629139072848				0.948026490066225	0.163496688741722	0.245933774834437	1.3517880794702	-0.508079470198675	1.62251655629139				0.479788079470199	-0.222834437086093	-0.820238410596026	0.580397350993377	-0.402384105960265	-1.03470198675497			
67	1540	-0.200158940397351	0.194754966887417	-0.935523178807947	0.0333774834437086	0.135364238410596	-0.904900662251656				0.928953642384106	0.111788079470199	0.397139072847682	-0.686092715231788	1.70781456953642	0.25403973509934				-0.266172185430464	-0.0652715231788079	-0.88794701986755	0.287417218543046	-0.413509933774833	-0.76026490066225				0.384529801324503	-0.0485298013245033	-0.869721854304636	1.36291390728477	0.7435761589404	-0.615629139072848				0.948026490066225	0.163496688741722	0.229933774834437	-0.0482119205298018	0.0519205298013249	1.34251655629139				0.479788079470199	-0.222834437086093	-0.804238410596027	0.580397350993377	0.157615894039735	-1.03470198675497			
68	1560	-0.200158940397351	0.194754966887417	-0.935523178807947	0.313377483443709	-0.144635761589404	-1.18490066225166				0.928953642384106	0.111788079470199	0.397139072847682	-1.80609271523179	3.38781456953642	0.53403973509934				-0.266172185430464	-0.0652715231788079	-0.88794701986755	0.847417218543046	0.426490066225167	0.0797350993377501				0.384529801324503	-0.0645298013245033	-0.885721854304636	2.20291390728477	1.5835761589404	0.504370860927152				0.948026490066225	0.179496688741722	0.229933774834437	-1.1682119205298	-1.34807947019868	1.06251655629139				0.479788079470199	-0.206834437086093	-0.804238410596027	0.300397350993377	0.437615894039735	-0.754701986754968			
69	1580	-0.200158940397351	0.194754966887417	-0.919523178807947	0.313377483443709	0.415364238410596	-1.46490066225166				0.928953642384106	0.111788079470199	0.413139072847682	-0.966092715231788	2.26781456953642	1.37403973509934				-0.250172185430464	-0.0652715231788079	-0.87194701986755	0.00741721854304636	0.986490066225167	-1.04026490066225				0.384529801324503	-0.0645298013245033	-0.901721854304636	4.16291390728477	1.5835761589404	0.784370860927152				0.932026490066225	0.163496688741722	0.229933774834437	0.511788079470198	-0.228079470198675	1.62251655629139				0.463788079470199	-0.206834437086093	-0.804238410596027	0.300397350993377	-0.962384105960265	0.365298013245032			
70	1600	-0.200158940397351	0.194754966887417	-0.919523178807947	0.0333774834437086	0.415364238410596	-1.18490066225166				0.928953642384106	0.111788079470199	0.413139072847682	-0.686092715231788	1.98781456953642	0.81403973509934				-0.266172185430464	-0.0652715231788079	-0.87194701986755	0.567417218543046	0.426490066225167	-0.76026490066225				0.384529801324503	-0.0645298013245033	-0.885721854304636	2.76291390728477	0.7435761589404	0.504370860927152				0.932026490066225	0.163496688741722	0.229933774834437	-0.328211920529802	-0.228079470198675	1.06251655629139				0.479788079470199	-0.222834437086093	-0.820238410596026	0.580397350993377	-1.52238410596026	0.925298013245032			
71	1620	-0.200158940397351	0.194754966887417	-0.919523178807947	0.593377483443709	-0.144635761589404	-1.18490066225166				0.928953642384106	0.0957880794701987	0.413139072847682	-0.686092715231788	-0.532185430463576	1.09403973509934				-0.250172185430464	-0.0652715231788079	-0.88794701986755	-0.272582781456954	-0.413509933774833	0.0797350993377501				0.368529801324503	-0.0645298013245033	-0.885721854304636	1.08291390728477	-0.0964238410596001	-0.0556291390728476				0.932026490066225	0.163496688741722	0.245933774834437	-1.4482119205298	-0.508079470198675	1.34251655629139				0.463788079470199	-0.222834437086093	-0.788238410596027	0.300397350993377	-1.52238410596026	1.48529801324503			
72	1640	-0.216158940397351	0.194754966887417	-0.919523178807947	-0.246622516556291	-0.144635761589404	-1.18490066225166				0.928953642384106	0.111788079470199	0.397139072847682	-1.52609271523179	-1.93218543046358	0.25403973509934				-0.266172185430464	-0.0652715231788079	-0.88794701986755	1.12741721854305	0.986490066225167	-0.20026490066225				0.368529801324503	-0.0645298013245033	-0.885721854304636	1.36291390728477	-0.6564238410596	0.224370860927152				0.932026490066225	0.147496688741722	0.229933774834437	-1.7282119205298	-0.508079470198675	0.782516556291392				0.463788079470199	-0.222834437086093	-0.804238410596027	0.860397350993377	-1.24238410596026	1.76529801324503			
73	1660	-0.200158940397351	0.178754966887417	-0.935523178807947	-0.246622516556291	0.695364238410596	-0.904900662251656				0.928953642384106	0.111788079470199	0.397139072847682	-0.406092715231788	-2.21218543046358	-0.0259602649006601				-0.266172185430464	-0.0652715231788079	-0.87194701986755	0.567417218543046	0.146490066225167	0.35973509933775				0.368529801324503	-0.0645298013245033	-0.885721854304636	1.36291390728477	0.7435761589404	0.224370860927152				0.948026490066225	0.163496688741722	0.229933774834437	-3.1282119205298	-1.62807947019868	0.782516556291392				0.463788079470199	-0.222834437086093	-0.788238410596027	0.860397350993377	-0.682384105960265	1.48529801324503			
74	1680	-0.200158940397351	0.178754966887417	-0.935523178807947	0.593377483443709	0.695364238410596	-0.904900662251656				0.928953642384106	0.111788079470199	0.413139072847682	0.153907284768212	0.0278145695364242	0.53403973509934				-0.250172185430464	-0.0652715231788079	-0.88794701986755	-0.272582781456954	-0.693509933774834	0.0797350993377501				0.368529801324503	-0.0805298013245033	-0.885721854304636	3.04291390728477	2.1435761589404	2.46437086092715				0.948026490066225	0.179496688741722	0.245933774834437	-3.9682119205298	0.331920529801325	1.62251655629139				0.463788079470199	-0.222834437086093	-0.820238410596026	1.42039735099338	-1.24238410596026	1.48529801324503			
75	1700	-0.200158940397351	0.194754966887417	-0.935523178807947	0.313377483443709	0.975364238410596	-0.624900662251656				0.912953642384106	0.111788079470199	0.413139072847682	0.433907284768212	0.587814569536424	-0.30596026490066				-0.266172185430464	-0.0492715231788079	-0.88794701986755	1.12741721854305	0.146490066225167	0.0797350993377501				0.368529801324503	-0.0805298013245033	-0.885721854304636	4.44291390728477	2.4235761589404	3.30437086092715				0.932026490066225	0.163496688741722	0.213933774834437	-3.1282119205298	0.0519205298013249	2.18251655629139				0.463788079470199	-0.222834437086093	-0.836238410596026	0.860397350993377	-0.962384105960265	2.60529801324503			
76	1720	-0.184158940397351	0.210754966887417	-0.919523178807947	-0.246622516556291	0.415364238410596	-0.344900662251656				0.928953642384106	0.111788079470199	0.397139072847682	0.713907284768212	2.54781456953642	0.81403973509934				-0.250172185430464	-0.0652715231788079	-0.87194701986755	0.847417218543046	0.426490066225167	0.0797350993377501				0.384529801324503	-0.0805298013245033	-0.885721854304636	13.4029139072848	-4.8564238410596	2.46437086092715				0.932026490066225	0.179496688741722	0.229933774834437	-4.8082119205298	2.85192052980133	0.782516556291392				0.447788079470199	-0.222834437086093	-0.820238410596026	4.22039735099338	-2.36238410596027	4.56529801324503			
77	1740	-0.200158940397351	0.194754966887417	-0.935523178807947	0.593377483443709	-0.144635761589404	-1.46490066225166				0.912953642384106	0.127788079470199	0.413139072847682	1.83390728476821	1.42781456953642	0.53403973509934				-0.266172185430464	-0.0492715231788079	-0.87194701986755	-0.272582781456954	-0.413509933774833	-0.48026490066225				0.368529801324503	-0.0645298013245033	-0.917721854304636	5.56291390728477	-4.5764238410596	1.06437086092715				0.932026490066225	0.163496688741722	0.213933774834437	-3.4082119205298	1.17192052980133	1.34251655629139				0.463788079470199	-0.222834437086093	-0.820238410596026	2.26039735099338	-2.36238410596027	6.24529801324503			
78	1760	-0.184158940397351	0.194754966887417	-0.935523178807947	-0.246622516556291	-0.144635761589404	-1.46490066225166				0.896953642384106	0.111788079470199	0.397139072847682	3.79390728476821	3.38781456953642	3.33403973509934				-0.250172185430464	-0.0652715231788079	-0.87194701986755	0.00741721854304636	-0.133509933774833	-1.04026490066225				0.384529801324503	-0.0805298013245033	-0.885721854304636	10.6029139072848	-11.2964238410596	-1.17562913907285				0.932026490066225	0.163496688741722	0.213933774834437	-3.6882119205298	4.25192052980133	1.34251655629139				0.463788079470199	-0.254834437086093	-0.820238410596026	1.70039735099338	-7.68238410596027	9.04529801324503			
79	1780	-0.184158940397351	0.210754966887417	-0.919523178807947	-1.08662251655629	-0.704635761589404	-1.18490066225166				0.912953642384106	0.0957880794701987	0.413139072847682	4.91390728476821	5.90781456953642	3.89403973509934				-0.250172185430464	-0.0492715231788079	-0.87194701986755	0.287417218543046	-0.973509933774833	-1.88026490066225				0.352529801324503	-0.0485298013245033	-0.917721854304636	7.80291390728477	-13.5364238410596	-0.335629139072848				0.932026490066225	0.147496688741722	0.197933774834437	-5.9282119205298	4.81192052980133	0.782516556291392				0.463788079470199	-0.286834437086093	-0.852238410596026	0.860397350993377	-14.4023841059603	14.365298013245			
80	1800	-0.200158940397351	0.210754966887417	-0.919523178807947	-0.526622516556291	-0.984635761589404	-0.624900662251656				0.928953642384106	0.143788079470199	0.413139072847682	9.11390728476821	6.74781456953642	2.77403973509934				-0.250172185430464	-0.0492715231788079	-0.87194701986755	0.287417218543046	-1.25350993377483	-1.60026490066225				0.336529801324503	-0.0805298013245033	-0.949721854304636	10.3229139072848	-15.4964238410596	-2.01562913907285				0.932026490066225	0.163496688741722	0.197933774834437	-7.0482119205298	2.01192052980133	3.02251655629139				0.415788079470199	-0.238834437086093	-0.884238410596026	-4.73960264900662	-16.3623841059603	17.445298013245			
81	1820	-0.216158940397351	0.194754966887417	-0.935523178807947	1.71337748344371	-0.704635761589404	-1.46490066225166				0.928953642384106	0.143788079470199	0.333139072847682	3.79390728476821	0.0278145695364242	1.09403973509934				-0.266172185430464	-0.0492715231788079	-0.90394701986755	1.68741721854305	-1.25350993377483	-2.44026490066225				0.368529801324503	-0.144529801324503	-0.965721854304636	18.1629139072848	-18.2964238410596	-9.29562913907285				0.932026490066225	0.147496688741722	0.197933774834437	-5.0882119205298	4.53192052980133	2.74251655629139				0.431788079470199	-0.190834437086093	-0.868238410596026	3.94039735099338	-19.1623841059603	22.205298013245			
82	1840	-0.216158940397351	0.178754966887417	-0.935523178807947	2.55337748344371	-0.984635761589404	-2.30490066225166				0.928953642384106	0.127788079470199	0.381139072847682	-1.80609271523179	7.58781456953643	1.65403973509934				-0.266172185430464	-0.0652715231788079	-0.88794701986755	1.40741721854305	0.146490066225167	-3.00026490066225				0.352529801324503	-0.0965298013245033	-0.981721854304636	-1.71708609271523	-19.9764238410596	-11.8156291390728				0.932026490066225	0.163496688741722	0.213933774834437	-5.0882119205298	7.33192052980133	2.46251655629139				0.383788079470199	-0.270834437086093	-0.868238410596026	12.6203973509934	-28.9623841059603	27.245298013245			
83	1860	-0.200158940397351	0.178754966887417	-0.919523178807947	0.313377483443709	-1.2646357615894	-2.02490066225166				0.912953642384106	0.0957880794701987	0.413139072847682	0.433907284768212	6.46781456953642	4.17403973509934				-0.266172185430464	-0.0492715231788079	-0.88794701986755	1.12741721854305	0.426490066225167	-3.84026490066225				0.320529801324503	-0.0965298013245033	-0.965721854304636	-16.5570860927152	-26.4164238410596	-10.9756291390728				0.948026490066225	0.163496688741722	0.165933774834437	-3.6882119205298	4.25192052980133	3.02251655629139				0.383788079470199	-0.318834437086093	-0.884238410596026	1.14039735099338	-32.6023841059603	32.565298013245			
84	1880	-0.216158940397351	0.178754966887417	-0.919523178807947	-0.806622516556291	-0.704635761589404	-2.58490066225166				0.944953642384106	0.127788079470199	0.365139072847682	-8.52609271523179	2.82781456953642	-2.26596026490066				-0.282172185430464	-0.0652715231788079	-0.87194701986755	0.847417218543046	0.146490066225167	-4.68026490066225				0.288529801324503	-0.112529801324503	-0.949721854304636	-13.7570860927152	-29.4964238410596	-16.8556291390729				0.980026490066225	0.131496688741722	0.165933774834437	-4.2482119205298	1.73192052980133	1.62251655629139				0.335788079470199	-0.286834437086093	-0.868238410596026	-1.37960264900662	-32.0423841059603	40.125298013245			
85	1900	-0.200158940397351	0.178754966887417	-0.935523178807947	-2.20662251655629	-0.704635761589404	-2.30490066225166				0.960953642384106	0.191788079470199	0.349139072847682	-10.2060927152318	2.26781456953642	0.53403973509934				-0.266172185430464	-0.0812715231788079	-0.90394701986755	2.52741721854305	1.26649006622517	-5.24026490066225				0.224529801324503	-0.112529801324503	-0.981721854304636	-19.9170860927152	-30.0564238410596	-19.3756291390728				0.948026490066225	0.163496688741722	0.149933774834437	-9.8482119205298	-0.508079470198675	0.502516556291392				0.303788079470199	-0.238834437086093	-0.852238410596026	-7.25960264900662	-35.4023841059603	44.325298013245			
86	1920	-0.216158940397351	0.194754966887417	-0.935523178807947	1.71337748344371	-0.424635761589404	-1.46490066225166				0.960953642384106	0.159788079470199	0.349139072847682	-5.44609271523179	7.86781456953642	6.41403973509934				-0.266172185430464	-0.0652715231788079	-0.88794701986755	2.52741721854305	1.54649006622517	-5.80026490066225				0.208529801324503	-0.112529801324503	-0.981721854304636	-25.5170860927152	-32.0164238410596	-16.8556291390729				0.948026490066225	0.163496688741722	0.117933774834437	-8.1682119205298	3.69192052980133	0.222516556291392				0.287788079470199	-0.206834437086093	-0.932238410596026	1.70039735099338	-35.4023841059603	51.885298013245			
87	1940	-0.216158940397351	0.194754966887417	-0.967523178807947	-4.16662251655629	0.135364238410596	-0.0649006622516557				0.976953642384106	0.143788079470199	0.349139072847682	-3.48609271523179	12.9078145695364	9.77403973509934				-0.266172185430464	-0.0492715231788079	-0.88794701986755	5.32741721854305	0.986490066225167	-5.24026490066225				0.176529801324503	-0.0645298013245033	-0.981721854304636	-21.0370860927152	-33.9764238410596	-16.0156291390729				0.980026490066225	0.163496688741722	0.101933774834437	-4.5282119205298	10.4119205298013	-0.337483443708608				0.271788079470199	-0.206834437086093	-0.964238410596026	17.3803973509934	-37.6423841059603	57.485298013245			
88	1960	-0.200158940397351	0.178754966887417	-0.951523178807947	0.593377483443709	1.2553642384106	1.33509933774834				1.04095364238411	0.0637880794701987	0.349139072847682	3.23390728476821	7.58781456953643	13.9740397350993				-0.250172185430464	-0.0652715231788079	-0.90394701986755	3.64741721854305	-0.133509933774833	-2.16026490066225				0.208529801324503	-0.0805298013245033	-0.965721854304636	-21.3170860927152	-31.7364238410596	-18.2556291390728				1.01202649006623	0.163496688741722	0.133933774834437	-2.8482119205298	13.4919205298013	-0.0574834437086077				0.239788079470199	-0.206834437086093	-0.964238410596026	25.2203973509934	-30.6423841059603	62.805298013245			
89	1980	-0.232158940397351	0.178754966887417	-0.935523178807947	-1.36662251655629	2.6553642384106	2.45509933774835				0.992953642384106	0.207788079470199	0.333139072847682	-3.20609271523179	7.02781456953642	12.2940397350993				-0.266172185430464	-0.0812715231788079	-0.88794701986755	0.847417218543046	1.54649006622517	-0.48026490066225				0.240529801324503	-0.112529801324503	-0.981721854304636	-17.6770860927152	-27.5364238410596	-14.8956291390728				1.02802649006623	0.163496688741722	0.117933774834437	0.231788079470198	15.4519205298013	1.62251655629139				0.223788079470199	-0.206834437086093	-0.980238410596026	28.8603973509934	-28.9623841059603	65.885298013245			
90	2000	-0.248158940397351	0.178754966887417	-0.935523178807947	-3.32662251655629	4.6153642384106	2.73509933774834				0.960953642384106	0.111788079470199	0.317139072847682	-2.36609271523179	-1.65218543046358	20.1340397350993				-0.282172185430464	-0.0972715231788079	-0.83994701986755	3.36741721854305	1.54649006622517	-1.88026490066225				0.240529801324503	-0.112529801324503	-0.997721854304636	-20.4770860927152	-26.6964238410596	-8.45562913907285				1.01202649006623	0.179496688741722	0.117933774834437	3.3117880794702	19.6519205298013	1.90251655629139				0.159788079470199	-0.254834437086093	-0.948238410596026	31.1003973509934	-26.4423841059603	70.925298013245			
91	2020	-0.248158940397351	0.162754966887417	-0.919523178807947	-4.72662251655629	4.6153642384106	2.73509933774834				1.05695364238411	0.127788079470199	0.221139072847682	5.75390728476821	-11.7321854304636	20.1340397350993				-0.298172185430464	-0.0812715231788079	-0.85594701986755	1.68741721854305	-1.25350993377483	-2.16026490066225				0.224529801324503	-0.0965298013245033	-0.997721854304636	-20.4770860927152	-30.0564238410596	-3.69562913907285				1.04402649006623	0.115496688741722	0.0699337748344371	9.4717880794702	10.9719205298013	5.54251655629139				0.127788079470199	-0.238834437086093	-0.996238410596026	34.4603973509934	-16.9223841059603	70.645298013245			
92	2040	-0.264158940397351	0.146754966887417	-0.903523178807947	-6.68662251655629	4.0553642384106	1.61509933774834				1.04095364238411	0.159788079470199	0.141139072847682	3.51390728476821	-14.8121854304636	14.8140397350993				-0.314172185430464	-0.0652715231788079	-0.87194701986755	3.36741721854305	-0.413509933774833	-2.44026490066225				0	0	0	0	0	0				0	0	0	0	0	0				0	0	0	0	0	0			
93	2080	-0.312158940397351	0.194754966887417	-0.935523178807947	-20.1266225165563	5.7353642384106	1.89509933774834				0.976953642384106	0.191788079470199	0.301139072847682	-16.3660927152318	-10.6121854304636	26.2940397350993				-0.346172185430464	-0.0172715231788079	-0.87194701986755	14.007417218543	4.62649006622517	-2.44026490066225				0	0	0	0	0	0				1.04402649006623	0.163496688741722	0.0379337748344371	18.4317880794702	3.69192052980133	-1.45748344370861				0.0477880794701987	-0.254834437086093	-0.948238410596026	14.0203973509934	-22.8023841059603	78.205298013245			
94	2100	-0.312158940397351	0.194754966887417	-0.967523178807947	-21.5266225165563	8.8153642384106	6.09509933774834				0.896953642384106	0.159788079470199	0.189139072847682	9.95390728476821	-14.8121854304636	31.3340397350993				-0.330172185430464	-0.0332715231788079	-0.83994701986755	16.247417218543	1.82649006622517	2.59973509933775				0.192529801324503	-0.0485298013245033	-1.07772185430464	-9.83708609271523	-43.4964238410596	-11.8156291390728				1.07602649006623	0.0994966887417219	0.0219337748344371	29.9117880794702	2.57192052980133	-2.01748344370861				0.0477880794701987	-0.222834437086093	-0.964238410596026	20.7403973509934	-18.0423841059603	74.285298013245			
95	2120	-0.280158940397351	0.162754966887417	-0.887523178807947	-19.5666225165563	2.3753642384106	8.61509933774835				0.976953642384106	0.0317880794701987	0.189139072847682	-11.3260927152318	14.5878145695364	35.8140397350993				-0.346172185430464	-0.113271523178808	-0.88794701986755	19.607417218543	2.66649006622517	7.91973509933775				0.160529801324503	-0.160529801324503	-1.12572185430464	-6.47708609271523	-48.8164238410596	-10.4156291390728				1.04402649006623	0.131496688741722	0.0219337748344371	32.7117880794702	-2.18807947019868	-5.93748344370861				-0.000211920529801336	-0.254834437086093	-0.948238410596026	13.1803973509934	-19.4423841059603	71.485298013245			
96	2140	-0.280158940397351	0.146754966887417	-0.935523178807947	-17.0466225165563	5.4553642384106	9.17509933774834				0.912953642384106	0.207788079470199	0.333139072847682	-19.4460927152318	44.2678145695364	36.9340397350993				-0.346172185430464	-0.161271523178808	-0.88794701986755	19.0474172185431	4.62649006622517	11.2797350993378				0.112529801324503	-0.144529801324503	-1.04572185430464	-26.6370860927152	-55.5364238410596	-10.4156291390728				0.964026490066225	0.131496688741722	0.00593377483443711	45.0317880794702	-11.1480794701987	-3.13748344370861				-0.0322119205298013	-0.206834437086093	-0.900238410596026	7.86039735099338	-20.8423841059603	73.725298013245			
97	2160	-0.344158940397351	0.226754966887417	-0.903523178807947	-26.5666225165563	2.9353642384106	10.8550993377483				0.928953642384106	0.111788079470199	0.365139072847682	20.8739072847682	57.7078145695364	49.8140397350993				-0.362172185430464	-0.225271523178808	-1.17594701986755	23.5274172185431	-7.97350993377484	9.03973509933775				0.128529801324503	-0.0165298013245033	-0.997721854304636	-31.3970860927152	-63.0964238410596	-14.8956291390728				0.980026490066225	0.115496688741722	0.0699337748344371	22.3517880794702	-11.1480794701987	-10.4174834437086				-0.112211920529801	-0.158834437086093	-0.964238410596026	-7.81960264900662	-6.00238410596027	70.645298013245			
98	2180	-0.392158940397351	0.258754966887417	-1.06352317880795	-28.2466225165563	11.8953642384106	16.4550993377483				1.00895364238411	-0.128211920529801	0.429139072847682	28.9939072847682	63.3078145695364	54.2940397350993				-0.506172185430464	-0.225271523178808	-1.15994701986755	57.4074172185431	16.1064900662252	13.2397350993378				0.160529801324503	-0.0805298013245033	-1.01372185430464	-9.55708609271523	-61.6964238410596	-20.7756291390729				1.01202649006623	0.163496688741722	0.133933774834437	48.3917880794702	-0.788079470198675	-14.8974834437086				-0.0482119205298013	-0.126834437086093	-0.980238410596026	0.580397350993377	-14.1223841059603	63.365298013245			
99	2200	-0.312158940397351	0.146754966887417	-1.01552317880795	-27.4066225165563	19.7353642384106	18.9750993377483				0.912953642384106	-0.0642119205298013	0.365139072847682	2.11390728476821	45.6678145695364	35.8140397350993				-0.282172185430464	-0.145271523178808	-0.72794701986755	62.1674172185431	42.9864900662252	13.2397350993378				0.0965298013245033	-0.0965298013245033	-0.997721854304636	-17.3970860927152	-51.8964238410596	-17.4156291390728				1.01202649006623	0.131496688741722	0.261933774834437	62.9517880794702	-5.26807947019868	-13.4974834437086				-0.0642119205298013	-0.270834437086093	-0.980238410596026	25.2203973509934	-20.8423841059603	46.565298013245			
100	2220	-0.328158940397351	0.178754966887417	-1.07952317880795	-31.3266225165563	24.4953642384106	20.0950993377483				1.05695364238411	0.0157880794701987	0.589139072847682	-17.7660927152318	63.3078145695364	22.6540397350993				-0.410172185430464	-0.113271523178808	-0.88794701986755	-8.67258278145695	11.9064900662252	9.03973509933775				0.0645298013245033	-0.000529801324503289	-1.02972185430464	-31.9570860927152	-37.3364238410596	-22.7356291390728				1.01202649006623	0.179496688741722	0.325933774834437	63.7917880794702	2.29192052980133	-9.29748344370861				0.0157880794701987	-0.398834437086093	-1.01223841059603	21.0203973509934	-14.9623841059603	34.805298013245			
101	2240	-0.344158940397351	0.258754966887417	-1.04752317880795	-40.2866225165563	42.4153642384106	29.8950993377483				1.02495364238411	0.0477880794701987	0.989139072847682	18.6339072847682	80.1078145695364	25.7340397350993				-0.474172185430464	-0.0812715231788079	-1.06394701986755	33.607417218543	35.9864900662252	-2.72026490066225				-0.0794701986754967	0.0314701986754967	-1.12572185430464	-26.3570860927152	-10.4564238410596	-33.3756291390728				1.02802649006623	0.259496688741722	0.357933774834437	70.5117880794702	17.1319205298013	-13.4974834437086				0.175788079470199	-0.446834437086093	-1.02823841059603	17.3803973509934	-17.4823841059603	23.605298013245			
102	2260	-0.248158940397351	0.274754966887417	-1.07952317880795	-31.3266225165563	48.0153642384106	40.5350993377483				1.04095364238411	-0.240211920529801	0.973139072847682	9.67390728476821	78.7078145695364	26.5740397350993				-0.346172185430464	0.0467284768211921	-1.01594701986755	36.6874172185431	46.0664900662252	-2.72026490066225				-0.111470198675497	0.191470198675497	-1.04572185430464	-23.8370860927152	15.3035761589404	-28.8956291390729				1.04402649006623	0.195496688741722	0.389933774834437	78.3517880794702	37.0119205298013	-20.2174834437086				0.719788079470199	-0.910834437086093	-1.09223841059603	-5.57960264900662	0.717615894039735	9.60529801324503			
103	2280	-0.296158940397351	0.306754966887417	-1.04752317880795	-12.0066225165563	56.1353642384106	48.9350993377484				1.08895364238411	-0.176211920529801	0.701139072847682	-17.7660927152318	43.9878145695364	7.25403973509934				-0.314172185430464	-0.145271523178808	-0.99994701986755	20.447417218543	41.8664900662252	-1.32026490066225				0.0965298013245033	0.271470198675497	-1.02972185430464	1.92291390728477	18.1035761589404	-30.2956291390729				1.15602649006623	0.0834966887417219	0.661933774834437	81.9917880794702	45.9719205298013	-13.2174834437086				0.863788079470199	-1.16683443708609	-1.15623841059603	-69.6996026490066	-25.6023841059603	-20.074701986755			
104	2300	-0.248158940397351	0.322754966887417	-1.07952317880795	-26.0066225165563	65.9353642384106	54.8150993377484				1.08895364238411	-0.224211920529801	0.797139072847682	0.433907284768212	44.5478145695364	-6.46596026490066				-0.298172185430464	-0.305271523178808	-0.93594701986755	21.8474172185431	51.6664900662252	-3.84026490066225				0.192529801324503	0.207470198675497	-1.28572185430464	19.8429139072848	15.8635761589404	-20.4956291390729				1.23602649006623	0.243496688741722	0.725933774834437	17.3117880794702	33.3719205298013	-16.0174834437086				-0.0162119205298013	-0.638834437086093	-0.772238410596026	38.3803973509934	2.67761589403974	-22.874701986755			
105	2320	-0.104158940397351	0.402754966887417	-0.967523178807947	-21.2466225165563	72.6553642384106	57.3350993377484				1.18495364238411	-0.208211920529801	0.925139072847682	28.1539072847682	57.4278145695364	-4.50596026490066				-0.314172185430464	-0.289271523178808	-1.03194701986755	10.647417218543	62.3064900662252	-3.00026490066225				0.256529801324503	0.143470198675497	-1.46172185430464	12.0029139072848	13.9035761589404	-6.21562913907285				1.28402649006623	0.339496688741722	0.613933774834437	10.3117880794702	28.0519205298013	-10.4174834437086				0.431788079470199	-0.846834437086093	-1.01223841059603	63.3003973509934	-37.9223841059603	-7.75470198675497			
106	2340	-0.040158940397351	0.434754966887417	-0.967523178807947	-4.44662251655629	76.5753642384106	55.6550993377484				1.16895364238411	-0.0962119205298013	0.909139072847682	-7.68609271523179	28.0278145695364	-5.90596026490066				-0.234172185430464	-0.305271523178808	-0.98394701986755	-18.472582781457	67.6264900662252	-1.60026490066225				0.240529801324503	0.223470198675497	-1.36572185430464	-9.55708609271523	8.0235761589404	-3.13562913907285				1.26802649006623	0.307496688741722	0.661933774834437	-8.4482119205298	14.8919205298013	-10.4174834437086				0.415788079470199	-1.21483443708609	-0.804238410596027	86.5403973509934	-28.1223841059603	2.32529801324503			
107	2360	-0.024158940397351	0.418754966887417	-1.03152317880795	4.23337748344371	82.1753642384106	48.6550993377484				1.15295364238411	0.0637880794701987	0.893139072847682	-7.40609271523179	4.50781456953642	-15.4259602649007				-0.154172185430464	-0.113271523178808	-1.04794701986755	-30.512582781457	77.4264900662252	-3.56026490066225				0.0965298013245033	0.287470198675497	-1.14172185430464	-25.7970860927152	-1.4964238410596	-8.73562913907285				1.20402649006623	0.435496688741722	0.549933774834437	-27.7682119205298	9.85192052980133	-9.85748344370861				0.159788079470199	-0.862834437086093	-0.868238410596026	82.3403973509934	9.67761589403974	9.04529801324503			
108	2380	0.023841059602649	0.370754966887417	-0.983523178807947	12.3533774834437	91.1353642384106	42.7750993377484				1.15295364238411	-0.288211920529801	0.973139072847682	36.2739072847682	7.58781456953643	-4.50596026490066				-0.154172185430464	-0.0492715231788079	-1.09594701986755	3.92741721854305	90.3064900662252	-11.4002649006623				0.208529801324503	0.335470198675497	-1.12572185430464	-10.1170860927152	15.8635761589404	-0.615629139072848				1.22002649006623	0.403496688741722	0.469933774834437	-15.7282119205298	20.4919205298013	-5.09748344370861				0.127788079470199	-0.670834437086093	-0.948238410596026	56.3003973509934	29.2776158940397	22.485298013245			
109	2400	0.119841059602649	0.402754966887417	-1.03152317880795	12.3533774834437	98.6953642384106	37.7350993377484				1.13695364238411	-0.0482119205298013	0.909139072847682	29.5539072847682	8.98781456953643	-15.7059602649007				-0.0901721854304636	-0.225271523178808	-1.07994701986755	3.92741721854305	96.1864900662252	-15.3202649006623				0.320529801324503	0.255470198675497	-1.25372185430464	16.4829139072848	32.3835761589404	11.7043708609272				1.23602649006623	0.403496688741722	0.437933774834437	-21.6082119205298	14.0519205298013	-0.897483443708608				0.271788079470199	-0.654834437086093	-0.980238410596026	50.1403973509934	20.0376158940397	14.085298013245			
110	2420	0.199841059602649	0.498754966887417	-1.03152317880795	26.3533774834437	108.495364238411	36.6150993377484				0.992953642384106	0.0477880794701987	0.797139072847682	11.3539072847682	-4.17218543046358	-10.6659602649007				0.0218278145695364	-0.337271523178808	-1.01594701986755	-3.91258278145695	106.546490066225	-18.4002649006623				0.288529801324503	0.0794701986754967	-1.38172185430464	25.4429139072848	34.0635761589404	16.4643708609272				1.14002649006623	0.499496688741722	0.389933774834437	-13.2082119205298	6.21192052980133	0.782516556291392				0.271788079470199	-0.798834437086093	-0.948238410596026	31.6603973509934	21.1576158940397	10.725298013245			
111	2440	0.327841059602649	0.322754966887417	-0.967523178807947	46.5133774834437	118.295364238411	34.9350993377483				0.992953642384106	0.0637880794701987	0.845139072847682	-27.2860927152318	-9.49218543046358	6.13403973509934				0.117827814569536	-0.209271523178808	-0.99994701986755	-19.872582781457	115.506490066225	-19.5202649006623				0.288529801324503	0.143470198675497	-1.34972185430464	10.8829139072848	30.4235761589404	8.90437086092715				1.12402649006623	0.467496688741722	0.405933774834437	-3.6882119205298	10.1319205298013	-1.45748344370861				0.223788079470199	-0.718834437086093	-0.932238410596026	-4.73960264900662	40.4776158940397	-7.19470198675497			
112	2460	0.423841059602649	0.242754966887417	-0.951523178807947	36.7133774834437	125.015364238411	29.0550993377483				1.10495364238411	0.0477880794701987	0.861139072847682	-38.7660927152318	-16.7721854304636	3.33403973509934				0.197827814569536	-0.0652715231788079	-1.01594701986755	-20.432582781457	120.826490066225	-22.3202649006623				0.336529801324503	0.239470198675497	-1.18972185430464	-7.59708609271523	30.9835761589404	-3.97562913907285				1.14002649006623	0.435496688741722	0.469933774834437	-0.888211920529802	9.29192052980133	-5.65748344370861				0.399788079470199	-0.558834437086093	-0.884238410596026	-24.0596026490066	56.1576158940397	-27.914701986755			
113	2480	0.439841059602649	0.258754966887417	-0.951523178807947	18.2333774834437	130.895364238411	25.4150993377483				0.976953642384106	-0.0162119205298013	0.813139072847682	6.59390728476821	-11.1721854304636	5.01403973509934				0.197827814569536	-0.0652715231788079	-0.95194701986755	-8.11258278145695	124.186490066225	-26.2402649006623				0.432529801324503	0.271470198675497	-1.12572185430464	-9.55708609271523	27.6235761589404	-2.29562913907285				1.07602649006623	0.403496688741722	0.533933774834437	6.3917880794702	10.9719205298013	-4.53748344370861				0.255788079470199	-0.542834437086093	-0.948238410596026	18.5003973509934	44.1176158940397	-36.314701986755			
114	2500	0.471841059602649	0.338754966887417	-0.871523178807947	23.5533774834437	132.855364238411	22.6150993377483				1.02495364238411	0.0637880794701987	0.829139072847682	44.1139072847682	-20.6921854304636	8.93403973509934				0.261827814569536	-0.0652715231788079	-0.96794701986755	0.847417218543046	126.146490066225	-29.8802649006623				0.432529801324503	0.223470198675497	-1.12572185430464	-1.99708609271523	32.1035761589404	0.224370860927152				1.10802649006623	0.467496688741722	0.501933774834437	1.6317880794702	7.89192052980133	-2.01748344370861				0.319788079470199	-0.654834437086093	-0.852238410596026	31.6603973509934	54.7576158940397	-42.754701986755			
115	2520	0.519841059602649	0.354754966887417	-0.823523178807947	25.5133774834437	136.495364238411	20.6550993377483				1.12095364238411	0.159788079470199	0.845139072847682	17.2339072847682	-22.6521854304636	10.6140397350993				0.309827814569536	-0.0332715231788079	-0.93594701986755	8.96741721854305	130.066490066225	-34.0802649006623				0.272529801324503	0.207470198675497	-1.04572185430464	2.20291390728477	44.4235761589404	-3.13562913907285				1.09202649006623	0.435496688741722	0.405933774834437	10.8717880794702	2.29192052980133	1.90251655629139				0.367788079470199	-0.718834437086093	-0.852238410596026	25.5003973509934	68.4776158940397	-42.194701986755			
116	2540	0.535841059602649	0.418754966887417	-0.791523178807947	33.3533774834437	137.055364238411	18.4150993377483				0.992953642384106	0.0797880794701987	0.749139072847682	14.1539072847682	-27.4121854304636	3.61403973509934				0.293827814569536	-0.00127152317880793	-0.90394701986755	6.16741721854305	135.666490066225	-37.1602649006623				0.0805298013245033	0.207470198675497	-0.901721854304636	9.20291390728477	66.8235761589404	-0.0556291390728476				0.996026490066225	0.339496688741722	0.405933774834437	20.6717880794702	4.81192052980133	4.14251655629139				0.415788079470199	-0.814834437086093	-0.836238410596026	45.9403973509934	62.8776158940397	-36.034701986755			
117	2560	0.519841059602649	0.450754966887417	-0.775523178807947	49.5933774834437	139.575364238411	8.05509933774835				0.880953642384106	-0.0162119205298013	0.493139072847682	65.6739072847682	-35.8121854304636	4.73403973509934				0.245827814569536	-0.00127152317880793	-0.82394701986755	8.40741721854305	140.146490066225	-36.8802649006623				0.0965298013245033	0.287470198675497	-0.789721854304636	24.8829139072848	81.6635761589404	5.54437086092715				0.964026490066225	0.243496688741722	0.325933774834437	17.0317880794702	7.89192052980133	8.62251655629139				0.447788079470199	-0.862834437086093	-0.804238410596027	31.6603973509934	53.6376158940397	-32.674701986755			
118	2580	0.503841059602649	0.434754966887417	-0.663523178807947	63.0333774834437	142.375364238411	-7.90490066225166				0.944953642384106	0.0317880794701987	0.397139072847682	70.9939072847682	-52.0521854304636	-3.94596026490066				0.325827814569536	-0.0652715231788079	-0.74394701986755	5.32741721854305	146.026490066225	-38.5602649006623				0.208529801324503	0.239470198675497	-0.773721854304636	50.3629139072848	91.4635761589404	13.6643708609272				0.932026490066225	0.243496688741722	0.389933774834437	11.7117880794702	10.6919205298013	15.0625165562914				0.463788079470199	-0.782834437086093	-0.756238410596026	17.1003973509934	48.3176158940397	-29.874701986755			
119	2600	0.567841059602649	0.194754966887417	-0.519523178807947	41.1933774834437	157.215364238411	-13.5049006622517				0.944953642384106	-0.0962119205298013	0.573139072847682	50.2739072847682	-62.6921854304636	2.77403973509934				0.421827814569536	0.0147284768211921	-0.69594701986755	-3.35258278145695	149.946490066225	-37.7202649006623				0.0965298013245033	0.0474701986754967	-0.805721854304636	72.2029139072848	106.58357615894	19.5443708609272				0.884026490066225	0.243496688741722	0.357933774834437	-7.0482119205298	3.41192052980132	15.9025165562914				0.431788079470199	-0.670834437086093	-0.692238410596026	6.74039735099338	50.5576158940397	-26.234701986755			
120	2620	0.583841059602649	0.0667549668874172	-0.663523178807947	8.43337748344371	154.695364238411	-1.46490066225166				0.832953642384106	0.0637880794701987	0.589139072847682	26.4739072847682	-54.8521854304636	-0.0259602649006601				0.437827814569536	0.0947284768211921	-0.61594701986755	0.287417218543046	149.386490066225	-37.4402649006623				0.000529801324503301	0.0314701986754967	-0.677721854304636	69.1229139072848	129.82357615894	8.90437086092715				0.788026490066225	0.227496688741722	0.277933774834437	-25.8082119205298	0.891920529801325	18.7025165562914				0.399788079470199	-0.574834437086093	-0.660238410596027	-3.89960264900662	49.7176158940397	-23.154701986755			
121	2640	0.471841059602649	0.162754966887417	-0.663523178807947	27.7533774834437	151.615364238411	2.73509933774834				0.880953642384106	0.0957880794701987	0.365139072847682	29.5539072847682	-60.4521854304636	2.21403973509934				0.469827814569536	0.0947284768211921	-0.55194701986755	5.60741721854305	151.626490066225	-35.4802649006623				0.0165298013245033	0.159470198675497	-0.517721854304636	76.1229139072848	151.66357615894	4.98437086092715				0.756026490066225	0.179496688741722	0.133933774834437	-30.0082119205298	10.6919205298013	22.0625165562914				0.415788079470199	-0.462834437086093	-0.628238410596026	-3.33960264900662	40.4776158940397	-29.034701986755			
122	2660	0.503841059602649	0.0667549668874172	-0.551523178807947	37.2733774834437	157.775364238411	-1.46490066225166				0.816953642384106	0.0157880794701987	0.109139072847682	57.2739072847682	-78.6521854304636	-0.585960264900661				0.533827814569536	0.0627284768211921	-0.51994701986755	13.727417218543	151.626490066225	-33.2402649006623				0.160529801324503	0.175470198675497	-0.485721854304636	111.402913907285	160.06357615894	21.5043708609272				0.756026490066225	0.131496688741722	0.101933774834437	-37.0082119205298	15.7319205298013	22.9025165562914				0.367788079470199	-0.302834437086093	-0.580238410596026	-5.29960264900662	38.7976158940397	-28.474701986755			
123	2680	0.519841059602649	0.00275496688741723	-0.599523178807947	26.0733774834437	158.615364238411	8.61509933774835				0.736953642384106	-0.0162119205298013	0.0131390728476822	55.0339072847682	-129.052185430464	0.25403973509934				0.549827814569536	0.0627284768211921	-0.45594701986755	12.607417218543	150.226490066225	-30.4402649006623				0.400529801324503	-0.0485298013245033	-0.485721854304636	138.562913907285	157.26357615894	35.2243708609272				0.692026490066225	0.163496688741722	0.197933774834437	-47.3682119205298	0.0519205298013249	25.7025165562914				0.287788079470199	-0.318834437086093	-0.516238410596026	13.7403973509934	41.5976158940397	-31.554701986755			
124	2700	0.503841059602649	-0.0452450331125828	-0.487523178807947	22.9933774834437	162.815364238411	18.4150993377483				0.512953642384106	-0.000211920529801304	0.109139072847682	7.15390728476821	-129.052185430464	-1.98596026490066				0.533827814569536	0.0307284768211921	-0.43994701986755	6.44741721854305	150.786490066225	-25.9602649006623				0.592529801324503	-0.288529801324503	-0.565721854304636	132.402913907285	132.90357615894	42.7843708609272				0.628026490066225	0.195496688741722	0.197933774834437	-47.9282119205298	-24.8680794701987	33.5425165562914				0.207788079470199	-0.414834437086093	-0.564238410596026	18.5003973509934	33.1976158940397	-25.954701986755			
125	2720	0.567841059602649	-0.0452450331125828	-0.583523178807947	5.63337748344371	160.575364238411	26.2550993377483				0.464953642384106	0.143788079470199	0.221139072847682	-14.4060927152318	-90.1321854304636	-4.50596026490066				0.501827814569536	-0.145271523178808	-0.47194701986755	7.56741721854305	147.706490066225	-20.0802649006623				0.560529801324503	-0.448529801324503	-0.677721854304636	85.3629139072848	86.4235761589404	51.7443708609272				0.580026490066225	0.163496688741722	0.149933774834437	-43.7282119205298	-36.6280794701987	39.4225165562914				0.223788079470199	-0.478834437086093	-0.468238410596026	3.66039735099338	27.5976158940397	-13.914701986755			
126	2740	0.647841059602649	-0.0612450331125828	-0.423523178807947	29.7133774834437	158.335364238411	30.7350993377483				0.592953642384106	0.0957880794701987	0.157139072847682	8.27390728476821	-56.5321854304636	15.9340397350993				0.597827814569536	-0.193271523178808	-0.42394701986755	-7.27258278145696	141.826490066225	-11.1202649006623				0.480529801324503	-0.384529801324503	-0.629721854304636	34.4029139072848	53.9435761589404	55.3843708609272				0.628026490066225	0.0834966887417219	0.101933774834437	-42.8882119205298	-31.8680794701987	36.3425165562914				0.239788079470199	-0.446834437086093	-0.388238410596026	-43.6596026490066	33.4776158940397	-4.67470198675497			
127	2760	0.631841059602649	0.0347549668874172	-0.487523178807947	-7.80662251655629	153.855364238411	38.8550993377483				0.656953642384106	-0.0482119205298013	0.109139072847682	6.31390728476821	-48.1321854304636	21.2540397350993				0.661827814569536	-0.145271523178808	-0.40794701986755	-31.632582781457	133.426490066225	-2.16026490066225				0.544529801324503	-0.304529801324503	-0.597721854304636	21.8029139072848	37.9835761589404	52.8643708609272				0.676026490066225	0.0194966887417219	0.133933774834437	-31.9682119205298	-28.5080794701987	32.1425165562914				0.175788079470199	-0.382834437086093	-0.356238410596026	-70.5396026490066	32.3576158940397	-1.31470198675497			
128	2780	0.583841059602649	0.0667549668874172	-0.455523178807947	-2.76662251655629	153.575364238411	43.6150993377484				0.528953642384106	-0.0802119205298013	0.0931390728476822	-15.2460927152318	-32.4521854304636	16.2140397350993				0.677827814569536	-0.113271523178808	-0.40794701986755	-31.912582781457	134.546490066225	0.0797350993377501				0.656529801324503	-0.256529801324503	-0.613721854304636	23.2029139072848	13.0635761589404	51.7443708609272				0.676026490066225	-0.0285033112582781	0.245933774834437	-19.3682119205298	-43.6280794701987	32.1425165562914				0.111788079470199	-0.270834437086093	-0.356238410596026	-58.2196026490066	34.0376158940397	-1.03470198675497			
129	2800	0.679841059602649	0.00275496688741723	-0.439523178807947	0.0333774834437086	152.175364238411	41.0950993377484				0.512953642384106	0.0157880794701987	0.0291390728476822	-38.2060927152318	-32.7321854304636	3.05403973509934				0.661827814569536	-0.0972715231788079	-0.50394701986755	-17.352582781457	123.346490066225	-4.40026490066225				0.672529801324503	-0.272529801324503	-0.549721854304636	13.4029139072848	-13.8164238410596	52.0243708609272				0.628026490066225	-0.0125033112582781	0.293933774834437	-18.2482119205298	-72.7480794701987	29.3425165562914				0.127788079470199	-0.254834437086093	-0.388238410596026	-50.3796026490066	37.1176158940397	0.925298013245032			
130	2820	0.743841059602649	0.0507549668874172	-0.343523178807947	9.55337748344371	153.855364238411	29.3350993377483				0.608953642384106	0.0797880794701987	0.0131390728476822	-30.3660927152318	-44.7721854304636	-3.10596026490066				0.677827814569536	-0.0332715231788079	-0.47194701986755	-8.11258278145695	121.386490066225	-6.64026490066225				0.624529801324503	-0.304529801324503	-0.581721854304636	-15.7170860927152	-56.0964238410596	48.9443708609272				0.628026490066225	0.0194966887417219	0.213933774834437	-16.5682119205298	-94.8680794701987	27.6625165562914				0.143788079470199	-0.270834437086093	-0.468238410596026	-37.4996026490066	40.1976158940397	-2.15470198675497			
131	2840	0.823841059602649	0.114754966887417	-0.327523178807947	-6.68662251655629	141.815364238411	19.8150993377483				0.784953642384106	-0.0162119205298013	0.141139072847682	-21.6860927152318	-48.9721854304636	-0.585960264900661				0.773827814569536	-0.0492715231788079	-0.47194701986755	4.48741721854305	110.746490066225	-8.88026490066225				0.544529801324503	-0.288529801324503	-0.549721854304636	-28.8770860927152	-82.4164238410596	46.9843708609272				0.628026490066225	0.0514966887417219	0.117933774834437	-13.4882119205298	-95.1480794701987	25.4225165562914				0.159788079470199	-0.270834437086093	-0.500238410596026	-40.0196026490066	38.5176158940397	-6.91470198675497			
132	2860	0.839841059602649	0.178754966887417	-0.311523178807947	-1.36662251655629	127.255364238411	14.4950993377483				0.832953642384106	-0.000211920529801304	0.365139072847682	-24.2060927152318	-38.6121854304636	-3.10596026490066				0.773827814569536	-0.129271523178808	-0.45594701986755	-11.192582781457	98.1464900662252	-5.52026490066225				0.464529801324503	-0.208529801324503	-0.565721854304636	-30.8370860927152	-88.2964238410596	38.3043708609272				0.612026490066225	0.0514966887417219	0.133933774834437	3.8717880794702	-82.8280794701987	23.7425165562914				0.223788079470199	-0.238834437086093	-0.548238410596027	-43.6596026490066	51.3976158940397	-11.114701986755			
133	2880	0.839841059602649	0.114754966887417	-0.231523178807947	21.3133774834437	119.415364238411	12.5350993377483				0.624953642384106	0.0637880794701987	0.461139072847682	-23.3660927152318	-52.6121854304636	-12.3459602649007				0.821827814569536	-0.161271523178808	-0.43994701986755	-28.272582781457	91.7064900662252	-2.72026490066225				0.336529801324503	-0.224529801324503	-0.565721854304636	-26.0770860927152	-87.1764238410596	27.9443708609272				0.628026490066225	0.0514966887417219	0.149933774834437	4.9917880794702	-70.7880794701987	15.3425165562914				0.255788079470199	-0.254834437086093	-0.580238410596026	-38.3396026490066	36.2776158940397	-7.47470198675497			
134	2900	0.919841059602649	0.0187549668874172	-0.151523178807947	28.0333774834437	106.815364238411	9.45509933774835				0.512953642384106	0.0797880794701987	0.157139072847682	8.83390728476821	-44.7721854304636	-5.06596026490066				0.837827814569536	-0.113271523178808	-0.40794701986755	-27.992582781457	87.7864900662252	-1.32026490066225				0.176529801324503	-0.176529801324503	-0.565721854304636	-24.6770860927152	-82.4164238410596	21.7843708609272				0.612026490066225	0.0674966887417219	0.101933774834437	1.9117880794702	-64.3480794701987	9.18251655629139				0.271788079470199	-0.334834437086093	-0.580238410596026	-26.0196026490066	18.0776158940397	-5.51470198675497			
135	2920	0.967841059602649	0.0187549668874172	-0.087523178807947	25.7933774834437	92.8153642384106	6.37509933774834				0.704953642384106	0.111788079470199	0.109139072847682	17.2339072847682	-6.13218543046358	-8.14596026490066				0.869827814569536	-0.0652715231788079	-0.31194701986755	-38.072582781457	74.0664900662252	4.27973509933775				0.0965298013245033	-0.192529801324503	-0.581721854304636	-19.6370860927152	-69.2564238410596	20.3843708609272				0.692026490066225	0.0194966887417219	0.0219337748344371	3.5917880794702	-46.9880794701987	7.78251655629139				0.351788079470199	-0.334834437086093	-0.596238410596026	-48.6996026490066	8.27761589403974	0.0852980132450323			
136	2940	0.967841059602649	0.0507549668874172	-0.055523178807947	34.7533774834437	69.0153642384106	5.25509933774834				0.864953642384106	0.0477880794701987	0.301139072847682	6.31390728476821	-12.0121854304636	-5.06596026490066				0.949827814569536	-0.0332715231788079	-0.24794701986755	-38.072582781457	64.5464900662252	7.07973509933775				0.160529801324503	-0.208529801324503	-0.581721854304636	-1.99708609271523	-44.8964238410596	19.2643708609272				0.804026490066225	0.0354966887417219	0.0699337748344371	2.4717880794702	-29.6280794701987	4.70251655629139				0.399788079470199	-0.350834437086093	-0.660238410596027	-73.8996026490066	7.43761589403974	4.28529801324503			
137	2960	0.999841059602649	0.0507549668874172	-0.055523178807947	25.2333774834437	60.3353642384106	3.01509933774834				0.832953642384106	0.0637880794701987	0.269139072847682	4.07390728476821	-40.2921854304636	-6.74596026490066				0.917827814569536	-0.00127152317880793	-0.18394701986755	-24.632582781457	55.3064900662252	8.47973509933775				0.256529801324503	-0.224529801324503	-0.661721854304636	16.7629139072848	-23.0564238410596	24.8643708609272				0.836026490066225	0.0514966887417219	0.0699337748344371	-2.8482119205298	-33.2680794701987	3.02251655629139				0	0	0	0	0	0			
138	2980	1.01584105960265	0.0187549668874172	0.056476821192053	18.5133774834437	63.6953642384106	3.29509933774834				0	0	0	0	0	0				0	0	0	0	0	0				0	0	0	0	0	0				0	0	0	0	0	0				0	0	0	0	0	0			
139	3080	0	0	0	0	0	0				0	0	0	0	0	0				0	0	0	0	0	0				0	0	0	0	0	0				0	0	0	0	0	0				0.447788079470199	-0.334834437086093	-0.644238410596026	-17.0596026490066	-13.8423841059603	19.685298013245			
140	3100	1.06384105960265	-0.125245033112583	0.072476821192053	7.03337748344371	12.7353642384106	0.775099337748344				0.944953642384106	0.0157880794701987	0.429139072847682	-14.6860927152318	-2.21218543046358	1.65403973509934				1.01382781456954	-0.177271523178808	-0.0239470198675496	-1.95258278145695	21.1464900662252	4.55973509933775				0.400529801324503	-0.320529801324503	-0.821721854304636	-4.23708609271523	2.4235761589404	-0.615629139072848				0.916026490066225	0.0674966887417219	0.117933774834437	-2.8482119205298	4.81192052980133	-0.617483443708608				0.495788079470199	-0.398834437086093	-0.644238410596026	-15.9396026490066	-7.96238410596027	16.885298013245			
141	3120	0.983841059602649	-0.0932450331125828	0.152476821192053	5.35337748344371	3.2153642384106	8.05509933774835				0.848953642384106	0.0637880794701987	0.269139072847682	-8.24609271523179	-5.29218543046358	0.53403973509934				0.997827814569536	-0.225271523178808	0.0240529801324504	0.00741721854304636	10.7864900662252	3.71973509933775				0.352529801324503	-0.208529801324503	-0.789721854304636	-12.6370860927152	-0.9364238410596	0.784370860927152				0.884026490066225	0.0514966887417219	0.165933774834437	-1.1682119205298	13.2119205298013	-0.0574834437086077				0.527788079470199	-0.414834437086093	-0.676238410596026	-9.21960264900662	-3.48238410596027	12.405298013245			
142	3140	0.983841059602649	-0.0612450331125828	0.168476821192053	3.39337748344371	4.0553642384106	8.05509933774835				0.896953642384106	-0.0482119205298013	0.317139072847682	-5.72609271523179	11.7878145695364	1.65403973509934				0.917827814569536	-0.177271523178808	0.0400529801324504	5.60741721854305	0.426490066225167	2.59973509933775				0.384529801324503	-0.240529801324503	-0.757721854304636	-10.6770860927152	2.9835761589404	6.38437086092715				0.868026490066225	0.0674966887417219	0.229933774834437	-3.4082119205298	16.5719205298013	1.06251655629139				0.495788079470199	-0.414834437086093	-0.644238410596026	-7.81960264900662	-2.36238410596027	10.725298013245			
143	3160	0.951841059602649	-0.0612450331125828	0.184476821192053	10.9533774834437	11.3353642384106	2.45509933774835				0.928953642384106	-0.112211920529801	0.317139072847682	-13.8460927152318	13.1878145695364	5.85403973509934				0.949827814569536	-0.0812715231788079	0.0240529801324504	-4.75258278145695	1.54649006622517	5.39973509933775				0.432529801324503	-0.256529801324503	-0.757721854304636	-6.75708609271523	12.7835761589404	11.1443708609272				0.900026490066225	0.0514966887417219	0.245933774834437	-10.4082119205298	21.0519205298013	1.06251655629139				0.463788079470199	-0.382834437086093	-0.660238410596027	-13.1396026490066	5.47761589403974	13.245298013245			
144	3180	0.919841059602649	-0.0292450331125828	0.248476821192053	7.87337748344371	12.4553642384106	0.215099337748344				1.00895364238411	-0.0642119205298013	0.365139072847682	-18.3260927152318	10.6678145695364	3.33403973509934				0.981827814569536	-0.0972715231788079	-0.0239470198675496	-11.472582781457	7.70649006622517	5.67973509933775				0.464529801324503	-0.256529801324503	-0.805721854304636	-5.07708609271523	17.2635761589404	14.7843708609272				0.964026490066225	0.0194966887417219	0.197933774834437	-10.4082119205298	16.0119205298013	1.62251655629139				0.479788079470199	-0.398834437086093	-0.676238410596026	0.860397350993377	9.39761589403974	12.125298013245			
145	3200	0.919841059602649	-0.0132450331125828	0.312476821192053	1.15337748344371	14.6953642384106	-1.18490066225166				0.976953642384106	-0.0482119205298013	0.301139072847682	-16.0860927152318	-5.57218543046358	3.61403973509934				0.997827814569536	-0.129271523178808	-0.0719470198675496	-14.832582781457	7.42649006622517	3.15973509933775				0.480529801324503	-0.240529801324503	-0.789721854304636	-9.55708609271523	13.6235761589404	12.2643708609272				0.948026490066225	0.0194966887417219	0.213933774834437	-17.4082119205298	18.8119205298013	2.18251655629139				0.479788079470199	-0.430834437086093	-0.708238410596026	15.4203973509934	11.9176158940397	8.76529801324503			
146	3220	0.935841059602649	-0.0292450331125828	0.328476821192053	-5.84662251655629	16.9353642384106	-1.74490066225166				0.976953642384106	-0.0962119205298013	0.237139072847682	-18.3260927152318	-9.77218543046358	3.33403973509934				0.981827814569536	-0.129271523178808	-0.00794701986754963	-9.23258278145695	7.70649006622517	1.47973509933775				0.496529801324503	-0.256529801324503	-0.789721854304636	-11.5170860927152	11.3835761589404	7.78437086092715				0.980026490066225	0.0194966887417219	0.229933774834437	-13.7682119205298	14.8919205298013	3.58251655629139				0.479788079470199	-0.462834437086093	-0.740238410596026	26.0603973509934	16.1176158940397	4.56529801324503			
147	3240	0.967841059602649	-0.0452450331125828	0.296476821192053	-8.08662251655629	15.5353642384106	-3.14490066225166				0.928953642384106	0.0157880794701987	0.237139072847682	-18.0460927152318	-8.37218543046358	3.61403973509934				0.997827814569536	-0.0972715231788079	0.00805298013245037	-2.51258278145695	6.02649006622517	0.35973509933775				0.512529801324503	-0.272529801324503	-0.773721854304636	-9.83708609271523	11.1035761589404	5.82437086092715				0.996026490066225	0.0354966887417219	0.197933774834437	-15.7282119205298	7.33192052980133	3.30251655629139				0.495788079470199	-0.462834437086093	-0.756238410596026	31.9403973509934	14.7176158940397	3.72529801324503			
148	3260	0.999841059602649	-0.0612450331125828	0.248476821192053	-10.3266225165563	11.0553642384106	-3.14490066225166				0.960953642384106	0.0477880794701987	0.221139072847682	-17.2060927152318	2.26781456953642	4.45403973509934				0.997827814569536	-0.0652715231788079	-0.0239470198675496	3.36741721854305	0.986490066225167	1.47973509933775				0.496529801324503	-0.256529801324503	-0.757721854304636	-7.03708609271523	9.7035761589404	3.30437086092715				0.964026490066225	0.0674966887417219	0.165933774834437	-14.6082119205298	4.53192052980133	5.26251655629139				0.479788079470199	-0.462834437086093	-0.724238410596026	24.9403973509934	7.99761589403974	8.76529801324503			
149	3280	0.999841059602649	-0.0292450331125828	0.168476821192053	-13.4066225165563	8.5353642384106	-2.58490066225166				0.944953642384106	0.0317880794701987	0.269139072847682	-14.9660927152318	5.34781456953642	3.61403973509934				0.965827814569536	-0.0652715231788079	-0.0719470198675496	5.88741721854305	-1.81350993377483	1.47973509933775				0.448529801324503	-0.256529801324503	-0.757721854304636	-0.0370860927152318	12.7835761589404	4.98437086092715				0.932026490066225	0.0674966887417219	0.165933774834437	-10.4082119205298	7.05192052980133	5.26251655629139				0.447788079470199	-0.462834437086093	-0.724238410596026	7.58039735099338	5.19761589403974	13.525298013245			
150	3300	0.999841059602649	-0.0132450331125828	0.136476821192053	-9.20662251655629	3.2153642384106	-2.30490066225166				0.992953642384106	-0.000211920529801304	0.285139072847682	-15.5260927152318	1.70781456953642	7.81403973509934				0.949827814569536	-0.0652715231788079	-0.0719470198675496	1.12741721854305	0.426490066225167	0.91973509933775				0.448529801324503	-0.272529801324503	-0.789721854304636	3.88291390728477	15.8635761589404	6.10437086092715				0.916026490066225	0.0354966887417219	0.181933774834437	-9.5682119205298	10.4119205298013	3.58251655629139				0.447788079470199	-0.398834437086093	-0.740238410596026	2.54039735099338	6.03761589403974	16.325298013245			
151	3320	0.999841059602649	0.00275496688741723	0.136476821192053	-8.92662251655629	-0.424635761589404	-2.30490066225166				0.976953642384106	0.0157880794701987	0.253139072847682	-12.7260927152318	7.30781456953642	7.53403973509934				0.965827814569536	-0.0172715231788079	-0.0559470198675496	3.08741721854305	0.986490066225167	0.35973509933775				0.480529801324503	-0.288529801324503	-0.821721854304636	1.92291390728477	20.3435761589404	4.98437086092715				0.948026490066225	0.0194966887417219	0.181933774834437	-9.2882119205298	12.0919205298013	2.74251655629139				0.447788079470199	-0.350834437086093	-0.740238410596026	3.10039735099338	6.03761589403974	13.805298013245			
152	3340	0.967841059602649	0.0187549668874172	0.152476821192053	-6.12662251655629	0.135364238410596	-0.624900662251656				0.960953642384106	0.0317880794701987	0.269139072847682	-11.0460927152318	-1.09218543046358	3.05403973509934				0.965827814569536	-0.0332715231788079	-0.0879470198675496	2.24741721854305	4.06649006622517	-0.20026490066225				0.464529801324503	-0.304529801324503	-0.821721854304636	-1.43708609271523	19.5035761589404	2.18437086092715				0.964026490066225	0.0354966887417219	0.149933774834437	-9.0082119205298	14.0519205298013	1.34251655629139				0.463788079470199	-0.350834437086093	-0.756238410596026	11.5003973509934	1.83761589403974	9.32529801324503			
153	3360	0.967841059602649	0.0187549668874172	0.184476821192053	-1.36662251655629	4.3353642384106	-0.344900662251656				0.976953642384106	-0.000211920529801304	0.205139072847682	-8.52609271523179	-3.89218543046358	1.65403973509934				0.949827814569536	-0.0332715231788079	-0.10394701986755	5.88741721854305	4.06649006622517	-1.88026490066225				0.464529801324503	-0.288529801324503	-0.837721854304636	-3.11708609271523	16.4235761589404	-1.45562913907285				0.964026490066225	0.0194966887417219	0.149933774834437	-5.0882119205298	15.7319205298013	1.06251655629139				0.463788079470199	-0.366834437086093	-0.740238410596026	18.2203973509934	0.437615894039735	5.40529801324503			
154	3380	0.967841059602649	0.0187549668874172	0.152476821192053	-4.16662251655629	-4.3446357615894	-3.42490066225166				0.960953642384106	0.0797880794701987	0.221139072847682	0.713907284768212	4.50781456953642	2.49403973509934				0.965827814569536	-0.00127152317880793	-0.0879470198675496	-2.51258278145695	-4.05350993377483	-0.20026490066225				0.432529801324503	-0.224529801324503	-0.821721854304636	0.242913907284768	4.6635761589404	1.62437086092715				0.948026490066225	0.0834966887417219	0.181933774834437	0.231788079470198	4.25192052980133	-0.337483443708608				0.511788079470199	-0.398834437086093	-0.740238410596026	4.22039735099338	0.437615894039735	-1.03470198675497			
155	3400	0.967841059602649	0.0187549668874172	0.136476821192053	-7.80662251655629	2.6553642384106	-3.14490066225166				0.960953642384106	-0.000211920529801304	0.205139072847682	-7.12609271523179	4.22781456953642	3.33403973509934				0.965827814569536	-0.0652715231788079	-0.13594701986755	3.36741721854305	5.18649006622517	1.19973509933775				0.464529801324503	-0.272529801324503	-0.805721854304636	-5.63708609271523	3.5435761589404	-6.77562913907285				0.964026490066225	0.0194966887417219	0.165933774834437	-0.328211920529802	11.2519205298013	1.62251655629139				0.447788079470199	-0.382834437086093	-0.724238410596026	14.3003973509934	2.39761589403974	-3.55470198675497			
156	3420	0.983841059602649	0.00275496688741723	0.088476821192053	-8.64662251655629	0.135364238410596	-1.74490066225166				0.944953642384106	0.0317880794701987	0.221139072847682	-9.36609271523179	6.46781456953642	3.33403973509934				0.949827814569536	-0.0972715231788079	-0.15194701986755	4.48741721854305	4.62649006622517	1.47973509933775				0.448529801324503	-0.256529801324503	-0.805721854304636	-2.83708609271523	-0.6564238410596	-6.21562913907285				0.948026490066225	0.0354966887417219	0.149933774834437	0.231788079470198	7.61192052980133	0.222516556291392				0.463788079470199	-0.398834437086093	-0.740238410596026	10.6603973509934	0.437615894039735	-5.51470198675497			
157	3440	0.983841059602649	-0.0132450331125828	0.088476821192053	-4.72662251655629	0.135364238410596	-0.344900662251656				0.976953642384106	0.0477880794701987	0.205139072847682	-10.4860927152318	7.30781456953642	4.17403973509934				0.949827814569536	-0.0492715231788079	-0.13594701986755	4.76741721854305	3.78649006622517	2.31973509933775				0.448529801324503	-0.288529801324503	-0.821721854304636	-0.597086092715232	1.0235761589404	-4.53562913907285				0.964026490066225	0.0674966887417219	0.181933774834437	1.9117880794702	10.4119205298013	-0.897483443708608				0.479788079470199	-0.414834437086093	-0.740238410596026	8.98039735099338	-3.20238410596026	-7.19470198675497			
158	3460	0.999841059602649	0.00275496688741723	0.088476821192053	1.15337748344371	1.2553642384106	0.495099337748344				1.00895364238411	0.0157880794701987	0.205139072847682	-2.92609271523179	9.26781456953642	3.33403973509934				0.965827814569536	-0.0172715231788079	-0.11994701986755	-0.832582781456954	4.34649006622517	3.71973509933775				0.464529801324503	-0.304529801324503	-0.821721854304636	-0.597086092715232	5.7835761589404	-1.17562913907285				0.996026490066225	0.0514966887417219	0.165933774834437	4.1517880794702	12.6519205298013	-0.897483443708608				0.479788079470199	-0.430834437086093	-0.740238410596026	6.74039735099338	-4.88238410596027	-8.31470198675497			
159	3480	0.983841059602649	0.0187549668874172	0.120476821192053	1.71337748344371	2.9353642384106	-0.0649006622516557				1.02495364238411	0.0157880794701987	0.173139072847682	2.67390728476821	5.34781456953642	2.77403973509934				0.997827814569536	-0.0172715231788079	-0.13594701986755	0.847417218543046	6.02649006622517	3.15973509933775				0.480529801324503	-0.304529801324503	-0.805721854304636	-2.83708609271523	9.9835761589404	2.46437086092715				0.996026490066225	0.0194966887417219	0.181933774834437	7.5117880794702	10.4119205298013	-1.73748344370861				0.479788079470199	-0.478834437086093	-0.740238410596026	1.98039735099338	-6.28238410596027	-8.59470198675497			
160	3500	0.951841059602649	0.0187549668874172	0.088476821192053	0.873377483443709	1.5353642384106	-0.344900662251656				0.992953642384106	-0.0162119205298013	0.173139072847682	2.67390728476821	5.90781456953642	3.89403973509934				0.965827814569536	-0.0332715231788079	-0.15194701986755	3.64741721854305	6.86649006622517	1.19973509933775				0.448529801324503	-0.288529801324503	-0.789721854304636	1.08291390728477	13.3435761589404	6.10437086092715				0.996026490066225	0.0194966887417219	0.197933774834437	4.4317880794702	7.05192052980133	-0.617483443708608				0.479788079470199	-0.510834437086093	-0.724238410596026	-6.97960264900662	-6.84238410596027	-4.11470198675497			
161	3520	0.967841059602649	-0.0132450331125828	0.104476821192053	-1.36662251655629	2.6553642384106	-0.344900662251656				0.976953642384106	-0.000211920529801304	0.221139072847682	0.153907284768212	4.22781456953642	4.45403973509934				0.933827814569536	-0.0332715231788079	-0.16794701986755	6.44741721854305	6.02649006622517	-0.48026490066225				0.448529801324503	-0.256529801324503	-0.805721854304636	3.32291390728477	12.7835761589404	8.34437086092715				0.964026490066225	0.0194966887417219	0.197933774834437	3.5917880794702	4.81192052980133	0.782516556291392				0.479788079470199	-0.510834437086093	-0.708238410596026	-12.8596026490066	-5.72238410596027	0.925298013245032			
162	3540	0.983841059602649	-0.0292450331125828	0.104476821192053	0.593377483443709	2.3753642384106	1.61509933774834				0.976953642384106	-0.000211920529801304	0.221139072847682	0.153907284768212	4.78781456953642	3.33403973509934				0.933827814569536	-0.0492715231788079	-0.15194701986755	7.84741721854305	7.42649006622517	1.47973509933775				0.448529801324503	-0.272529801324503	-0.805721854304636	-0.597086092715232	10.2635761589404	8.90437086092715				0.948026490066225	0.0194966887417219	0.197933774834437	0.791788079470198	2.01192052980133	1.34251655629139				0.463788079470199	-0.494834437086093	-0.692238410596026	-10.6196026490066	-4.32238410596027	2.60529801324503			
163	3560	0	0	0	0	0	0				0.976953642384106	-0.0482119205298013	0.221139072847682	1.55390728476821	6.46781456953642	2.21403973509934				0.949827814569536	-0.0812715231788079	-0.13594701986755	5.04741721854305	7.42649006622517	1.19973509933775				0.432529801324503	-0.304529801324503	-0.821721854304636	-1.99708609271523	8.3035761589404	8.34437086092715				0.916026490066225	-0.0125033112582781	0.197933774834437	-2.8482119205298	2.85192052980133	1.06251655629139				0.463788079470199	-0.478834437086093	-0.676238410596026	-7.25960264900662	-3.20238410596026	5.12529801324503			
164	3580	0.951841059602649	-0.0452450331125828	0.120476821192053	3.67337748344371	2.0953642384106	0.775099337748344				0.976953642384106	-0.0802119205298013	0.269139072847682	-1.52609271523179	7.86781456953642	1.37403973509934				0.965827814569536	-0.113271523178808	-0.15194701986755	1.96741721854305	6.02649006622517	1.47973509933775				0.432529801324503	-0.304529801324503	-0.821721854304636	-5.07708609271523	6.0635761589404	8.62437086092715				0.932026490066225	-0.0125033112582781	0.229933774834437	-5.0882119205298	4.53192052980133	-0.897483443708608				0.431788079470199	-0.478834437086093	-0.692238410596026	-2.21960264900662	-3.20238410596026	8.20529801324503			
165	3600	0.967841059602649	-0.0132450331125828	0.104476821192053	2.27337748344371	3.4953642384106	0.495099337748344				0.976953642384106	-0.0482119205298013	0.285139072847682	0.993907284768212	0.0278145695364242	-0.30596026490066				0.997827814569536	-0.113271523178808	-0.11994701986755	0.567417218543046	3.78649006622517	0.91973509933775				0.464529801324503	-0.304529801324503	-0.805721854304636	-10.3970860927152	4.1035761589404	6.94437086092715				0.948026490066225	-0.0125033112582781	0.229933774834437	-8.1682119205298	5.37192052980133	-2.29748344370861				0.431788079470199	-0.446834437086093	-0.692238410596026	-4.45960264900662	0.437615894039735	11.565298013245			
166	3620	0.983841059602649	-0.0292450331125828	0.104476821192053	-2.48662251655629	4.3353642384106	-0.624900662251656				0.976953642384106	-0.0482119205298013	0.253139072847682	-0.126092715231788	-5.85218543046358	-0.86596026490066				1.01382781456954	-0.113271523178808	-0.10394701986755	-2.79258278145695	0.986490066225167	0.91973509933775				0.480529801324503	-0.272529801324503	-0.789721854304636	-11.5170860927152	3.8235761589404	7.22437086092715				0	0	0	0	0	0				0	0	0	0	0	0			
