No	Time	12-AccX	12-AccY	12-AccZ	12-GyroX	12-GyroY	12-GyroZ	13-AccX	13-AccY	13-AccZ	13-GyroX	13-GyroY	13-GyroZ	14-AccX	14-AccY	14-AccZ	14-GyroX	14-GyroY	14-GyroZ	15-AccX	15-AccY	15-AccZ	15-GyroX	15-GyroY	15-GyroZ	16-AccX	16-AccY	16-AccZ	16-GyroX	16-GyroY	16-GyroZ	17-AccX	17-AccY	17-AccZ	17-GyroX	17-GyroY	17-GyroZ
0	100	-0.200158940397351	0.130754966887417	-0.935523178807947	-0.526622516556291	0.135364238410596	-1.18490066225166				0.992953642384106	0.0637880794701987	0.109139072847682	0.433907284768212	-0.532185430463576	0.53403973509934				-0.218172185430464	-0.145271523178808	-0.87194701986755	1.40741721854305	0.146490066225167	-0.48026490066225				0	0	0	0	0	0				0	0	0	0	0	0				0.367788079470199	-0.270834437086093	-0.820238410596026	0.300397350993377	0.157615894039735	-1.31470198675497			
1	120	-0.184158940397351	0.130754966887417	-0.935523178807947	0.593377483443709	0.415364238410596	-1.18490066225166				0.992953642384106	0.0797880794701987	0.0931390728476822	1.83390728476821	-0.532185430463576	1.65403973509934				-0.218172185430464	-0.145271523178808	-0.90394701986755	1.12741721854305	0.426490066225167	-0.76026490066225				0.432529801324503	-0.0965298013245033	-0.869721854304636	1.36291390728477	0.1835761589404	-0.0556291390728476				0.932026490066225	0.0674966887417219	0.309933774834437	0.511788079470198	-1.90807947019868	0.782516556291392				0.351788079470199	-0.286834437086093	-0.836238410596026	-0.539602649006623	0.437615894039735	-1.59470198675497			
2	140	-0.200158940397351	0.114754966887417	-0.951523178807947	0.593377483443709	0.135364238410596	-0.624900662251656				0.992953642384106	0.0797880794701987	0.109139072847682	0.433907284768212	2.26781456953642	0.81403973509934				-0.218172185430464	-0.161271523178808	-0.88794701986755	1.12741721854305	0.426490066225167	-0.20026490066225				0.416529801324503	-0.0965298013245033	-0.853721854304636	0.802913907284768	-0.6564238410596	-0.895629139072848				0.932026490066225	0.0674966887417219	0.293933774834437	0.791788079470198	-1.62807947019868	0.782516556291392				0.367788079470199	-0.270834437086093	-0.852238410596026	0.300397350993377	-0.122384105960265	-0.754701986754968			
3	160	-0.216158940397351	0.114754966887417	-0.951523178807947	0.593377483443709	-0.144635761589404	-0.344900662251656				0.976953642384106	0.0637880794701987	0.109139072847682	-0.126092715231788	4.22781456953642	-0.0259602649006601				-0.218172185430464	-0.161271523178808	-0.88794701986755	0.567417218543046	0.146490066225167	-0.20026490066225				0.416529801324503	-0.0965298013245033	-0.869721854304636	0.522913907284768	-0.3764238410596	-0.335629139072848				0.916026490066225	0.0674966887417219	0.309933774834437	1.0717880794702	-0.508079470198675	0.502516556291392				0.367788079470199	-0.270834437086093	-0.836238410596026	0.300397350993377	-0.682384105960265	-0.754701986754968			
4	180	-0.216158940397351	0.130754966887417	-0.951523178807947	-0.526622516556291	0.415364238410596	-0.624900662251656				0.992953642384106	0.0637880794701987	0.125139072847682	-0.126092715231788	4.78781456953642	-0.0259602649006601				-0.218172185430464	-0.145271523178808	-0.88794701986755	0.847417218543046	-0.133509933774833	-0.76026490066225				0.432529801324503	-0.0965298013245033	-0.869721854304636	1.08291390728477	-0.3764238410596	-0.0556291390728476				0.932026490066225	0.0674966887417219	0.309933774834437	1.3517880794702	0.611920529801325	0.782516556291392				0.367788079470199	-0.270834437086093	-0.820238410596026	0.860397350993377	-1.24238410596026	-1.03470198675497			
5	200	-0.216158940397351	0.130754966887417	-0.935523178807947	-0.246622516556291	0.975364238410596	-0.904900662251656				0.992953642384106	0.0637880794701987	0.109139072847682	0.153907284768212	3.38781456953642	0.81403973509934				-0.218172185430464	-0.129271523178808	-0.88794701986755	0.567417218543046	-0.133509933774833	-0.20026490066225				0.416529801324503	-0.0965298013245033	-0.869721854304636	0.522913907284768	0.1835761589404	0.504370860927152				0.932026490066225	0.0834966887417219	0.309933774834437	1.0717880794702	0.331920529801325	0.782516556291392				0.367788079470199	-0.286834437086093	-0.836238410596026	1.42039735099338	-0.402384105960265	-0.194701986754968			
6	220	-0.216158940397351	0.130754966887417	-0.951523178807947	0.313377483443709	0.135364238410596	-1.18490066225166				0.976953642384106	0.0797880794701987	0.109139072847682	-0.126092715231788	3.10781456953642	0.81403973509934				-0.218172185430464	-0.145271523178808	-0.87194701986755	0.287417218543046	0.146490066225167	0.35973509933775				0.416529801324503	-0.0805298013245033	-0.853721854304636	1.64291390728477	1.0235761589404	0.504370860927152				0.932026490066225	0.0674966887417219	0.309933774834437	1.3517880794702	-1.06807947019868	0.782516556291392				0.367788079470199	-0.286834437086093	-0.836238410596026	-0.819602649006623	0.157615894039735	-0.754701986754968			
7	240	-0.200158940397351	0.130754966887417	-0.951523178807947	0.0333774834437086	0.135364238410596	-1.46490066225166				0.992953642384106	0.0797880794701987	0.125139072847682	-0.406092715231788	4.78781456953642	0.53403973509934				-0.218172185430464	-0.161271523178808	-0.88794701986755	0.847417218543046	0.986490066225167	-0.20026490066225				0.432529801324503	-0.0965298013245033	-0.853721854304636	2.48291390728477	0.1835761589404	0.784370860927152				0.932026490066225	0.0674966887417219	0.293933774834437	1.6317880794702	-1.62807947019868	1.90251655629139				0.367788079470199	-0.270834437086093	-0.836238410596026	-1.09960264900662	-0.402384105960265	-1.03470198675497			
8	260	-0.216158940397351	0.114754966887417	-0.951523178807947	0.0333774834437086	0.695364238410596	-1.18490066225166				0.992953642384106	0.0637880794701987	0.125139072847682	-2.08609271523179	3.38781456953642	-0.0259602649006601				-0.218172185430464	-0.145271523178808	-0.88794701986755	0.00741721854304636	-0.413509933774833	0.0797350993377501				0.432529801324503	-0.0965298013245033	-0.869721854304636	1.08291390728477	0.4635761589404	1.06437086092715				0.916026490066225	0.0834966887417219	0.341933774834437	0.791788079470198	0.611920529801325	1.06251655629139				0.351788079470199	-0.270834437086093	-0.836238410596026	0.300397350993377	-0.682384105960265	-1.87470198675497			
9	280	-0.200158940397351	0.114754966887417	-0.951523178807947	-0.246622516556291	0.695364238410596	-1.46490066225166				0.976953642384106	0.0797880794701987	0.109139072847682	-0.126092715231788	2.82781456953642	0.25403973509934				-0.218172185430464	-0.145271523178808	-0.88794701986755	1.68741721854305	-0.413509933774833	-0.48026490066225				0.432529801324503	-0.112529801324503	-0.885721854304636	1.92291390728477	0.1835761589404	1.90437086092715				0.932026490066225	0.0674966887417219	0.277933774834437	2.4717880794702	-2.46807947019868	0.502516556291392				0.367788079470199	-0.270834437086093	-0.836238410596026	-0.539602649006623	-0.682384105960265	-0.194701986754968			
10	300	-0.200158940397351	0.130754966887417	-0.951523178807947	0.0333774834437086	0.135364238410596	-1.18490066225166				0.976953642384106	0.0797880794701987	0.125139072847682	2.11390728476821	2.82781456953642	0.53403973509934				-0.218172185430464	-0.145271523178808	-0.88794701986755	1.40741721854305	1.26649006622517	-0.76026490066225				0.432529801324503	-0.112529801324503	-0.885721854304636	0.802913907284768	0.4635761589404	1.06437086092715				0.932026490066225	0.0674966887417219	0.309933774834437	0.231788079470198	-0.508079470198675	0.222516556291392				0.351788079470199	-0.286834437086093	-0.820238410596026	-0.819602649006623	0.157615894039735	-0.474701986754968			
11	320	-0.200158940397351	0.130754966887417	-0.935523178807947	0.593377483443709	0.695364238410596	-0.904900662251656				0.992953642384106	0.0797880794701987	0.141139072847682	-0.126092715231788	3.10781456953642	0.25403973509934				-0.218172185430464	-0.145271523178808	-0.87194701986755	0.847417218543046	1.26649006622517	-0.20026490066225				0.416529801324503	-0.0965298013245033	-0.885721854304636	0.242913907284768	-0.0964238410596001	1.34437086092715				0.932026490066225	0.0674966887417219	0.309933774834437	0.511788079470198	0.331920529801325	0.222516556291392				0.367788079470199	-0.270834437086093	-0.820238410596026	-1.09960264900662	0.157615894039735	0.645298013245032			
12	340	-0.216158940397351	0.130754966887417	-0.935523178807947	0.313377483443709	0.135364238410596	-0.344900662251656				0.992953642384106	0.0637880794701987	0.141139072847682	-0.686092715231788	0.867814569536424	-0.0259602649006601				-0.218172185430464	-0.145271523178808	-0.88794701986755	0.00741721854304636	0.146490066225167	-0.20026490066225				0.416529801324503	-0.0965298013245033	-0.869721854304636	1.36291390728477	0.4635761589404	0.784370860927152				0.948026490066225	0.0674966887417219	0.293933774834437	-0.328211920529802	-0.228079470198675	-0.337483443708608				0.351788079470199	-0.270834437086093	-0.836238410596026	-2.49960264900662	0.437615894039735	0.0852980132450323			
13	360	-0.200158940397351	0.114754966887417	-0.951523178807947	0.0333774834437086	0.415364238410596	-0.904900662251656				0.976953642384106	0.0797880794701987	0.125139072847682	-0.406092715231788	2.26781456953642	0.53403973509934				-0.218172185430464	-0.161271523178808	-0.88794701986755	0.847417218543046	0.426490066225167	-0.48026490066225				0.432529801324503	-0.0965298013245033	-0.853721854304636	-0.0370860927152318	-0.3764238410596	-0.335629139072848				0.932026490066225	0.0674966887417219	0.293933774834437	1.0717880794702	-1.62807947019868	0.502516556291392				0.367788079470199	-0.270834437086093	-0.836238410596026	-1.09960264900662	0.437615894039735	-0.754701986754968			
14	380	-0.200158940397351	0.114754966887417	-0.935523178807947	-0.246622516556291	0.695364238410596	-1.18490066225166				0.976953642384106	0.0797880794701987	0.141139072847682	0.153907284768212	4.78781456953642	-0.0259602649006601				-0.218172185430464	-0.161271523178808	-0.88794701986755	0.287417218543046	0.426490066225167	0.0797350993377501				0.432529801324503	-0.0965298013245033	-0.853721854304636	-0.317086092715232	-0.3764238410596	-1.45562913907285				0.932026490066225	0.0834966887417219	0.293933774834437	0.231788079470198	-1.34807947019868	0.222516556291392				0.367788079470199	-0.270834437086093	-0.836238410596026	0.0203973509933773	1.27761589403974	-1.03470198675497			
15	400	-0.200158940397351	0.114754966887417	-0.935523178807947	0.593377483443709	0.415364238410596	-0.904900662251656				0.976953642384106	0.0797880794701987	0.125139072847682	1.27390728476821	5.06781456953642	0.81403973509934				-0.218172185430464	-0.145271523178808	-0.87194701986755	-0.552582781456954	0.146490066225167	-0.48026490066225				0.432529801324503	-0.0805298013245033	-0.853721854304636	1.36291390728477	1.3035761589404	-0.335629139072848				0.932026490066225	0.0834966887417219	0.309933774834437	1.0717880794702	-2.74807947019868	0.502516556291392				0.367788079470199	-0.270834437086093	-0.820238410596026	1.42039735099338	0.717615894039735	-0.754701986754968			
16	420	-0.216158940397351	0.130754966887417	-0.951523178807947	0.593377483443709	0.135364238410596	-0.624900662251656				0.992953642384106	0.0797880794701987	0.125139072847682	0.433907284768212	5.34781456953642	0.25403973509934				-0.234172185430464	-0.145271523178808	-0.88794701986755	-0.272582781456954	0.986490066225167	0.35973509933775				0.432529801324503	-0.0965298013245033	-0.869721854304636	1.64291390728477	0.7435761589404	0.224370860927152				0.916026490066225	0.0674966887417219	0.309933774834437	1.3517880794702	-1.62807947019868	1.06251655629139				0.351788079470199	-0.286834437086093	-0.836238410596026	-1.09960264900662	1.55761589403974	0.0852980132450323			
17	440	-0.216158940397351	0.130754966887417	-0.951523178807947	0.313377483443709	0.415364238410596	-1.46490066225166				0.992953642384106	0.0797880794701987	0.141139072847682	0.153907284768212	4.78781456953642	-0.0259602649006601				-0.218172185430464	-0.161271523178808	-0.88794701986755	0.847417218543046	-0.133509933774833	0.35973509933775				0.432529801324503	-0.0965298013245033	-0.869721854304636	0.522913907284768	-0.0964238410596001	-0.0556291390728476				0.916026490066225	0.0674966887417219	0.309933774834437	0.791788079470198	-1.34807947019868	0.222516556291392				0.367788079470199	-0.270834437086093	-0.836238410596026	-1.37960264900662	0.437615894039735	-0.194701986754968			
18	460	-0.200158940397351	0.130754966887417	-0.951523178807947	0.0333774834437086	0.975364238410596	-0.904900662251656				0.992953642384106	0.0637880794701987	0.141139072847682	-1.52609271523179	4.50781456953642	-0.0259602649006601				-0.218172185430464	-0.145271523178808	-0.88794701986755	0.00741721854304636	0.146490066225167	-0.20026490066225				0.432529801324503	-0.0965298013245033	-0.853721854304636	0.522913907284768	-0.6564238410596	-0.0556291390728476				0.916026490066225	0.0834966887417219	0.309933774834437	-0.328211920529802	-1.62807947019868	-0.897483443708608				0.367788079470199	-0.254834437086093	-0.836238410596026	-0.819602649006623	-0.682384105960265	-1.31470198675497			
19	480	-0.200158940397351	0.114754966887417	-0.935523178807947	-0.246622516556291	0.695364238410596	-0.0649006622516557				0.976953642384106	0.0797880794701987	0.141139072847682	0.433907284768212	2.82781456953642	-0.86596026490066				-0.218172185430464	-0.145271523178808	-0.88794701986755	0.567417218543046	0.146490066225167	-0.48026490066225				0.416529801324503	-0.0965298013245033	-0.869721854304636	0.522913907284768	-0.3764238410596	0.784370860927152				0.916026490066225	0.0674966887417219	0.309933774834437	0.231788079470198	-1.90807947019868	-0.0574834437086077				0.367788079470199	-0.270834437086093	-0.836238410596026	0.580397350993377	-1.24238410596026	-1.59470198675497			
20	500	-0.200158940397351	0.114754966887417	-0.951523178807947	-0.246622516556291	0.135364238410596	-0.904900662251656				0.976953642384106	0.0797880794701987	0.125139072847682	0.153907284768212	2.54781456953642	-0.30596026490066				-0.218172185430464	-0.145271523178808	-0.87194701986755	0.847417218543046	-0.133509933774833	0.0797350993377501				0.432529801324503	-0.0965298013245033	-0.853721854304636	0.522913907284768	-0.3764238410596	0.224370860927152				0.932026490066225	0.0674966887417219	0.309933774834437	-0.608211920529802	-1.62807947019868	0.222516556291392				0.351788079470199	-0.286834437086093	-0.820238410596026	0.580397350993377	-0.682384105960265	-2.15470198675497			
21	520	-0.216158940397351	0.114754966887417	-0.935523178807947	-0.526622516556291	-0.424635761589404	-0.624900662251656				0.976953642384106	0.0797880794701987	0.125139072847682	-0.126092715231788	2.82781456953642	-0.0259602649006601				-0.218172185430464	-0.161271523178808	-0.88794701986755	0.847417218543046	0.146490066225167	0.0797350993377501				0.432529801324503	-0.0965298013245033	-0.869721854304636	1.08291390728477	-0.6564238410596	-0.0556291390728476				0.948026490066225	0.0674966887417219	0.293933774834437	-0.888211920529802	-1.34807947019868	-0.617483443708608				0.351788079470199	-0.286834437086093	-0.836238410596026	-1.09960264900662	-0.402384105960265	-1.59470198675497			
22	540	-0.200158940397351	0.114754966887417	-0.951523178807947	0.593377483443709	0.415364238410596	-0.624900662251656				0.976953642384106	0.0797880794701987	0.125139072847682	-0.126092715231788	4.78781456953642	-0.585960264900661				-0.218172185430464	-0.145271523178808	-0.88794701986755	0.567417218543046	-0.133509933774833	-0.48026490066225				0.416529801324503	-0.0965298013245033	-0.869721854304636	0.802913907284768	-0.0964238410596001	-0.335629139072848				0.932026490066225	0.0834966887417219	0.293933774834437	-0.608211920529802	-2.74807947019868	-0.337483443708608				0.367788079470199	-0.254834437086093	-0.836238410596026	-2.21960264900662	0.157615894039735	-2.15470198675497			
23	560	-0.200158940397351	0.130754966887417	-0.951523178807947	-1.08662251655629	0.695364238410596	-0.904900662251656				0.992953642384106	0.0637880794701987	0.141139072847682	-0.686092715231788	6.18781456953642	-0.0259602649006601				-0.218172185430464	-0.161271523178808	-0.88794701986755	-0.552582781456954	0.426490066225167	-0.20026490066225				0.416529801324503	-0.0965298013245033	-0.869721854304636	-0.0370860927152318	-0.0964238410596001	-0.335629139072848				0.916026490066225	0.0834966887417219	0.293933774834437	-1.4482119205298	-0.788079470198675	-0.337483443708608				0.351788079470199	-0.270834437086093	-0.836238410596026	0.300397350993377	-0.682384105960265	-1.59470198675497			
24	580	-0.200158940397351	0.130754966887417	-0.935523178807947	-0.246622516556291	0.695364238410596	-0.344900662251656				0.976953642384106	0.0797880794701987	0.157139072847682	-0.126092715231788	4.22781456953642	-0.30596026490066				-0.202172185430464	-0.145271523178808	-0.88794701986755	1.40741721854305	0.706490066225167	-0.20026490066225				0.432529801324503	-0.0965298013245033	-0.869721854304636	-0.597086092715232	-0.3764238410596	-0.335629139072848				0.932026490066225	0.0834966887417219	0.293933774834437	0.791788079470198	-2.18807947019868	-0.617483443708608				0.351788079470199	-0.270834437086093	-0.836238410596026	0.300397350993377	-0.402384105960265	-1.87470198675497			
25	600	-0.200158940397351	0.130754966887417	-0.935523178807947	-0.246622516556291	-0.144635761589404	-0.904900662251656				0.992953642384106	0.0637880794701987	0.141139072847682	0.153907284768212	5.06781456953642	-0.0259602649006601				-0.218172185430464	-0.145271523178808	-0.87194701986755	0.287417218543046	0.146490066225167	-0.20026490066225				0.416529801324503	-0.0965298013245033	-0.869721854304636	1.08291390728477	-0.3764238410596	-0.895629139072848				0.932026490066225	0.0674966887417219	0.309933774834437	-0.0482119205298018	-1.06807947019868	-0.0574834437086077				0.367788079470199	-0.270834437086093	-0.852238410596026	-0.819602649006623	0.437615894039735	-1.31470198675497			
26	620	-0.200158940397351	0.130754966887417	-0.951523178807947	0.0333774834437086	0.415364238410596	-1.18490066225166				0.976953642384106	0.0797880794701987	0.141139072847682	0.433907284768212	4.22781456953642	-0.30596026490066				-0.218172185430464	-0.161271523178808	-0.88794701986755	-0.272582781456954	0.146490066225167	-0.76026490066225				0.432529801324503	-0.0805298013245033	-0.853721854304636	0.242913907284768	-0.3764238410596	-0.895629139072848				0.916026490066225	0.0834966887417219	0.293933774834437	-0.0482119205298018	-2.18807947019868	0.222516556291392				0.367788079470199	-0.270834437086093	-0.836238410596026	-0.819602649006623	0.997615894039735	-1.59470198675497			
27	640	-0.216158940397351	0.130754966887417	-0.951523178807947	-1.08662251655629	0.415364238410596	-0.624900662251656				0.976953642384106	0.0797880794701987	0.141139072847682	-0.406092715231788	6.46781456953642	-0.30596026490066				-0.218172185430464	-0.145271523178808	-0.87194701986755	0.00741721854304636	-0.133509933774833	-0.20026490066225				0.432529801324503	-0.0965298013245033	-0.869721854304636	1.08291390728477	0.4635761589404	-1.17562913907285				0.916026490066225	0.0834966887417219	0.293933774834437	1.0717880794702	-2.74807947019868	-0.617483443708608				0.367788079470199	-0.254834437086093	-0.836238410596026	-0.819602649006623	0.437615894039735	-2.15470198675497			
28	660	-0.216158940397351	0.130754966887417	-0.935523178807947	0.873377483443709	0.415364238410596	-0.904900662251656				0.992953642384106	0.0797880794701987	0.157139072847682	-1.24609271523179	7.30781456953642	0.25403973509934				-0.218172185430464	-0.145271523178808	-0.88794701986755	-0.272582781456954	0.706490066225167	-0.20026490066225				0.432529801324503	-0.0965298013245033	-0.869721854304636	1.08291390728477	1.0235761589404	-1.45562913907285				0.916026490066225	0.0834966887417219	0.309933774834437	1.3517880794702	-1.34807947019868	0.222516556291392				0.367788079470199	-0.254834437086093	-0.836238410596026	0.300397350993377	-0.402384105960265	-2.15470198675497			
29	680	-0.200158940397351	0.130754966887417	-0.935523178807947	0.313377483443709	0.975364238410596	-1.18490066225166				0.976953642384106	0.0797880794701987	0.157139072847682	-0.406092715231788	5.90781456953642	0.25403973509934				-0.218172185430464	-0.145271523178808	-0.88794701986755	0.287417218543046	0.706490066225167	-0.48026490066225				0.432529801324503	-0.0965298013245033	-0.869721854304636	1.08291390728477	0.4635761589404	-0.895629139072848				0.916026490066225	0.0834966887417219	0.293933774834437	1.9117880794702	-1.62807947019868	-0.0574834437086077				0.367788079470199	-0.270834437086093	-0.836238410596026	-0.259602649006623	-0.122384105960265	-2.15470198675497			
30	700	-0.200158940397351	0.130754966887417	-0.951523178807947	-0.806622516556291	0.415364238410596	-1.18490066225166				0.976953642384106	0.0797880794701987	0.157139072847682	0.433907284768212	3.38781456953642	0.25403973509934				-0.218172185430464	-0.145271523178808	-0.88794701986755	0.287417218543046	-0.133509933774833	-0.20026490066225				0.432529801324503	-0.0965298013245033	-0.853721854304636	1.08291390728477	0.1835761589404	-0.895629139072848				0.932026490066225	0.0834966887417219	0.309933774834437	0.791788079470198	-3.02807947019868	0.222516556291392				0.367788079470199	-0.270834437086093	-0.836238410596026	-0.539602649006623	0.717615894039735	-1.59470198675497			
31	720	-0.200158940397351	0.130754966887417	-0.951523178807947	-0.806622516556291	-0.144635761589404	-0.624900662251656				0.976953642384106	0.0797880794701987	0.141139072847682	0.153907284768212	2.82781456953642	0.81403973509934				-0.218172185430464	-0.145271523178808	-0.87194701986755	0.847417218543046	-0.413509933774833	-0.20026490066225				0.416529801324503	-0.0965298013245033	-0.869721854304636	0.802913907284768	0.4635761589404	-0.615629139072848				0.932026490066225	0.0834966887417219	0.293933774834437	0.511788079470198	-3.02807947019868	-0.0574834437086077				0.367788079470199	-0.270834437086093	-0.820238410596026	-1.37960264900662	0.997615894039735	-1.59470198675497			
32	740	-0.200158940397351	0.130754966887417	-0.935523178807947	0.0333774834437086	0.135364238410596	-0.624900662251656				0.992953642384106	0.0797880794701987	0.157139072847682	-1.52609271523179	3.94781456953642	-0.0259602649006601				-0.218172185430464	-0.145271523178808	-0.88794701986755	0.00741721854304636	-0.133509933774833	0.35973509933775				0.432529801324503	-0.0965298013245033	-0.853721854304636	2.20291390728477	1.0235761589404	0.784370860927152				0.932026490066225	0.0834966887417219	0.293933774834437	1.3517880794702	-2.74807947019868	-0.337483443708608				0.367788079470199	-0.270834437086093	-0.836238410596026	-1.37960264900662	0.437615894039735	-1.03470198675497			
33	760	-0.216158940397351	0.130754966887417	-0.935523178807947	-0.526622516556291	0.975364238410596	-0.904900662251656				0.992953642384106	0.0797880794701987	0.173139072847682	-0.966092715231788	4.22781456953642	-0.0259602649006601				-0.218172185430464	-0.145271523178808	-0.88794701986755	1.12741721854305	0.986490066225167	-0.20026490066225				0.432529801324503	-0.112529801324503	-0.821721854304636	0.802913907284768	-0.0964238410596001	-0.0556291390728476				0.916026490066225	0.0834966887417219	0.293933774834437	-0.0482119205298018	-2.46807947019868	-0.0574834437086077				0.383788079470199	-0.254834437086093	-0.852238410596026	0.0203973509933773	-0.402384105960265	-1.03470198675497			
34	780	-0.200158940397351	0.130754966887417	-0.935523178807947	0.313377483443709	0.415364238410596	-0.624900662251656				0.976953642384106	0.0637880794701987	0.173139072847682	0.433907284768212	3.10781456953642	-0.0259602649006601				-0.218172185430464	-0.145271523178808	-0.87194701986755	1.68741721854305	-0.133509933774833	-0.76026490066225				0.432529801324503	-0.0965298013245033	-0.853721854304636	0.242913907284768	-0.0964238410596001	-0.615629139072848				0.932026490066225	0.0674966887417219	0.293933774834437	-0.888211920529802	-2.46807947019868	-0.0574834437086077				0.367788079470199	-0.270834437086093	-0.836238410596026	0.580397350993377	-0.402384105960265	-1.87470198675497			
35	800	-0.200158940397351	0.130754966887417	-0.935523178807947	-0.526622516556291	-0.144635761589404	-1.18490066225166				0.976953642384106	0.0637880794701987	0.157139072847682	0.153907284768212	1.70781456953642	-0.0259602649006601				-0.218172185430464	-0.145271523178808	-0.87194701986755	0.287417218543046	0.426490066225167	-0.48026490066225				0.416529801324503	-0.0965298013245033	-0.869721854304636	1.36291390728477	0.4635761589404	-0.0556291390728476				0.932026490066225	0.0674966887417219	0.293933774834437	0.231788079470198	-1.34807947019868	0.222516556291392				0.367788079470199	-0.270834437086093	-0.836238410596026	-0.539602649006623	-0.402384105960265	0.0852980132450323			
36	820	-0.216158940397351	0.130754966887417	-0.951523178807947	0.0333774834437086	0.415364238410596	-1.18490066225166				0.992953642384106	0.0797880794701987	0.173139072847682	-0.686092715231788	2.82781456953642	0.53403973509934				-0.218172185430464	-0.161271523178808	-0.88794701986755	0.00741721854304636	0.986490066225167	-1.04026490066225				0.432529801324503	-0.0965298013245033	-0.869721854304636	1.08291390728477	1.0235761589404	-0.0556291390728476				0.932026490066225	0.0674966887417219	0.277933774834437	0.231788079470198	-0.788079470198675	0.222516556291392				0.367788079470199	-0.254834437086093	-0.836238410596026	-1.93960264900662	0.717615894039735	-0.194701986754968			
37	840	-0.216158940397351	0.114754966887417	-0.935523178807947	0.0333774834437086	0.415364238410596	-0.624900662251656				0.976953642384106	0.0797880794701987	0.173139072847682	-1.24609271523179	3.10781456953642	-0.30596026490066				-0.218172185430464	-0.145271523178808	-0.88794701986755	-0.552582781456954	-0.413509933774833	-0.20026490066225				0.416529801324503	-0.0965298013245033	-0.853721854304636	1.36291390728477	0.7435761589404	0.784370860927152				0.932026490066225	0.0834966887417219	0.293933774834437	0.791788079470198	-0.228079470198675	0.222516556291392				0.367788079470199	-0.254834437086093	-0.836238410596026	0.0203973509933773	0.717615894039735	-1.31470198675497			
38	860	-0.216158940397351	0.130754966887417	-0.935523178807947	0.313377483443709	0.695364238410596	-1.18490066225166				0.976953642384106	0.0797880794701987	0.157139072847682	-1.24609271523179	3.10781456953642	-0.0259602649006601				-0.218172185430464	-0.145271523178808	-0.88794701986755	0.567417218543046	0.146490066225167	0.0797350993377501				0.432529801324503	-0.0965298013245033	-0.869721854304636	1.64291390728477	-0.3764238410596	0.784370860927152				0.932026490066225	0.0834966887417219	0.277933774834437	-0.608211920529802	-1.90807947019868	0.782516556291392				0.367788079470199	-0.270834437086093	-0.836238410596026	-0.539602649006623	-0.122384105960265	-1.03470198675497			
39	880	-0.216158940397351	0.130754966887417	-0.919523178807947	-0.806622516556291	0.135364238410596	-0.904900662251656				0.992953642384106	0.0797880794701987	0.157139072847682	-0.126092715231788	2.26781456953642	0.53403973509934				-0.218172185430464	-0.145271523178808	-0.88794701986755	1.12741721854305	0.426490066225167	0.63973509933775				0.416529801324503	-0.0965298013245033	-0.869721854304636	0.242913907284768	0.1835761589404	-0.615629139072848				0.932026490066225	0.0834966887417219	0.293933774834437	1.0717880794702	-3.02807947019868	0.782516556291392				0.367788079470199	-0.270834437086093	-0.852238410596026	-1.37960264900662	-0.682384105960265	-1.59470198675497			
40	900	-0.200158940397351	0.114754966887417	-0.951523178807947	0.593377483443709	-0.144635761589404	-0.624900662251656				0.976953642384106	0.0797880794701987	0.173139072847682	0.433907284768212	1.14781456953642	-0.30596026490066				-0.218172185430464	-0.145271523178808	-0.88794701986755	0.567417218543046	0.146490066225167	0.35973509933775				0.432529801324503	-0.0965298013245033	-0.869721854304636	1.64291390728477	0.7435761589404	-0.0556291390728476				0.932026490066225	0.0834966887417219	0.293933774834437	-0.888211920529802	-1.34807947019868	0.222516556291392				0.351788079470199	-0.254834437086093	-0.836238410596026	-0.819602649006623	1.27761589403974	-2.15470198675497			
41	920	-0.200158940397351	0.114754966887417	-0.951523178807947	-0.246622516556291	0.135364238410596	-0.624900662251656				0.976953642384106	0.0637880794701987	0.173139072847682	0.153907284768212	0.587814569536424	0.81403973509934				-0.218172185430464	-0.145271523178808	-0.88794701986755	0.287417218543046	-0.133509933774833	-0.20026490066225				0.432529801324503	-0.112529801324503	-0.869721854304636	1.08291390728477	0.7435761589404	-0.335629139072848				0.916026490066225	0.0674966887417219	0.277933774834437	0.231788079470198	-0.228079470198675	-0.0574834437086077				0.367788079470199	-0.238834437086093	-0.852238410596026	0.0203973509933773	0.997615894039735	-2.43470198675497			
42	940	-0.200158940397351	0.114754966887417	-0.951523178807947	-0.526622516556291	0.695364238410596	-0.624900662251656				0.976953642384106	0.0797880794701987	0.173139072847682	-0.966092715231788	0.867814569536424	0.53403973509934				-0.218172185430464	-0.145271523178808	-0.88794701986755	0.847417218543046	0.146490066225167	-0.48026490066225				0.432529801324503	-0.0965298013245033	-0.869721854304636	2.48291390728477	-0.9364238410596	0.224370860927152				0.916026490066225	0.0834966887417219	0.277933774834437	-0.608211920529802	-1.34807947019868	-0.337483443708608				0.367788079470199	-0.270834437086093	-0.836238410596026	1.14039735099338	-1.24238410596026	-1.87470198675497			
43	960	-0.200158940397351	0.130754966887417	-0.951523178807947	-0.526622516556291	-0.424635761589404	-0.624900662251656				0	0	0	0	0	0				0	0	0	0	0	0				0	0	0	0	0	0				0	0	0	0	0	0				0	0	0	0	0	0			
44	1060	0	0	0	0	0	0				0	0	0	0	0	0				0	0	0	0	0	0				0.432529801324503	-0.112529801324503	-0.885721854304636	0.242913907284768	0.4635761589404	0.784370860927152				0.916026490066225	0.0674966887417219	0.293933774834437	-0.0482119205298018	-0.228079470198675	0.222516556291392				0.367788079470199	-0.254834437086093	-0.836238410596026	-1.37960264900662	0.157615894039735	0.365298013245032			
45	1080	-0.200158940397351	0.130754966887417	-0.951523178807947	-0.526622516556291	1.5353642384106	-1.18490066225166				0.976953642384106	0.0797880794701987	0.173139072847682	0.993907284768212	-1.09218543046358	0.81403973509934				-0.218172185430464	-0.145271523178808	-0.87194701986755	1.40741721854305	0.706490066225167	-0.20026490066225				0.432529801324503	-0.0965298013245033	-0.869721854304636	-0.877086092715232	-0.3764238410596	1.34437086092715				0.932026490066225	0.0674966887417219	0.293933774834437	0.511788079470198	0.611920529801325	-0.0574834437086077				0.367788079470199	-0.254834437086093	-0.836238410596026	0.580397350993377	-0.682384105960265	0.365298013245032			
46	1100	-0.200158940397351	0.114754966887417	-0.935523178807947	0.593377483443709	-0.144635761589404	-1.18490066225166				0.976953642384106	0.0797880794701987	0.157139072847682	0.993907284768212	-2.21218543046358	0.25403973509934				-0.218172185430464	-0.145271523178808	-0.87194701986755	1.40741721854305	0.146490066225167	-0.48026490066225				0.432529801324503	-0.0965298013245033	-0.869721854304636	0.522913907284768	-0.0964238410596001	1.34437086092715				0.932026490066225	0.0674966887417219	0.293933774834437	0.791788079470198	-0.228079470198675	-0.0574834437086077				0.367788079470199	-0.254834437086093	-0.836238410596026	-0.259602649006623	0.437615894039735	0.0852980132450323			
47	1120	-0.200158940397351	0.130754966887417	-0.951523178807947	0.0333774834437086	0.135364238410596	-0.904900662251656				0.976953642384106	0.0797880794701987	0.157139072847682	0.713907284768212	-0.812185430463576	0.53403973509934				-0.218172185430464	-0.145271523178808	-0.87194701986755	-0.552582781456954	-0.133509933774833	0.0797350993377501				0.416529801324503	-0.0965298013245033	-0.853721854304636	-0.317086092715232	-0.6564238410596	0.784370860927152				0.932026490066225	0.0674966887417219	0.293933774834437	-0.608211920529802	-1.06807947019868	0.222516556291392				0.351788079470199	-0.254834437086093	-0.820238410596026	0.580397350993377	1.55761589403974	-0.474701986754968			
48	1140	-0.200158940397351	0.114754966887417	-0.935523178807947	-1.64662251655629	-0.144635761589404	-0.904900662251656				0.976953642384106	0.0797880794701987	0.173139072847682	0.153907284768212	-0.252185430463576	0.53403973509934				-0.218172185430464	-0.145271523178808	-0.88794701986755	-0.552582781456954	0.426490066225167	-0.48026490066225				0.432529801324503	-0.0805298013245033	-0.869721854304636	0.802913907284768	-0.6564238410596	-0.335629139072848				0.900026490066225	0.0834966887417219	0.293933774834437	-0.0482119205298018	0.891920529801325	-0.337483443708608				0.351788079470199	-0.270834437086093	-0.836238410596026	0.860397350993377	0.157615894039735	-0.194701986754968			
49	1160	-0.200158940397351	0.114754966887417	-0.951523178807947	-1.08662251655629	0.135364238410596	-0.344900662251656				0.976953642384106	0.0797880794701987	0.173139072847682	0.153907284768212	0.867814569536424	0.25403973509934				-0.218172185430464	-0.145271523178808	-0.88794701986755	-0.272582781456954	0.706490066225167	-0.48026490066225				0.432529801324503	-0.0965298013245033	-0.869721854304636	0.522913907284768	0.1835761589404	-1.17562913907285				0.916026490066225	0.0834966887417219	0.277933774834437	0.231788079470198	-1.06807947019868	0.222516556291392				0.367788079470199	-0.254834437086093	-0.836238410596026	0.0203973509933773	-0.122384105960265	-0.474701986754968			
50	1180	-0.216158940397351	0.114754966887417	-0.935523178807947	-0.246622516556291	0.415364238410596	-0.904900662251656				0.992953642384106	0.0797880794701987	0.173139072847682	0.433907284768212	1.42781456953642	0.81403973509934				-0.218172185430464	-0.145271523178808	-0.87194701986755	0.567417218543046	-0.133509933774833	-0.48026490066225				0.432529801324503	-0.0805298013245033	-0.853721854304636	-0.0370860927152318	-0.0964238410596001	-1.45562913907285				0.932026490066225	0.0834966887417219	0.277933774834437	0.231788079470198	0.0519205298013249	-0.0574834437086077				0.351788079470199	-0.254834437086093	-0.836238410596026	2.82039735099338	-0.682384105960265	0.0852980132450323			
51	1200	-0.216158940397351	0.130754966887417	-0.951523178807947	-0.246622516556291	0.135364238410596	-1.18490066225166				0.976953642384106	0.0797880794701987	0.173139072847682	0.993907284768212	0.307814569536424	1.37403973509934				-0.218172185430464	-0.145271523178808	-0.87194701986755	1.12741721854305	-0.413509933774833	-0.20026490066225				0.416529801324503	-0.0965298013245033	-0.869721854304636	-0.0370860927152318	0.1835761589404	-0.895629139072848				0.932026490066225	0.0834966887417219	0.293933774834437	0.511788079470198	1.17192052980133	0.502516556291392				0.351788079470199	-0.270834437086093	-0.836238410596026	2.54039735099338	0.717615894039735	-0.194701986754968			
52	1220	-0.200158940397351	0.114754966887417	-0.951523178807947	-0.806622516556291	-0.144635761589404	-0.344900662251656				0.976953642384106	0.0797880794701987	0.141139072847682	-0.126092715231788	0.307814569536424	0.81403973509934				-0.218172185430464	-0.145271523178808	-0.88794701986755	0.847417218543046	0.146490066225167	-0.20026490066225				0.416529801324503	-0.0805298013245033	-0.869721854304636	-0.597086092715232	-0.3764238410596	-0.895629139072848				0.932026490066225	0.0514966887417219	0.277933774834437	0.511788079470198	0.611920529801325	-0.0574834437086077				0.351788079470199	-0.270834437086093	-0.836238410596026	0.860397350993377	2.11761589403974	0.925298013245032			
53	1240	-0.200158940397351	0.114754966887417	-0.935523178807947	-0.526622516556291	-0.424635761589404	-1.18490066225166				0.976953642384106	0.0797880794701987	0.157139072847682	0.433907284768212	2.82781456953642	1.37403973509934				-0.202172185430464	-0.145271523178808	-0.90394701986755	-0.272582781456954	-0.973509933774833	-0.48026490066225				0.400529801324503	-0.0645298013245033	-0.885721854304636	-1.99708609271523	-3.1764238410596	-0.335629139072848				0.948026490066225	0.0674966887417219	0.293933774834437	-0.328211920529802	0.331920529801325	0.222516556291392				0.367788079470199	-0.270834437086093	-0.836238410596026	1.14039735099338	2.11761589403974	1.20529801324503			
54	1260	-0.184158940397351	0.114754966887417	-0.935523178807947	-0.246622516556291	-0.144635761589404	-0.624900662251656				0.976953642384106	0.0637880794701987	0.157139072847682	0.993907284768212	1.42781456953642	1.65403973509934				-0.202172185430464	-0.145271523178808	-0.88794701986755	1.12741721854305	-0.693509933774834	-1.32026490066225				0.400529801324503	-0.0805298013245033	-0.885721854304636	0.522913907284768	-0.6564238410596	1.34437086092715				0.948026490066225	0.0674966887417219	0.277933774834437	-1.4482119205298	-2.74807947019868	0.222516556291392				0.351788079470199	-0.286834437086093	-0.868238410596026	2.54039735099338	4.07761589403974	0.645298013245032			
55	1280	-0.184158940397351	0.114754966887417	-0.951523178807947	0.313377483443709	-1.5446357615894	-0.904900662251656				0.992953642384106	0.0637880794701987	0.141139072847682	0.433907284768212	0.307814569536424	1.37403973509934				-0.218172185430464	-0.145271523178808	-0.87194701986755	0.287417218543046	-0.973509933774833	-1.04026490066225				0.400529801324503	-0.112529801324503	-0.917721854304636	1.64291390728477	-1.2164238410596	-1.73562913907285				0.932026490066225	0.0674966887417219	0.261933774834437	-1.1682119205298	-3.02807947019868	0.222516556291392				0.335788079470199	-0.270834437086093	-0.852238410596026	-0.819602649006623	6.03761589403974	1.48529801324503			
56	1300	-0.200158940397351	0.114754966887417	-0.951523178807947	-2.48662251655629	-2.6646357615894	-0.0649006622516557				1.00895364238411	0.0797880794701987	0.173139072847682	-0.966092715231788	-8.09218543046358	1.09403973509934				-0.202172185430464	-0.145271523178808	-0.87194701986755	-0.272582781456954	-0.693509933774834	-2.16026490066225				0.384529801324503	-0.0965298013245033	-0.917721854304636	0.802913907284768	-0.3764238410596	-1.73562913907285				0.948026490066225	0.0674966887417219	0.261933774834437	-1.4482119205298	-1.90807947019868	-0.0574834437086077				0.351788079470199	-0.270834437086093	-0.868238410596026	-0.539602649006623	4.63761589403974	3.44529801324503			
57	1320	-0.216158940397351	0.0987549668874172	-0.951523178807947	-1.64662251655629	-1.5446357615894	-0.0649006622516557				0.992953642384106	0.0797880794701987	0.157139072847682	-2.36609271523179	-20.4121854304636	1.09403973509934				-0.234172185430464	-0.161271523178808	-0.88794701986755	0.567417218543046	-2.09350993377483	-2.16026490066225				0.368529801324503	-0.0805298013245033	-0.917721854304636	2.76291390728477	1.0235761589404	-1.73562913907285				0.948026490066225	0.0834966887417219	0.229933774834437	-1.7282119205298	-3.02807947019868	-0.337483443708608				0.335788079470199	-0.254834437086093	-0.868238410596026	-0.539602649006623	4.91761589403974	7.36529801324503			
58	1340	-0.216158940397351	0.114754966887417	-0.935523178807947	-1.36662251655629	-1.2646357615894	0.775099337748344				0.976953642384106	0.0797880794701987	0.109139072847682	-3.76609271523179	-15.9321854304636	0.81403973509934				-0.218172185430464	-0.145271523178808	-0.88794701986755	0.287417218543046	-1.53350993377483	-2.16026490066225				0.368529801324503	-0.0965298013245033	-0.853721854304636	9.20291390728477	-1.4964238410596	-3.41562913907285				0.932026490066225	0.0674966887417219	0.229933774834437	-0.0482119205298018	2.57192052980133	-1.17748344370861				0.303788079470199	-0.254834437086093	-0.852238410596026	-0.259602649006623	9.67761589403974	9.04529801324503			
59	1360	-0.216158940397351	0.114754966887417	-0.951523178807947	-2.20662251655629	-0.424635761589404	0.775099337748344				0.976953642384106	0.0797880794701987	0.141139072847682	-4.32609271523179	-5.29218543046358	2.49403973509934				-0.234172185430464	-0.145271523178808	-0.90394701986755	1.68741721854305	-2.65350993377483	-2.16026490066225				0.368529801324503	-0.112529801324503	-0.901721854304636	2.76291390728477	-3.7364238410596	-6.21562913907285				0.916026490066225	0.0834966887417219	0.245933774834437	-2.8482119205298	5.09192052980133	-0.617483443708608				0.319788079470199	-0.254834437086093	-0.852238410596026	-2.21960264900662	8.55761589403974	7.92529801324503			
60	1380	-0.200158940397351	0.130754966887417	-0.935523178807947	-3.32662251655629	-0.704635761589404	0.495099337748344				0.976953642384106	0.0957880794701987	0.141139072847682	-1.80609271523179	-0.532185430463576	2.77403973509934				-0.218172185430464	-0.145271523178808	-0.88794701986755	1.12741721854305	-1.81350993377483	-1.88026490066225				0.384529801324503	-0.144529801324503	-0.885721854304636	0.242913907284768	-2.0564238410596	-7.05562913907285				0.932026490066225	0.0994966887417219	0.245933774834437	-3.6882119205298	5.65192052980133	1.34251655629139				0.335788079470199	-0.238834437086093	-0.868238410596026	-1.37960264900662	8.55761589403974	11.565298013245			
61	1400	-0.216158940397351	0.130754966887417	-0.919523178807947	-1.36662251655629	-2.1046357615894	1.61509933774834				0.960953642384106	0.0957880794701987	0.109139072847682	-0.406092715231788	4.78781456953642	3.33403973509934				-0.218172185430464	-0.129271523178808	-0.88794701986755	0.847417218543046	-1.53350993377483	-2.72026490066225				0.384529801324503	-0.128529801324503	-0.869721854304636	-2.55708609271523	-1.2164238410596	-7.05562913907285				0.964026490066225	0.0834966887417219	0.245933774834437	-1.1682119205298	7.05192052980133	1.90251655629139				0.319788079470199	-0.238834437086093	-0.900238410596026	0.300397350993377	9.11761589403974	13.525298013245			
62	1420	-0.216158940397351	0.146754966887417	-0.935523178807947	-1.64662251655629	-2.9446357615894	1.61509933774834				0.960953642384106	0.0957880794701987	0.109139072847682	-0.126092715231788	11.5078145695364	3.89403973509934				-0.234172185430464	-0.129271523178808	-0.88794701986755	2.24741721854305	-0.693509933774834	-2.44026490066225				0.352529801324503	-0.128529801324503	-0.885721854304636	-3.95708609271523	0.7435761589404	-5.93562913907285				0.948026490066225	0.0994966887417219	0.245933774834437	-0.888211920529802	6.77192052980133	3.02251655629139				0.335788079470199	-0.222834437086093	-0.868238410596026	2.26039735099338	11.3576158940397	14.365298013245			
63	1440	-0.216158940397351	0.146754966887417	-0.935523178807947	0.0333774834437086	-1.8246357615894	0.215099337748344				0.976953642384106	0.0957880794701987	0.109139072847682	-2.36609271523179	18.5078145695364	5.85403973509934				-0.234172185430464	-0.145271523178808	-0.88794701986755	1.12741721854305	-0.693509933774834	-1.60026490066225				0.336529801324503	-0.112529801324503	-0.869721854304636	-2.83708609271523	4.3835761589404	-3.69562913907285				0.916026490066225	0.0834966887417219	0.245933774834437	-0.888211920529802	9.29192052980133	2.18251655629139				0.335788079470199	-0.238834437086093	-0.868238410596026	6.18039735099338	10.5176158940397	14.085298013245			
64	1460	-0.216158940397351	0.146754966887417	-0.951523178807947	-0.526622516556291	-0.424635761589404	-0.344900662251656				0.976953642384106	0.0957880794701987	0.157139072847682	-3.48609271523179	22.4278145695364	6.13403973509934				-0.234172185430464	-0.145271523178808	-0.88794701986755	6.16741721854305	-0.133509933774833	-2.16026490066225				0.352529801324503	-0.0965298013245033	-0.885721854304636	1.08291390728477	7.1835761589404	-2.29562913907285				0.916026490066225	0.0834966887417219	0.261933774834437	-0.608211920529802	11.2519205298013	2.46251655629139				0.335788079470199	-0.254834437086093	-0.836238410596026	8.70039735099338	7.71761589403974	14.925298013245			
65	1480	-0.232158940397351	0.130754966887417	-0.919523178807947	1.43337748344371	-0.424635761589404	0.215099337748344				0.992953642384106	0.0797880794701987	0.157139072847682	-0.406092715231788	22.4278145695364	6.69403973509934				-0.234172185430464	-0.145271523178808	-0.88794701986755	3.92741721854305	-0.693509933774834	-1.88026490066225				0.368529801324503	-0.128529801324503	-0.901721854304636	-1.43708609271523	8.8635761589404	-2.29562913907285				0.932026490066225	0.0674966887417219	0.261933774834437	-1.4482119205298	12.3719205298013	3.30251655629139				0.351788079470199	-0.286834437086093	-0.836238410596026	7.02039735099338	9.39761589403974	14.365298013245			
66	1500	-0.200158940397351	0.130754966887417	-0.935523178807947	0.593377483443709	-0.424635761589404	-1.46490066225166				0.992953642384106	0.0637880794701987	0.173139072847682	0.993907284768212	21.5878145695364	6.97403973509934				-0.218172185430464	-0.129271523178808	-0.88794701986755	2.80741721854305	-0.413509933774833	-2.16026490066225				0.352529801324503	-0.112529801324503	-0.901721854304636	-1.71708609271523	6.0635761589404	-1.45562913907285				0.932026490066225	0.0514966887417219	0.261933774834437	-0.888211920529802	14.8919205298013	3.30251655629139				0.335788079470199	-0.270834437086093	-0.884238410596026	10.1003973509934	13.8776158940397	15.485298013245			
67	1520	-0.184158940397351	0.130754966887417	-0.919523178807947	-1.08662251655629	-1.8246357615894	-1.74490066225166				0.992953642384106	0.0797880794701987	0.141139072847682	-0.406092715231788	18.2278145695364	5.29403973509934				-0.202172185430464	-0.145271523178808	-0.90394701986755	7.28741721854305	0.986490066225167	-3.00026490066225				0.384529801324503	-0.128529801324503	-0.901721854304636	-1.15708609271523	4.3835761589404	-0.895629139072848				0.948026490066225	0.0514966887417219	0.261933774834437	-5.9282119205298	15.7319205298013	2.18251655629139				0.367788079470199	-0.270834437086093	-0.868238410596026	15.7003973509934	14.9976158940397	16.885298013245			
68	1540	-0.200158940397351	0.130754966887417	-0.935523178807947	-0.246622516556291	-2.9446357615894	-1.74490066225166				0.960953642384106	0.0797880794701987	0.141139072847682	0.433907284768212	18.2278145695364	8.09403973509934				-0.202172185430464	-0.145271523178808	-0.85594701986755	8.40741721854305	-1.53350993377483	-3.84026490066225				0.400529801324503	-0.128529801324503	-0.933721854304636	-2.55708609271523	2.1435761589404	-0.0556291390728476				0.980026490066225	0.0514966887417219	0.277933774834437	-9.0082119205298	15.1719205298013	1.06251655629139				0.367788079470199	-0.318834437086093	-0.868238410596026	19.3403973509934	12.1976158940397	16.045298013245			
69	1560	-0.216158940397351	0.130754966887417	-0.951523178807947	1.15337748344371	-3.2246357615894	-1.74490066225166				0.976953642384106	0.0797880794701987	0.157139072847682	3.79390728476821	22.9878145695364	9.77403973509934				-0.234172185430464	-0.145271523178808	-0.87194701986755	5.04741721854305	-2.65350993377483	-3.00026490066225				0.384529801324503	-0.128529801324503	-0.933721854304636	-4.23708609271523	0.1835761589404	1.34437086092715				0.964026490066225	0.0514966887417219	0.245933774834437	-7.8882119205298	13.2119205298013	1.62251655629139				0.351788079470199	-0.334834437086093	-0.884238410596026	20.4603973509934	8.83761589403974	20.245298013245			
70	1580	-0.232158940397351	0.114754966887417	-0.935523178807947	0.873377483443709	-2.6646357615894	-0.624900662251656				1.04095364238411	0.0157880794701987	0.125139072847682	2.67390728476821	23.5478145695364	12.0140397350993				-0.234172185430464	-0.177271523178808	-0.91994701986755	7.00741721854305	0.706490066225167	-3.00026490066225				0.384529801324503	-0.144529801324503	-0.949721854304636	-5.07708609271523	-3.7364238410596	3.02437086092715				0.916026490066225	0.0834966887417219	0.261933774834437	-7.6082119205298	16.0119205298013	1.90251655629139				0.367788079470199	-0.318834437086093	-0.868238410596026	21.5803973509934	6.59761589403974	26.125298013245			
71	1600	-0.232158940397351	0.0987549668874172	-0.967523178807947	-1.92662251655629	-2.3846357615894	0.215099337748344				1.12095364238411	0.0957880794701987	0.109139072847682	-7.96609271523179	8.98781456953643	7.81403973509934				-0.234172185430464	-0.177271523178808	-0.88794701986755	10.927417218543	1.54649006622517	-3.56026490066225				0.416529801324503	-0.144529801324503	-0.949721854304636	-4.23708609271523	-3.7364238410596	5.26437086092715				0.980026490066225	0.0674966887417219	0.293933774834437	-3.6882119205298	17.1319205298013	3.30251655629139				0.351788079470199	-0.382834437086093	-0.884238410596026	29.7003973509934	1.55761589403974	29.485298013245			
72	1620	-0.216158940397351	0.0827549668874172	-0.935523178807947	-1.64662251655629	-0.984635761589404	0.495099337748344				1.13695364238411	0.0797880794701987	0.0931390728476822	-11.0460927152318	-11.1721854304636	10.3340397350993				-0.250172185430464	-0.177271523178808	-0.85594701986755	9.52741721854305	-0.133509933774833	-4.68026490066225				0.432529801324503	-0.128529801324503	-0.949721854304636	-9.27708609271523	-5.6964238410596	5.82437086092715				1.04402649006623	0.0514966887417219	0.293933774834437	-4.5282119205298	17.9719205298013	2.74251655629139				0.383788079470199	-0.430834437086093	-0.900238410596026	22.9803973509934	2.67761589403974	38.165298013245			
73	1640	-0.248158940397351	0.0827549668874172	-0.951523178807947	-3.04662251655629	-2.3846357615894	0.215099337748344				1.04095364238411	-0.000211920529801304	0.189139072847682	-21.1260927152318	-13.1321854304636	11.4540397350993				-0.250172185430464	-0.177271523178808	-0.88794701986755	10.367417218543	1.26649006622517	-3.84026490066225				0.400529801324503	-0.112529801324503	-0.981721854304636	-7.31708609271523	-5.9764238410596	8.06437086092715				1.07602649006623	0.0514966887417219	0.293933774834437	-7.3282119205298	16.5719205298013	4.14251655629139				0.335788079470199	-0.430834437086093	-0.948238410596026	23.2603973509934	11.3576158940397	46.845298013245			
74	1660	-0.248158940397351	0.0987549668874172	-0.967523178807947	-4.72662251655629	-0.704635761589404	1.33509933774834				1.02495364238411	-0.0162119205298013	0.237139072847682	-22.5260927152318	-34.6921854304636	18.4540397350993				-0.250172185430464	-0.225271523178808	-0.83994701986755	7.28741721854305	-3.49350993377483	-4.40026490066225				0.400529801324503	-0.144529801324503	-1.02972185430464	-0.317086092715232	-6.8164238410596	8.90437086092715				1.01202649006623	0.0514966887417219	0.309933774834437	-6.2082119205298	12.3719205298013	5.82251655629139				0.255788079470199	-0.382834437086093	-0.964238410596026	26.0603973509934	14.1576158940397	59.445298013245			
75	1680	-0.280158940397351	0.114754966887417	-0.951523178807947	-6.68662251655629	0.975364238410596	0.775099337748344				1.04095364238411	0.0317880794701987	0.0451390728476822	-10.4860927152318	-41.6921854304636	22.9340397350993				-0.266172185430464	-0.209271523178808	-0.88794701986755	1.40741721854305	-1.25350993377483	-4.96026490066225				0.384529801324503	-0.144529801324503	-1.02972185430464	-4.51708609271523	-12.1364238410596	7.22437086092715				0.980026490066225	0.0674966887417219	0.245933774834437	-2.0082119205298	9.85192052980133	6.94251655629139				0.191788079470199	-0.430834437086093	-0.916238410596027	28.0203973509934	2.39761589403974	67.005298013245			
76	1700	-0.264158940397351	0.114754966887417	-0.951523178807947	-6.68662251655629	1.5353642384106	1.33509933774834				1.02495364238411	0.0797880794701987	-0.00286092715231785	-6.00609271523179	-22.3721854304636	17.3340397350993				-0.250172185430464	-0.177271523178808	-0.87194701986755	1.96741721854305	-2.09350993377483	-5.52026490066225				0.368529801324503	-0.144529801324503	-0.981721854304636	-11.2370860927152	-17.1764238410596	3.30437086092715				0.980026490066225	0.0354966887417219	0.197933774834437	5.2717880794702	11.2519205298013	8.34251655629139				0.223788079470199	-0.430834437086093	-0.916238410596027	8.70039735099338	-6.28238410596027	74.285298013245			
77	1720	-0.280158940397351	0.130754966887417	-0.935523178807947	-9.48662251655629	3.4953642384106	2.73509933774834				0.912953642384106	0.0637880794701987	0.0131390728476822	-16.0860927152318	-5.29218543046358	13.6940397350993				-0.266172185430464	-0.177271523178808	-0.90394701986755	4.48741721854305	0.426490066225167	-3.56026490066225				0.336529801324503	-0.144529801324503	-0.965721854304636	-15.1570860927152	-20.8164238410596	-5.09562913907285				0.980026490066225	0.0194966887417219	0.197933774834437	5.8317880794702	13.7719205298013	6.38251655629139				0.223788079470199	-0.430834437086093	-0.964238410596026	9.54039735099338	-8.80238410596027	81.845298013245			
78	1740	-0.280158940397351	0.146754966887417	-0.935523178807947	-9.20662251655629	2.9353642384106	4.13509933774834				0.928953642384106	0.0637880794701987	0.0611390728476822	-19.1660927152318	11.7878145695364	17.8940397350993				-0.282172185430464	-0.177271523178808	-0.88794701986755	-1.11258278145695	1.26649006622517	-2.72026490066225				0.304529801324503	-0.112529801324503	-0.949721854304636	-17.6770860927152	-26.9764238410596	-10.9756291390728				0.948026490066225	0.0194966887417219	0.197933774834437	6.6717880794702	12.9319205298013	3.58251655629139				0.191788079470199	-0.382834437086093	-0.900238410596026	7.30039735099338	-17.2023841059603	83.805298013245			
79	1760	-0.296158940397351	0.130754966887417	-0.951523178807947	-11.4466225165563	4.3353642384106	5.81509933774834				0.992953642384106	0.0477880794701987	0.0451390728476822	-16.0860927152318	22.7078145695364	19.5740397350993				-0.282172185430464	-0.145271523178808	-0.85594701986755	1.40741721854305	2.10649006622517	-0.48026490066225				0.320529801324503	-0.112529801324503	-0.917721854304636	-18.7970860927152	-29.7764238410596	-15.1756291390728				0.932026490066225	0.0194966887417219	0.229933774834437	8.3517880794702	10.9719205298013	3.58251655629139				0.127788079470199	-0.366834437086093	-0.852238410596026	14.5803973509934	-26.1623841059603	78.765298013245			
80	1780	-0.312158940397351	0.130754966887417	-0.919523178807947	-13.1266225165563	6.5753642384106	7.49509933774834				0.912953642384106	0.0477880794701987	0.0931390728476822	-9.36609271523179	38.9478145695364	17.8940397350993				-0.282172185430464	-0.177271523178808	-0.85594701986755	5.88741721854305	2.94649006622517	0.35973509933775				0.272529801324503	-0.112529801324503	-0.917721854304636	-16.8370860927152	-30.3364238410596	-19.9356291390729				0.948026490066225	0.00349668874172187	0.229933774834437	9.1917880794702	9.57192052980133	4.42251655629139				0.111788079470199	-0.398834437086093	-0.820238410596026	17.3803973509934	-20.2823841059603	79.045298013245			
81	1800	-0.264158940397351	0.130754966887417	-0.919523178807947	-12.8466225165563	8.2553642384106	7.49509933774834				0.864953642384106	-0.000211920529801304	0.141139072847682	-0.406092715231788	56.8678145695364	19.2940397350993				-0.282172185430464	-0.193271523178808	-0.87194701986755	0.847417218543046	2.38649006622517	0.91973509933775				0.240529801324503	-0.0805298013245033	-0.901721854304636	-16.8370860927152	-25.0164238410596	-25.2556291390729				0.900026490066225	0.0194966887417219	0.245933774834437	10.8717880794702	11.8119205298013	4.14251655629139				0.0957880794701987	-0.446834437086093	-0.772238410596026	10.9403973509934	-13.2823841059603	84.925298013245			
82	1820	-0.232158940397351	0.130754966887417	-0.903523178807947	-11.4466225165563	6.5753642384106	6.09509933774834				1.00895364238411	0.0637880794701987	0.141139072847682	5.75390728476821	55.4678145695364	19.2940397350993				-0.234172185430464	-0.177271523178808	-0.85594701986755	-4.19258278145695	0.146490066225167	1.75973509933775				0.208529801324503	-0.0805298013245033	-0.837721854304636	-17.3970860927152	-21.0964238410596	-28.3356291390729				0.900026490066225	-0.0125033112582781	0.245933774834437	9.7517880794702	14.8919205298013	1.06251655629139				0.111788079470199	-0.366834437086093	-0.724238410596026	-0.819602649006623	-6.28238410596027	79.045298013245			
83	1840	-0.232158940397351	0.162754966887417	-0.919523178807947	-20.6866225165563	7.1353642384106	6.37509933774834				1.04095364238411	-0.000211920529801304	0.0931390728476822	11.3539072847682	47.0678145695364	20.1340397350993				-0.218172185430464	-0.113271523178808	-0.85594701986755	-0.832582781456954	-0.693509933774834	2.03973509933775				0.240529801324503	-0.0325298013245033	-0.789721854304636	-17.9570860927152	-19.1364238410596	-28.3356291390729				0.916026490066225	-0.0125033112582781	0.261933774834437	11.4317880794702	14.8919205298013	0.222516556291392				0.127788079470199	-0.286834437086093	-0.724238410596026	7.02039735099338	1.55761589403974	67.005298013245			
84	1860	-0.248158940397351	0.194754966887417	-0.919523178807947	-26.5666225165563	6.5753642384106	8.05509933774835				0.928953642384106	-0.000211920529801304	0.157139072847682	11.3539072847682	49.3078145695364	20.1340397350993				-0.266172185430464	-0.0972715231788079	-0.85594701986755	5.32741721854305	-0.413509933774833	2.03973509933775				0.336529801324503	0.0634701986754967	-0.725721854304636	-7.31708609271523	-12.6964238410596	-26.3756291390728				0.964026490066225	-0.0125033112582781	0.261933774834437	4.9917880794702	12.3719205298013	-2.57748344370861				0.111788079470199	-0.286834437086093	-0.740238410596026	24.3803973509934	12.4776158940397	55.805298013245			
85	1880	-0.280158940397351	0.194754966887417	-0.935523178807947	-17.8866225165563	7.4153642384106	7.77509933774834				0.848953642384106	-0.0322119205298013	0.285139072847682	3.23390728476821	55.4678145695364	19.8540397350993				-0.298172185430464	-0.113271523178808	-0.91994701986755	9.52741721854305	2.94649006622517	2.03973509933775				0.416529801324503	0.0954701986754967	-0.821721854304636	26.0029139072848	3.2635761589404	-19.6556291390729				1.01202649006623	0.0194966887417219	0.373933774834437	0.791788079470198	4.53192052980133	-9.85748344370861				0.111788079470199	-0.366834437086093	-0.724238410596026	38.9403973509934	21.4376158940397	47.405298013245			
86	1900	-0.280158940397351	0.162754966887417	-0.951523178807947	-18.4466225165563	10.4953642384106	8.33509933774834				0.944953642384106	-0.0162119205298013	0.317139072847682	-1.80609271523179	57.9878145695364	18.7340397350993				-0.250172185430464	-0.145271523178808	-0.87194701986755	18.2074172185431	6.30649006622517	0.63973509933775				0.464529801324503	-0.0645298013245033	-0.869721854304636	41.6829139072848	19.5035761589404	-19.0956291390728				0.836026490066225	0.195496688741722	0.533933774834437	18.1517880794702	-14.5080794701987	-8.73748344370861				0.0957880794701987	-0.462834437086093	-0.756238410596026	39.5003973509934	25.9176158940397	33.405298013245			
87	1920	-0.264158940397351	0.194754966887417	-0.903523178807947	-21.2466225165563	7.9753642384106	10.0150993377483				0.960953642384106	-0.0962119205298013	0.253139072847682	-1.24609271523179	66.3878145695364	14.8140397350993				0	0	0	0	0	0				0.544529801324503	-0.0325298013245033	-0.789721854304636	17.0429139072848	17.2635761589404	-23.8556291390729				0.756026490066225	0.227496688741722	0.405933774834437	6.1117880794702	-22.0680794701987	4.14251655629139				0.175788079470199	-0.510834437086093	-0.756238410596026	17.6603973509934	30.6776158940397	31.725298013245			
88	2040	-0.168158940397351	0.226754966887417	-0.967523178807947	-22.9266225165563	14.1353642384106	22.0550993377483				0.960953642384106	-0.176211920529801	0.605139072847682	7.71390728476821	41.7478145695364	4.45403973509934				-0.250172185430464	-0.337271523178808	-0.88794701986755	22.407417218543	-0.133509933774833	-4.96026490066225				0	0	0	0	0	0				0.916026490066225	-0.0125033112582781	0.581933774834437	53.1517880794702	-4.42807947019868	3.02251655629139				0.383788079470199	-0.494834437086093	-0.692238410596026	-23.4996026490066	11.9176158940397	26.685298013245			
89	2060	-0.216158940397351	0.242754966887417	-0.967523178807947	-22.9266225165563	18.0553642384106	23.1750993377483				0.912953642384106	-0.0962119205298013	0.669139072847682	29.2739072847682	52.6678145695364	-0.86596026490066				-0.282172185430464	-0.305271523178808	-0.90394701986755	26.8874172185431	4.62649006622517	-7.20026490066225				0.496529801324503	-0.128529801324503	-0.917721854304636	33.5629139072848	26.7835761589404	-18.5356291390728				0.948026490066225	0.00349668874172187	0.517933774834437	40.5517880794702	-13.3880794701987	1.06251655629139				0.367788079470199	-0.654834437086093	-0.708238410596026	29.4203973509934	26.1976158940397	-4.39470198675497			
90	2080	-0.264158940397351	0.258754966887417	-0.951523178807947	-25.1666225165563	24.2153642384106	25.1350993377483				0.944953642384106	-0.0162119205298013	0.525139072847682	41.8739072847682	37.2678145695364	5.29403973509934				-0.282172185430464	-0.337271523178808	-0.88794701986755	25.767417218543	12.1864900662252	-8.88026490066225				0.512529801324503	-0.112529801324503	-0.885721854304636	35.5229139072848	17.5435761589404	-15.1756291390728				0.916026490066225	0.0834966887417219	0.549933774834437	37.7517880794702	15.7319205298013	-3.41748344370861				0.303788079470199	-0.814834437086093	-0.676238410596026	66.3803973509934	23.3976158940397	-8.31470198675497			
91	2100	-0.296158940397351	0.258754966887417	-0.919523178807947	-31.3266225165563	25.0553642384106	23.4550993377483				0.928953642384106	-0.176211920529801	0.525139072847682	6.87390728476821	61.9078145695364	0.53403973509934				-0.266172185430464	-0.369271523178808	-0.85594701986755	25.2074172185431	18.6264900662252	-6.92026490066225				0.560529801324503	-0.112529801324503	-0.933721854304636	27.4029139072848	1.8635761589404	-6.49562913907285				0.868026490066225	0.0674966887417219	0.565933774834437	8.3517880794702	-12.5480794701987	-6.49748344370861				0.831788079470199	-1.00683443708609	-0.836238410596026	1.70039735099338	20.0376158940397	-9.71470198675497			
92	2120	-0.296158940397351	0.338754966887417	-0.903523178807947	-33.0066225165563	24.4953642384106	22.3350993377483				0.992953642384106	-0.160211920529801	0.621139072847682	-5.44609271523179	25.5078145695364	-3.10596026490066				-0.282172185430464	-0.449271523178808	-0.80794701986755	8.12741721854305	14.1464900662252	-1.60026490066225				0.528529801324503	-0.0645298013245033	-0.965721854304636	16.4829139072848	1.5835761589404	-8.73562913907285				0.948026490066225	0.131496688741722	0.565933774834437	-10.1282119205298	-33.8280794701987	3.30251655629139				0.335788079470199	-0.702834437086093	-0.740238410596026	133.860397350993	-74.3223841059603	12.685298013245			
93	2140	-0.264158940397351	0.386754966887417	-0.887523178807947	-27.1266225165563	27.0153642384106	25.4150993377483				0.912953642384106	-0.0642119205298013	0.685139072847682	-8.52609271523179	15.9878145695364	-9.26596026490066				-0.314172185430464	-0.449271523178808	-0.87194701986755	-0.272582781456954	11.6264900662252	4.83973509933775				0.480529801324503	-0.160529801324503	-0.965721854304636	14.5229139072848	10.2635761589404	-7.05562913907285				0.980026490066225	-0.0285033112582781	0.645933774834437	-3.1282119205298	-10.5880794701987	4.98251655629139				0.255788079470199	-0.782834437086093	-0.452238410596026	81.5003973509934	-19.7223841059603	-25.394701986755			
94	2160	-0.344158940397351	0.370754966887417	-0.967523178807947	-26.0066225165563	36.5353642384106	30.1750993377483				1.04095364238411	-0.0802119205298013	0.829139072847682	-1.80609271523179	12.3478145695364	-7.02596026490066				-0.346172185430464	-0.385271523178808	-0.96794701986755	17.647417218543	24.2264900662252	7.35973509933775				0.432529801324503	-0.128529801324503	-0.981721854304636	2.20291390728477	6.6235761589404	3.02437086092715				0.916026490066225	0.115496688741722	0.597933774834437	-12.6482119205298	-20.1080794701987	1.62251655629139				0.367788079470199	-0.862834437086093	-0.708238410596026	96.3403973509934	-24.7623841059603	-19.514701986755			
95	2180	-0.344158940397351	0.306754966887417	-1.04752317880795	-11.4466225165563	37.9353642384106	30.1750993377483				1.20095364238411	-0.192211920529801	0.845139072847682	-0.126092715231788	-5.85218543046358	-8.42596026490066				-0.426172185430464	-0.353271523178808	-0.93594701986755	-15.392582781457	32.9064900662252	12.1197350993378				0.464529801324503	-0.0485298013245033	-0.981721854304636	-10.9570860927152	6.9035761589404	12.2643708609272				1.01202649006623	0.131496688741722	0.645933774834437	-6.2082119205298	-0.508079470198675	0.222516556291392				0.159788079470199	-1.07083443708609	-0.404238410596026	100.820397350993	-41.8423841059603	-12.234701986755			
96	2200	-0.312158940397351	0.386754966887417	-1.01552317880795	-10.6066225165563	46.6153642384106	29.0550993377483				1.13695364238411	-0.272211920529801	0.893139072847682	-14.1260927152318	-16.4921854304636	-11.5059602649007				-0.394172185430464	-0.369271523178808	-1.03194701986755	-8.95258278145695	46.3464900662252	6.51973509933775				0.512529801324503	-0.0485298013245033	-1.04572185430464	-12.0770860927152	20.3435761589404	13.9443708609272				1.14002649006623	0.115496688741722	0.693933774834437	-18.2482119205298	8.17192052980133	-2.85748344370861				0.223788079470199	-1.05483443708609	-0.468238410596026	-38.0596026490066	34.3176158940397	-2.43470198675497			
97	2220	-0.168158940397351	0.370754966887417	-0.983523178807947	4.51337748344371	57.8153642384106	29.8950993377483				1.21695364238411	-0.128211920529801	0.845139072847682	-16.9260927152318	-32.7321854304636	-19.0659602649007				-0.298172185430464	-0.225271523178808	-0.99994701986755	-15.952582781457	56.4264900662252	-1.04026490066225				0.592529801324503	-0.112529801324503	-1.09372185430464	-3.67708609271523	43.8635761589404	18.4243708609272				1.23602649006623	0.115496688741722	0.661933774834437	-24.9682119205298	5.09192052980133	-5.93748344370861				0.383788079470199	-0.926834437086093	-0.756238410596026	-89.0196026490066	63.9976158940397	-3.55470198675497			
98	2240	-0.088158940397351	0.370754966887417	-1.09552317880795	15.9933774834437	62.8553642384106	34.3750993377484				1.32895364238411	-0.0322119205298013	0.765139072847682	-13.8460927152318	-43.3721854304636	-17.6659602649007				-0.298172185430464	-0.225271523178808	-1.04794701986755	-29.392582781457	58.6664900662252	-4.12026490066225				0.656529801324503	-0.160529801324503	-1.09372185430464	-1.43708609271523	53.1035761589404	26.8243708609272				1.33202649006623	0.0994966887417219	0.549933774834437	-43.7282119205298	-7.22807947019868	-3.69748344370861				0.399788079470199	-1.10283443708609	-0.964238410596026	-27.6996026490066	73.7976158940397	-1.59470198675497			
99	2260	0.023841059602649	0.418754966887417	-1.01552317880795	20.1933774834437	75.7353642384106	35.7750993377484				1.29695364238411	0.0637880794701987	0.557139072847682	0.153907284768212	-71.6521854304636	-21.3059602649007				-0.218172185430464	-0.193271523178808	-1.07994701986755	-18.752582781457	66.2264900662252	-11.6802649006622				0.704529801324503	-0.144529801324503	-1.04572185430464	-8.43708609271523	53.3835761589404	33.5443708609272				1.34802649006623	0.163496688741722	0.421933774834437	-51.8482119205298	-17.3080794701987	0.782516556291392				0.527788079470199	-1.16683443708609	-0.868238410596026	-79.2196026490066	119.71761589404	12.685298013245			
100	2280	0.199841059602649	0.482754966887417	-0.983523178807947	37.2733774834437	82.7353642384106	32.4150993377484				1.12095364238411	0.111788079470199	0.397139072847682	-5.72609271523179	-73.0521854304636	-18.7859602649007				-0.0901721854304636	-0.177271523178808	-1.11194701986755	-21.832582781457	73.5064900662252	-16.4402649006623				0.608529801324503	-0.128529801324503	-1.06172185430464	-0.597086092715232	63.1835761589404	40.8243708609272				1.25202649006623	0.179496688741722	0.341933774834437	-48.2082119205298	-34.6680794701987	3.02251655629139				0.623788079470199	-0.814834437086093	-0.884238410596026	-132.139602649007	128.67761589404	10.445298013245			
101	2300	0.279841059602649	0.418754966887417	-0.999523178807947	39.7933774834437	92.5353642384106	25.6950993377483				1.10495364238411	0.0957880794701987	0.541139072847682	-19.7260927152318	-38.3321854304636	-6.18596026490066				-0.0261721854304636	-0.225271523178808	-0.99994701986755	-18.752582781457	79.3864900662252	-22.8802649006623				0.528529801324503	-0.128529801324503	-1.09372185430464	11.1629139072848	79.1435761589404	38.0243708609272				1.20402649006623	0.227496688741722	0.357933774834437	-32.2482119205298	-28.2280794701987	1.62251655629139				0.431788079470199	-0.446834437086093	-0.964238410596026	-40.2996026490066	74.9176158940397	-3.27470198675497			
102	2320	0.215841059602649	0.418754966887417	-1.03152317880795	24.6733774834437	99.2553642384106	21.2150993377483				1.07295364238411	0.287788079470199	0.557139072847682	17.2339072847682	4.22781456953642	-35.3059602649007				-0.0421721854304636	-0.273271523178808	-1.01594701986755	-0.272582781456954	90.3064900662252	-26.2402649006623				0.576529801324503	-0.144529801324503	-1.09372185430464	19.8429139072848	86.9835761589404	30.4643708609272				1.23602649006623	0.163496688741722	0.453933774834437	-23.8482119205298	-21.7880794701987	1.90251655629139				0.447788079470199	-0.398834437086093	-0.948238410596026	-4.17960264900662	85.5576158940397	-11.954701986755			
103	2340	0.231841059602649	0.450754966887417	-1.07952317880795	26.9133774834437	104.015364238411	17.8550993377483				1.29695364238411	0.0157880794701987	0.621139072847682	13.5939072847682	-21.2521854304636	3.61403973509934				0.0698278145695364	-0.353271523178808	-1.01594701986755	-0.552582781456954	99.2664900662252	-21.4802649006623				0.592529801324503	-0.208529801324503	-1.06172185430464	15.9229139072848	93.4235761589404	27.3843708609272				1.23602649006623	0.179496688741722	0.341933774834437	-18.5282119205298	-6.10807947019868	-2.01748344370861				0.479788079470199	-0.494834437086093	-0.916238410596027	74.2203973509934	78.8376158940397	-27.354701986755			
104	2360	0.295841059602649	0.450754966887417	-1.04752317880795	27.1933774834437	114.375364238411	11.9750993377483				1.32895364238411	-0.0322119205298013	0.573139072847682	10.7939072847682	-42.8121854304636	-3.38596026490066				0.149827814569536	-0.369271523178808	-0.96794701986755	-18.192582781457	109.066490066225	-15.6002649006622				0.576529801324503	-0.224529801324503	-0.965721854304636	11.1629139072848	106.86357615894	25.7043708609272				1.20402649006623	0.131496688741722	0.293933774834437	-19.6482119205298	-9.46807947019868	-2.57748344370861				0.527788079470199	-0.590834437086093	-0.884238410596026	95.7803973509934	86.1176158940397	-50.314701986755			
105	2380	0.327841059602649	0.338754966887417	-1.01552317880795	44.8333774834437	126.415364238411	8.05509933774835				1.31295364238411	-0.0322119205298013	0.477139072847682	2.39390728476821	-37.7721854304636	-4.50596026490066				0.165827814569536	-0.241271523178808	-0.98394701986755	-20.712582781457	119.426490066225	-13.6402649006623				0.656529801324503	-0.176529801324503	-0.869721854304636	17.0429139072848	125.34357615894	20.9443708609272				1.17202649006623	0.115496688741722	0.277933774834437	-26.0882119205298	-9.46807947019868	-0.617483443708608				0.591788079470199	-0.654834437086093	-0.868238410596026	68.3403973509934	80.7976158940397	-72.154701986755			
106	2400	0.295841059602649	0.274754966887417	-1.04752317880795	40.6333774834437	130.615364238411	4.41509933774834				1.32895364238411	-0.0962119205298013	0.413139072847682	-6.56609271523179	-37.7721854304636	2.49403973509934				0.117827814569536	-0.145271523178808	-0.95194701986755	-13.992582781457	123.906490066225	-12.5202649006623				0.752529801324503	-0.224529801324503	-0.805721854304636	31.3229139072848	134.30357615894	28.7843708609272				1.23602649006623	0.0674966887417219	0.261933774834437	-19.9282119205298	0.611920529801325	-0.0574834437086077				0.655788079470199	-0.702834437086093	-0.868238410596026	19.0603973509934	95.9176158940397	-69.634701986755			
107	2420	0.183841059602649	0.162754966887417	-0.999523178807947	42.8733774834437	139.855364238411	5.25509933774834				1.16895364238411	-0.000211920529801304	0.317139072847682	-5.16609271523179	-54.5721854304636	-2.54596026490066				0.133827814569536	-0.225271523178808	-0.90394701986755	-20.152582781457	128.946490066225	-8.88026490066225				0.736529801324503	-0.272529801324503	-0.709721854304636	36.9229139072848	139.62357615894	39.1443708609272				1.26802649006623	-0.0125033112582781	0.277933774834437	-20.4882119205298	-2.46807947019868	4.14251655629139				0.687788079470199	-0.702834437086093	-0.932238410596026	-18.4596026490066	106.83761589404	-63.194701986755			
108	2440	0.183841059602649	0.0347549668874172	-0.903523178807947	41.1933774834437	150.495364238411	13.3750993377483				1.07295364238411	-0.0162119205298013	0.221139072847682	1.55390728476821	-54.0121854304636	-0.30596026490066				0.197827814569536	-0.273271523178808	-0.87194701986755	-28.272582781457	137.626490066225	-4.96026490066225				0.672529801324503	-0.256529801324503	-0.645721854304636	45.3229139072848	149.70357615894	36.0643708609272				1.20402649006623	0.0194966887417219	0.229933774834437	-36.7282119205298	-13.3880794701987	8.06251655629139				0.687788079470199	-0.622834437086093	-0.932238410596026	-41.9796026490066	104.03761589404	-62.354701986755			
109	2460	0.391841059602649	-0.0292450331125828	-0.855523178807947	31.9533774834437	153.855364238411	22.6150993377483				1.15295364238411	-0.0322119205298013	0.237139072847682	1.83390728476821	-29.9321854304636	-0.0259602649006601				0.277827814569536	-0.129271523178808	-0.90394701986755	-32.192582781457	141.546490066225	-5.52026490066225				0.704529801324503	-0.320529801324503	-0.581721854304636	61.5629139072848	140.74357615894	31.0243708609272				1.06002649006623	0.0994966887417219	0.197933774834437	-37.0082119205298	-15.3480794701987	10.3025165562914				0.687788079470199	-0.526834437086093	-0.900238410596026	-43.9396026490066	93.3976158940397	-69.074701986755			
110	2480	0.503841059602649	0.0187549668874172	-0.823523178807947	25.5133774834437	157.215364238411	25.6950993377483				1.18495364238411	-0.112211920529801	0.269139072847682	-29.5260927152318	-35.2521854304636	-11.5059602649007				0.341827814569536	-0.0652715231788079	-0.79194701986755	-34.712582781457	147.706490066225	-8.60026490066225				0.768529801324503	-0.224529801324503	-0.709721854304636	68.2829139072848	129.82357615894	40.5443708609272				1.07602649006623	-0.0125033112582781	0.149933774834437	-35.3282119205298	-15.6280794701987	11.9825165562914				0.719788079470199	-0.478834437086093	-0.836238410596026	-28.8196026490066	70.4376158940397	-63.474701986755			
111	2500	0.487841059602649	-0.0292450331125828	-0.743523178807947	25.5133774834437	160.295364238411	29.0550993377483				0.944953642384106	0.0317880794701987	0.173139072847682	-29.2460927152318	-64.0921854304636	-12.6259602649007				0.357827814569536	-0.0332715231788079	-0.75994701986755	-34.992582781457	151.066490066225	-10.5602649006623				0.944529801324503	-0.432529801324503	-0.549721854304636	92.3629139072848	141.30357615894	60.1443708609272				1.02802649006623	-0.0285033112582781	0.149933774834437	-31.6882119205298	-27.1080794701987	15.0625165562914				0.655788079470199	-0.494834437086093	-0.820238410596026	-17.8996026490066	56.7176158940397	-47.234701986755			
112	2520	0.583841059602649	0.00275496688741723	-0.663523178807947	14.8733774834437	165.055364238411	32.4150993377484				0.800953642384106	0.127788079470199	0.0131390728476822	-19.1660927152318	-37.4921854304636	-3.38596026490066				0.341827814569536	0.0947284768211921	-0.74394701986755	-29.112582781457	153.306490066225	-14.7602649006622				0.864529801324503	-0.464529801324503	-0.517721854304636	77.5229139072848	122.82357615894	49.2243708609272				0.932026490066225	0.0674966887417219	0.117933774834437	-36.7282119205298	-27.6680794701987	17.8625165562914				0.591788079470199	-0.542834437086093	-0.772238410596026	-12.5796026490066	43.5576158940397	-32.114701986755			
113	2540	0.711841059602649	-0.0132450331125828	-0.535523178807947	-0.806622516556291	165.615364238411	37.4550993377484				0.896953642384106	0.0797880794701987	0.173139072847682	1.27390728476821	-23.7721854304636	1.37403973509934				0.437827814569536	0.174728476821192	-0.71194701986755	-24.352582781457	154.706490066225	-23.7202649006623				0.816529801324503	-0.432529801324503	-0.549721854304636	67.4429139072848	104.90357615894	36.6243708609272				0.820026490066225	0.0834966887417219	0.117933774834437	-37.5682119205298	-27.9480794701987	16.4625165562914				0.543788079470199	-0.526834437086093	-0.676238410596026	-33.0196026490066	35.1576158940397	-19.514701986755			
114	2560	0.791841059602649	0.0827549668874172	-0.487523178807947	-1.36662251655629	164.215364238411	35.7750993377484				0.976953642384106	-0.0642119205298013	0.141139072847682	-5.72609271523179	-33.8521854304636	7.53403973509934				0.501827814569536	0.110728476821192	-0.64794701986755	-24.632582781457	156.106490066225	-31.0002649006623				0.816529801324503	-0.448529801324503	-0.533721854304636	68.8429139072848	82.5035761589404	38.3043708609272				0.820026490066225	0.00349668874172187	0.0859337748344371	-20.2082119205298	-27.3880794701987	16.7425165562914				0.431788079470199	-0.414834437086093	-0.596238410596026	-48.4196026490066	34.8776158940397	-2.43470198675497			
115	2580	0.727841059602649	0.0987549668874172	-0.519523178807947	-11.1666225165563	163.375364238411	34.6550993377484				0.736953642384106	-0.0802119205298013	0.0291390728476822	-30.0860927152318	-47.2921854304636	-0.86596026490066				0.501827814569536	0.0147284768211921	-0.56794701986755	-10.072582781457	152.186490066225	-36.3202649006623				0.880529801324503	-0.480529801324503	-0.453721854304636	56.5229139072848	55.9035761589404	45.5843708609272				0.804026490066225	-0.0765033112582781	0.0859337748344371	-16.5682119205298	-34.1080794701987	17.0225165562914				0.351788079470199	-0.302834437086093	-0.500238410596026	-78.9396026490066	44.3976158940397	7.36529801324503			
116	2600	0.647841059602649	0.0827549668874172	-0.423523178807947	-11.1666225165563	167.855364238411	33.8150993377484				0.480953642384106	0.223788079470199	-0.114860927152318	-44.0860927152318	-39.1721854304636	-12.9059602649007				0.581827814569536	-0.209271523178808	-0.53594701986755	-16.232582781457	152.746490066225	-33.2402649006623				0.928529801324503	-0.480529801324503	-0.405721854304636	28.8029139072848	17.5435761589404	47.5443708609272				0.708026490066225	-0.0445033112582781	0.133933774834437	-19.0882119205298	-43.9080794701987	16.4625165562914				0.303788079470199	-0.238834437086093	-0.484238410596026	-86.7796026490066	53.3576158940397	11.285298013245			
117	2620	0.679841059602649	0.0987549668874172	-0.359523178807947	-8.92662251655629	169.535364238411	28.7750993377483				0.640953642384106	0.159788079470199	-0.0348609271523178	2.11390728476821	-13.1321854304636	-0.0259602649006601				0.549827814569536	-0.193271523178808	-0.47194701986755	-45.352582781457	148.826490066225	-24.2802649006623				0.992529801324503	-0.416529801324503	-0.277721854304636	-21.8770860927152	-26.9764238410596	33.2643708609272				0.660026490066225	0.0354966887417219	0.117933774834437	-10.6882119205298	-44.1880794701987	11.7025165562914				0.303788079470199	-0.126834437086093	-0.436238410596026	-71.6596026490066	45.7976158940397	3.72529801324503			
118	2640	0.759841059602649	0.130754966887417	-0.359523178807947	-6.68662251655629	172.055364238411	22.0550993377483				0.752953642384106	0.0637880794701987	0.141139072847682	18.6339072847682	-15.0921854304636	0.81403973509934				0.613827814569536	-0.129271523178808	-0.40794701986755	-25.472582781457	157.226490066225	-19.5202649006623				0.880529801324503	-0.288529801324503	-0.197721854304636	-14.0370860927152	-51.6164238410596	29.3443708609272				0.676026490066225	0.0994966887417219	0.117933774834437	11.9917880794702	-44.4680794701987	4.14251655629139				0.319788079470199	-0.110834437086093	-0.436238410596026	-57.0996026490066	34.8776158940397	-1.59470198675497			
119	2660	0.743841059602649	0.194754966887417	-0.247523178807947	6.19337748344371	166.735364238411	17.5750993377483				0.672953642384106	0.0637880794701987	0.0611390728476822	7.71390728476821	-30.4921854304636	1.09403973509934				0.725827814569536	0.0147284768211921	-0.43994701986755	-2.51258278145695	158.346490066225	-12.8002649006623				0.704529801324503	-0.256529801324503	-0.101721854304636	20.6829139072848	-61.9764238410596	19.8243708609272				0.628026490066225	0.0194966887417219	0.165933774834437	33.8317880794702	-43.0680794701987	-0.617483443708608				0.351788079470199	-0.142834437086093	-0.468238410596026	-46.1796026490066	28.1576158940397	-4.67470198675497			
120	2680	0.695841059602649	0.306754966887417	-0.247523178807947	21.5933774834437	163.935364238411	8.33509933774834				0.624953642384106	0.0637880794701987	0.173139072847682	-11.8860927152318	-32.4521854304636	-5.62596026490066				0.709827814569536	0.0307284768211921	-0.47194701986755	20.1674172185431	147.706490066225	-11.4002649006623				0.592529801324503	-0.224529801324503	-0.101721854304636	9.76291390728477	-79.0564238410596	17.5843708609272				0.596026490066225	-0.0285033112582781	0.245933774834437	32.9917880794702	-47.8280794701987	-4.25748344370861				0.399788079470199	-0.238834437086093	-0.500238410596026	-24.6196026490066	10.5176158940397	-7.47470198675497			
121	2700	0.727841059602649	0.306754966887417	-0.327523178807947	54.6333774834437	157.775364238411	-5.10490066225166				0.560953642384106	0.0317880794701987	0.253139072847682	-15.8060927152318	-30.7721854304636	-9.26596026490066				0.629827814569536	-0.00127152317880793	-0.42394701986755	35.007417218543	147.426490066225	-20.6402649006623				0.432529801324503	-0.208529801324503	-0.165721854304636	3.88291390728477	-76.2564238410596	20.3843708609272				0.596026490066225	-0.0285033112582781	0.309933774834437	29.3517880794702	-56.7880794701987	-7.89748344370861				0.559788079470199	-0.382834437086093	-0.516238410596026	-7.25960264900662	-18.8823841059603	-9.43470198675497			
122	2720	0.759841059602649	0.290754966887417	-0.215523178807947	83.1933774834437	147.695364238411	-15.4649006622517				0.496953642384106	-0.0162119205298013	0.269139072847682	14.1539072847682	-38.6121854304636	-6.74596026490066				0.581827814569536	-0.00127152317880793	-0.32794701986755	20.727417218543	140.426490066225	-22.0402649006623				0.304529801324503	-0.256529801324503	-0.261721854304636	3.32291390728477	-65.0564238410596	17.8643708609272				0.468026490066225	0.00349668874172187	0.213933774834437	24.8717880794702	-58.1880794701987	-5.37748344370861				0.623788079470199	-0.478834437086093	-0.564238410596026	-3.05960264900662	-61.4423841059603	-5.51470198675497			
123	2740	0.775841059602649	0.242754966887417	-0.183523178807947	92.9933774834437	138.735364238411	-13.2249006622517				0.480953642384106	-0.0162119205298013	0.269139072847682	35.4339072847682	-40.5721854304636	-3.94596026490066				0.709827814569536	-0.0492715231788079	-0.34394701986755	13.727417218543	133.706490066225	-8.88026490066225				0.240529801324503	-0.288529801324503	-0.293721854304636	-12.9170860927152	-63.9364238410596	14.5043708609272				0.372026490066225	-0.0285033112582781	0.149933774834437	21.2317880794702	-37.4680794701987	-0.337483443708608				0.607788079470199	-0.510834437086093	-0.532238410596027	9.82039735099338	-100.92238410596	8.76529801324503			
124	2760	0.919841059602649	0.0507549668874172	-0.183523178807947	85.4333774834437	130.335364238411	-5.10490066225166				0.608953642384106	-0.144211920529801	0.269139072847682	28.7139072847682	-27.1321854304636	-5.34596026490066				0.853827814569536	-0.0972715231788079	-0.29594701986755	-15.672582781457	125.026490066225	0.35973509933775				0.352529801324503	-0.160529801324503	-0.277721854304636	-38.3970860927152	-77.6564238410596	17.3043708609272				0.468026490066225	-0.0445033112582781	0.181933774834437	16.1917880794702	-23.7480794701987	3.58251655629139				0.495788079470199	-0.510834437086093	-0.372238410596026	-6.13960264900662	-125.84238410596	33.405298013245			
125	2780	0.951841059602649	-0.173245033112583	-0.231523178807947	84.3133774834437	109.055364238411	1.33509933774834				0.720953642384106	0.0157880794701987	0.237139072847682	23.1139072847682	-35.2521854304636	-14.8659602649007				0.885827814569536	-0.113271523178808	-0.31194701986755	-40.592582781457	121.666490066225	5.39973509933775				0.512529801324503	-0.112529801324503	-0.245721854304636	-55.7570860927152	-96.9764238410596	24.3043708609272				0.612026490066225	-0.0125033112582781	0.165933774834437	6.1117880794702	-21.5080794701987	4.98251655629139				0.447788079470199	-0.430834437086093	-0.292238410596026	-41.6996026490066	-116.60238410596	48.245298013245			
126	2800	0.839841059602649	-0.381245033112583	-0.119523178807947	62.1933774834437	87.2153642384106	6.09509933774834				0.656953642384106	-0.0482119205298013	0.109139072847682	28.9939072847682	-17.8921854304636	-4.78596026490066				0.853827814569536	-0.0972715231788079	-0.13594701986755	-33.592582781457	108.506490066225	4.83973509933775				0.512529801324503	-0.144529801324503	-0.261721854304636	-42.0370860927152	-109.57642384106	31.8643708609272				0.740026490066225	0.0194966887417219	0.0859337748344371	7.5117880794702	-24.0280794701987	5.82251655629139				0.431788079470199	-0.334834437086093	-0.372238410596026	-58.4996026490066	-107.92238410596	42.645298013245			
127	2820	0.711841059602649	-0.397245033112583	-0.087523178807947	19.6333774834437	84.1353642384106	11.9750993377483				0.512953642384106	-0.112211920529801	0.445139072847682	-11.8860927152318	5.90781456953642	-5.34596026490066				0.837827814569536	-0.0652715231788079	-0.13594701986755	-28.832582781457	76.8664900662252	-1.32026490066225				0.384529801324503	-0.352529801324503	-0.453721854304636	1.36291390728477	-99.7764238410596	25.9843708609272				0.676026490066225	-0.0125033112582781	0.0859337748344371	3.5917880794702	-29.0680794701987	5.26251655629139				0.431788079470199	-0.174834437086093	-0.420238410596026	-62.1396026490066	-105.96238410596	29.485298013245			
128	2840	0.759841059602649	-0.237245033112583	-0.00752317880794696	-29.6466225165563	88.3353642384106	24.0150993377483				0.576953642384106	-0.0482119205298013	0.461139072847682	-15.8060927152318	-8.09218543046358	-5.62596026490066				0.837827814569536	0.0307284768211921	-0.0719470198675496	-18.472582781457	57.8264900662252	-7.48026490066225				0.272529801324503	-0.496529801324503	-0.565721854304636	-2.83708609271523	-92.7764238410596	11.4243708609272				0.628026490066225	-0.0605033112582781	0.101933774834437	-1.7282119205298	-18.1480794701987	3.02251655629139				0.431788079470199	-0.0948344370860927	-0.468238410596026	-62.1396026490066	-100.08238410596	19.685298013245			
129	2860	0.951841059602649	-0.125245033112583	-0.00752317880794696	-46.7266225165563	85.2553642384106	17.8550993377483				0.832953642384106	0.0477880794701987	-0.00286092715231785	2.67390728476821	-16.4921854304636	-10.3859602649007				0.949827814569536	0.0947284768211921	0.0560529801324504	-13.432582781457	57.2664900662252	-8.04026490066225				0.416529801324503	-0.448529801324503	-0.565721854304636	-35.0370860927152	-84.3764238410596	-0.0556291390728476				0.724026490066225	-0.0445033112582781	0.0859337748344371	-7.3282119205298	-4.70807947019868	-2.85748344370861				0.431788079470199	-0.0788344370860927	-0.420238410596026	-35.2596026490066	-84.9623841059603	4.28529801324503			
130	2880	0.951841059602649	0.0187549668874172	0.136476821192053	-64.3666225165563	83.0153642384106	9.45509933774835				0.992953642384106	-0.0642119205298013	0.0931390728476822	-3.20609271523179	15.7078145695364	-10.3859602649007				1.01382781456954	-0.00127152317880793	0.0240529801324504	0.287417218543046	43.2664900662252	1.47973509933775				0.496529801324503	-0.384529801324503	-0.469721854304636	-40.3570860927152	-63.6564238410596	-5.65562913907285				0.836026490066225	-0.0445033112582781	0.133933774834437	-8.7282119205298	-2.46807947019868	-5.37748344370861				0.431788079470199	-0.158834437086093	-0.388238410596026	-13.1396026490066	-70.1223841059603	-12.794701986755			
131	2900	0.967841059602649	0.242754966887417	0.168476821192053	-48.6866225165563	75.1753642384106	6.65509933774834				0.880953642384106	-0.0322119205298013	0.429139072847682	-23.0860927152318	16.2678145695364	-1.98596026490066				1.01382781456954	-0.209271523178808	-0.00794701986754963	4.76741721854305	36.5464900662252	7.07973509933775				0.496529801324503	-0.272529801324503	-0.421721854304636	-46.5170860927152	-48.5364238410596	-8.17562913907285				0.868026490066225	0.0354966887417219	0.165933774834437	-14.6082119205298	-0.788079470198675	-3.41748344370861				0.367788079470199	-0.222834437086093	-0.452238410596026	-12.0196026490066	-54.7223841059603	-27.634701986755			
132	2920	1.03184105960265	0.274754966887417	0.152476821192053	-8.92662251655629	70.6953642384106	8.61509933774835				0.848953642384106	0.0477880794701987	0.397139072847682	-23.9260927152318	-6.97218543046358	-3.66596026490066				0.949827814569536	-0.225271523178808	-0.0239470198675496	-7.27258278145696	35.1464900662252	6.23973509933775				0.624529801324503	-0.176529801324503	-0.501721854304636	-26.9170860927152	-33.6964238410596	-2.29562913907285				0.916026490066225	0.0994966887417219	0.149933774834437	-14.3282119205298	1.73192052980133	-2.29748344370861				0.399788079470199	-0.270834437086093	-0.564238410596026	-4.73960264900662	-34.0023841059603	-35.474701986755			
133	2940	1.07984105960265	0.274754966887417	0.168476821192053	8.99337748344371	67.3353642384106	2.45509933774835				0.976953642384106	0.127788079470199	0.237139072847682	-16.9260927152318	-0.532185430463576	-2.54596026490066				0.933827814569536	-0.0652715231788079	0.00805298013245037	-20.712582781457	58.3864900662252	-1.04026490066225				0.816529801324503	-0.288529801324503	-0.629721854304636	-23.2770860927152	-32.2964238410596	11.4243708609272				0.964026490066225	0.147496688741722	0.149933774834437	-7.3282119205298	0.891920529801325	-2.29748344370861				0.527788079470199	-0.350834437086093	-0.708238410596026	21.5803973509934	-12.7223841059603	-33.794701986755			
134	2960	1.12784105960265	0.0987549668874172	0.232476821192053	10.9533774834437	56.1353642384106	-4.54490066225166				0.976953642384106	0.0957880794701987	0.285139072847682	-9.08609271523179	12.6278145695364	-0.585960264900661				0.901827814569536	-0.00127152317880793	0.00805298013245037	-17.072582781457	53.6264900662252	-1.60026490066225				0.928529801324503	-0.400529801324503	-0.709721854304636	-36.9970860927152	-36.2164238410596	15.3443708609272				0.996026490066225	0.147496688741722	0.197933774834437	0.791788079470198	3.41192052980132	0.782516556291392				0.687788079470199	-0.494834437086093	-0.804238410596027	52.6603973509934	-7.12238410596027	-22.314701986755			
135	2980	1.07984105960265	0.00275496688741723	0.232476821192053	13.4733774834437	34.8553642384106	-5.38490066225166				0.960953642384106	0.0157880794701987	0.301139072847682	-11.8860927152318	15.7078145695364	-0.0259602649006601				0.933827814569536	0.0467284768211921	0.00805298013245037	0.287417218543046	47.1864900662252	0.0797350993377501				0	0	0	0	0	0				0	0	0	0	0	0				0	0	0	0	0	0			
136	3080	0	0	0	0	0	0				0	0	0	0	0	0				0	0	0	0	0	0				0	0	0	0	0	0				0	0	0	0	0	0				0.319788079470199	-0.254834437086093	-0.676238410596026	-0.259602649006623	-8.80238410596027	2.88529801324503			
137	3100	0.855841059602649	0.00275496688741723	0.312476821192053	7.59337748344371	16.3753642384106	4.69509933774834				0.864953642384106	-0.0162119205298013	0.445139072847682	-8.80609271523179	-0.812185430463576	-1.42596026490066				0.997827814569536	-0.0972715231788079	-0.0559470198675496	1.68741721854305	10.5064900662252	4.55973509933775				0.608529801324503	-0.240529801324503	-0.613721854304636	-9.27708609271523	16.4235761589404	-2.57562913907285				0.836026490066225	0.0354966887417219	0.213933774834437	-7.0482119205298	5.09192052980133	-6.21748344370861				0.383788079470199	-0.254834437086093	-0.724238410596026	13.4603973509934	-7.68238410596027	5.40529801324503			
138	3120	0.903841059602649	0.0187549668874172	0.312476821192053	15.1533774834437	13.0153642384106	3.85509933774834				0.976953642384106	0.0957880794701987	0.349139072847682	2.67390728476821	0.0278145695364242	0.53403973509934				1.04582781456954	-0.0332715231788079	0.00805298013245037	0.287417218543046	0.426490066225167	2.87973509933775				0.544529801324503	-0.288529801324503	-0.613721854304636	2.48291390728477	6.0635761589404	-0.0556291390728476				0.836026490066225	0.0514966887417219	0.165933774834437	-2.8482119205298	6.77192052980133	-6.21748344370861				0.399788079470199	-0.318834437086093	-0.756238410596026	27.4603973509934	-9.64238410596027	6.52529801324503			
139	3140	0.903841059602649	-0.0132450331125828	0.296476821192053	14.0333774834437	10.2153642384106	0.215099337748344				0.944953642384106	0.0317880794701987	0.221139072847682	15.8339072847682	1.14781456953642	2.21403973509934				1.01382781456954	-0.00127152317880793	0.0560529801324504	8.68741721854305	-9.37350993377483	0.63973509933775				0.528529801324503	-0.368529801324503	-0.645721854304636	0.522913907284768	4.9435761589404	3.02437086092715				0.900026490066225	0.0514966887417219	0.165933774834437	-3.9682119205298	13.7719205298013	-5.09748344370861				0.447788079470199	-0.414834437086093	-0.772238410596026	36.4203973509934	-13.5623841059603	7.08529801324503			
140	3160	0.919841059602649	-0.0132450331125828	0.360476821192053	19.0733774834437	12.4553642384106	-1.18490066225166				0.912953642384106	-0.0162119205298013	0.221139072847682	9.11390728476821	-0.252185430463576	-0.585960264900661				0.949827814569536	-0.00127152317880793	0.0880529801324504	15.687417218543	-8.25350993377483	-1.04026490066225				0.624529801324503	-0.416529801324503	-0.677721854304636	-4.23708609271523	9.4235761589404	6.66437086092715				0.964026490066225	0.0354966887417219	0.197933774834437	-5.6482119205298	15.7319205298013	-5.93748344370861				0.479788079470199	-0.494834437086093	-0.756238410596026	28.0203973509934	-16.6423841059603	11.285298013245			
141	3180	0.903841059602649	0.0187549668874172	0.424476821192053	12.6333774834437	14.9753642384106	-1.18490066225166				0.976953642384106	0.0317880794701987	0.269139072847682	-6.00609271523179	3.66781456953642	-1.42596026490066				0.933827814569536	-0.0332715231788079	0.0880529801324504	16.5274172185431	-2.93350993377483	0.35973509933775				0.736529801324503	-0.432529801324503	-0.677721854304636	-6.47708609271523	11.6635761589404	9.18437086092715				1.02802649006623	0.0354966887417219	0.213933774834437	-6.4882119205298	12.9319205298013	-6.49748344370861				0.447788079470199	-0.526834437086093	-0.756238410596026	10.1003973509934	-15.8023841059603	16.885298013245			
142	3200	0.951841059602649	0.0347549668874172	0.408476821192053	5.35337748344371	21.9753642384106	-0.904900662251656				1.00895364238411	0.0477880794701987	0.237139072847682	-9.92609271523179	3.38781456953642	1.09403973509934				0.965827814569536	-0.0652715231788079	0.10405298013245	18.767417218543	-1.53350993377483	2.87973509933775				0.720529801324503	-0.400529801324503	-0.661721854304636	-8.43708609271523	10.2635761589404	9.46437086092715				1.04402649006623	0.0514966887417219	0.197933774834437	-5.6482119205298	5.93192052980133	-6.21748344370861				0.447788079470199	-0.478834437086093	-0.772238410596026	-8.93960264900662	-10.2023841059603	18.845298013245			
143	3220	1.06384105960265	0.0507549668874172	0.344476821192053	5.63337748344371	28.6953642384106	-2.30490066225166				1.02495364238411	0.0157880794701987	0.205139072847682	-1.80609271523179	7.02781456953642	1.93403973509934				0.997827814569536	-0.0812715231788079	0.10405298013245	28.8474172185431	-0.133509933774833	3.71973509933775				0.656529801324503	-0.352529801324503	-0.629721854304636	-8.99708609271523	8.0235761589404	9.74437086092715				1.02802649006623	0.0514966887417219	0.181933774834437	-2.5682119205298	0.331920529801325	-5.93748344370861				0.431788079470199	-0.430834437086093	-0.804238410596027	-7.53960264900662	-6.56238410596027	21.645298013245			
144	3240	1.14384105960265	0.0347549668874172	0.264476821192053	3.95337748344371	27.2953642384106	-3.70490066225166				1.02495364238411	-0.0322119205298013	0.157139072847682	-0.126092715231788	8.42781456953642	2.21403973509934				1.01382781456954	-0.0972715231788079	0.0400529801324504	20.727417218543	4.06649006622517	4.83973509933775				0.624529801324503	-0.352529801324503	-0.661721854304636	-5.07708609271523	6.6235761589404	11.7043708609272				1.02802649006623	0.0354966887417219	0.181933774834437	1.3517880794702	-2.74807947019868	-3.69748344370861				0.399788079470199	-0.462834437086093	-0.836238410596026	7.58039735099338	-8.24238410596027	24.725298013245			
145	3260	1.15984105960265	0.0347549668874172	0.056476821192053	-13.1266225165563	14.9753642384106	-7.62490066225166				1.02495364238411	-0.0162119205298013	0.205139072847682	-6.84609271523179	14.3078145695364	1.65403973509934				1.01382781456954	-0.113271523178808	-0.0559470198675496	15.127417218543	7.42649006622517	5.11973509933775				0.640529801324503	-0.416529801324503	-0.677721854304636	0.522913907284768	8.8635761589404	14.7843708609272				1.04402649006623	0.00349668874172187	0.165933774834437	3.0317880794702	-4.14807947019868	-1.45748344370861				0.351788079470199	-0.446834437086093	-0.804238410596027	3.66039735099338	-1.80238410596026	23.605298013245			
146	3280	1.11184105960265	0.00275496688741723	-0.071523178807947	-14.2466225165563	-5.1846357615894	-5.38490066225166				1.04095364238411	0.0317880794701987	0.397139072847682	-9.64609271523179	16.8278145695364	0.81403973509934				1.04582781456954	-0.0972715231788079	-0.0719470198675496	15.127417218543	6.02649006622517	4.83973509933775				0.624529801324503	-0.480529801324503	-0.677721854304636	0.242913907284768	9.9835761589404	14.5043708609272				1.01202649006623	0.00349668874172187	0.149933774834437	2.4717880794702	-3.58807947019868	-1.45748344370861				0.351788079470199	-0.366834437086093	-0.788238410596027	0.580397350993377	6.59761589403974	13.805298013245			
147	3300	1.01584105960265	-0.0772450331125828	-0.055523178807947	-3.88662251655629	-20.8646357615894	0.215099337748344				1.02495364238411	0.0157880794701987	0.365139072847682	3.79390728476821	4.22781456953642	1.09403973509934				1.06182781456954	-0.0652715231788079	-0.10394701986755	14.287417218543	-0.133509933774833	4.27973509933775				0.560529801324503	-0.480529801324503	-0.677721854304636	-3.11708609271523	8.0235761589404	10.5843708609272				0.964026490066225	-0.0125033112582781	0.133933774834437	4.4317880794702	0.331920529801325	-3.69748344370861				0.335788079470199	-0.334834437086093	-0.756238410596026	7.58039735099338	5.75761589403974	5.96529801324503			
148	3320	0.935841059602649	-0.125245033112583	0.072476821192053	10.3933774834437	-24.2246357615894	5.25509933774834				0.992953642384106	-0.0322119205298013	0.205139072847682	13.5939072847682	-2.21218543046358	0.53403973509934				1.02982781456954	-0.0812715231788079	-0.15194701986755	13.167417218543	-8.25350993377483	5.11973509933775				0.528529801324503	-0.416529801324503	-0.645721854304636	-4.79708609271523	7.7435761589404	6.38437086092715				0.916026490066225	-0.0285033112582781	0.133933774834437	4.1517880794702	2.85192052980133	-4.81748344370861				0.303788079470199	-0.350834437086093	-0.772238410596026	9.54039735099338	9.95761589403974	1.76529801324503			
149	3340	0.935841059602649	-0.109245033112583	0.200476821192053	21.5933774834437	-15.8246357615894	6.37509933774834				0.960953642384106	-0.0802119205298013	0.189139072847682	6.87390728476821	0.0278145695364242	-1.98596026490066				0.965827814569536	-0.0972715231788079	-0.18394701986755	8.40741721854305	-10.7735099337748	4.83973509933775				0.560529801324503	-0.400529801324503	-0.629721854304636	-6.75708609271523	4.3835761589404	5.82437086092715				0.916026490066225	-0.0125033112582781	0.149933774834437	4.1517880794702	4.25192052980133	-5.65748344370861				0.287788079470199	-0.430834437086093	-0.756238410596026	11.2203973509934	7.99761589403974	-3.55470198675497			
150	3360	0.903841059602649	-0.0452450331125828	0.264476821192053	16.2733774834437	-3.5046357615894	0.775099337748344				0.992953642384106	-0.0482119205298013	0.205139072847682	-2.92609271523179	4.22781456953642	-1.70596026490066				0.949827814569536	-0.0972715231788079	-0.18394701986755	1.12741721854305	-9.93350993377483	3.15973509933775				0.560529801324503	-0.416529801324503	-0.661721854304636	-9.27708609271523	2.4235761589404	5.26437086092715				0.948026490066225	-0.0285033112582781	0.165933774834437	0.511788079470198	3.97192052980133	-6.21748344370861				0.335788079470199	-0.446834437086093	-0.740238410596026	1.42039735099338	5.47761589403974	-3.55470198675497			
151	3380	0.951841059602649	-0.0292450331125828	0.248476821192053	-1.64662251655629	-3.5046357615894	-4.54490066225166				1.02495364238411	-0.000211920529801304	0.253139072847682	-8.80609271523179	-3.05218543046358	-1.98596026490066				0.933827814569536	-0.129271523178808	-0.10394701986755	-6.15258278145695	-5.17350993377483	1.19973509933775				0.544529801324503	-0.416529801324503	-0.645721854304636	-10.9570860927152	2.7035761589404	2.74437086092715				0.980026490066225	-0.0125033112582781	0.133933774834437	-3.9682119205298	1.73192052980133	-6.21748344370861				0.399788079470199	-0.462834437086093	-0.772238410596026	-2.21960264900662	4.91761589403974	-1.87470198675497			
152	3400	0.967841059602649	-0.0132450331125828	0.184476821192053	-11.4466225165563	-3.7846357615894	-6.50490066225166				0.976953642384106	-0.0482119205298013	0.0931390728476822	-9.36609271523179	-12.5721854304636	-1.70596026490066				0.933827814569536	-0.113271523178808	-0.0399470198675496	-13.152582781457	-6.85350993377483	0.63973509933775				0.576529801324503	-0.368529801324503	-0.645721854304636	-11.7970860927152	0.4635761589404	1.90437086092715				0.980026490066225	0.00349668874172187	0.165933774834437	-2.5682119205298	2.85192052980133	-4.81748344370861				0.415788079470199	-0.478834437086093	-0.788238410596027	-5.57960264900662	2.95761589403974	2.04529801324503			
153	3420	0.967841059602649	-0.0132450331125828	0.200476821192053	-7.24662251655629	-1.2646357615894	-3.14490066225166				0.992953642384106	-0.0322119205298013	0.173139072847682	-7.68609271523179	-8.93218543046358	-1.70596026490066				0.933827814569536	-0.0972715231788079	-0.00794701986754963	-15.392582781457	-2.37350993377483	-1.04026490066225				0.576529801324503	-0.368529801324503	-0.629721854304636	-8.15708609271523	-2.0564238410596	1.06437086092715				0.996026490066225	-0.0125033112582781	0.117933774834437	-5.3682119205298	-5.26807947019868	-2.01748344370861				0.399788079470199	-0.414834437086093	-0.788238410596027	-4.73960264900662	5.47761589403974	-0.754701986754968			
154	3440	0.951841059602649	-0.0292450331125828	0.216476821192053	-0.526622516556291	4.6153642384106	-0.624900662251656				0.976953642384106	-0.000211920529801304	0.189139072847682	-3.76609271523179	-11.1721854304636	-1.14596026490066				0.933827814569536	-0.0812715231788079	-0.00794701986754963	-12.872582781457	1.82649006622517	-1.88026490066225				0.560529801324503	-0.384529801324503	-0.613721854304636	-3.95708609271523	-4.8564238410596	-1.45562913907285				0.996026490066225	-0.0125033112582781	0.133933774834437	-8.4482119205298	-6.66807947019868	1.62251655629139				0.399788079470199	-0.350834437086093	-0.804238410596027	3.94039735099338	7.71761589403974	-6.91470198675497			
155	3460	0.983841059602649	-0.0292450331125828	0.200476821192053	1.99337748344371	5.4553642384106	-0.904900662251656				0.976953642384106	0.0157880794701987	0.173139072847682	-0.126092715231788	-11.4521854304636	-2.54596026490066				0.949827814569536	-0.0652715231788079	-0.0239470198675496	-9.79258278145695	3.50649006622517	-1.60026490066225				0.560529801324503	-0.384529801324503	-0.629721854304636	0.802913907284768	-9.0564238410596	-1.73562913907285				0.980026490066225	0.0194966887417219	0.117933774834437	-6.7682119205298	-7.78807947019868	2.46251655629139				0.383788079470199	-0.334834437086093	-0.820238410596026	17.3803973509934	5.75761589403974	-13.354701986755			
156	3480	0.983841059602649	0.00275496688741723	0.184476821192053	-3.04662251655629	2.3753642384106	-2.02490066225166				0.976953642384106	0.0317880794701987	0.173139072847682	0.433907284768212	-10.6121854304636	-3.10596026490066				0.965827814569536	-0.0492715231788079	-0.0399470198675496	-8.11258278145695	4.90649006622517	-1.04026490066225				0.528529801324503	-0.400529801324503	-0.661721854304636	4.44291390728477	-7.0964238410596	-0.0556291390728476				0.964026490066225	0.0194966887417219	0.101933774834437	-3.9682119205298	-10.3080794701987	3.02251655629139				0.335788079470199	-0.382834437086093	-0.852238410596026	24.1003973509934	1.83761589403974	-16.994701986755			
157	3500	0.983841059602649	0.00275496688741723	0.184476821192053	-7.80662251655629	-1.8246357615894	-3.14490066225166				0.944953642384106	0.0317880794701987	0.173139072847682	1.27390728476821	-5.01218543046358	-1.14596026490066				0.997827814569536	-0.0652715231788079	-0.0239470198675496	-4.75258278145695	6.58649006622517	-0.48026490066225				0.544529801324503	-0.432529801324503	-0.661721854304636	6.40291390728477	-5.1364238410596	-0.615629139072848				0.932026490066225	0.0194966887417219	0.101933774834437	-0.888211920529802	-8.90807947019868	4.14251655629139				0.319788079470199	-0.398834437086093	-0.852238410596026	17.3803973509934	1.83761589403974	-16.434701986755			
158	3520	0.983841059602649	0.00275496688741723	0.184476821192053	-4.16662251655629	-3.7846357615894	-2.58490066225166				0.992953642384106	0.0317880794701987	0.253139072847682	-4.88609271523179	3.38781456953642	1.37403973509934				1.01382781456954	-0.0972715231788079	-0.0399470198675496	-3.35258278145695	3.50649006622517	-0.20026490066225				0.496529801324503	-0.432529801324503	-0.661721854304636	9.76291390728477	-1.2164238410596	-0.0556291390728476				0.932026490066225	0.0194966887417219	0.0699337748344371	0.231788079470198	-6.66807947019868	3.02251655629139				0.319788079470199	-0.366834437086093	-0.820238410596026	-0.819602649006623	-3.48238410596027	-10.554701986755			
159	3540	0.951841059602649	-0.0292450331125828	0.216476821192053	0.313377483443709	-4.9046357615894	-1.46490066225166				0.976953642384106	0.0637880794701987	0.253139072847682	-6.28609271523179	-4.73218543046358	1.93403973509934				0.997827814569536	-0.0972715231788079	-0.0879470198675496	-1.39258278145695	2.66649006622517	-0.20026490066225				0.496529801324503	-0.432529801324503	-0.709721854304636	8.36291390728477	2.1435761589404	-1.17562913907285				0.948026490066225	0.0194966887417219	0.0699337748344371	-0.608211920529802	-3.86807947019868	0.222516556291392				0.335788079470199	-0.350834437086093	-0.836238410596026	-5.57960264900662	-6.56238410596027	-8.87470198675497			
160	3560	0.967841059602649	-0.0132450331125828	0.232476821192053	3.11337748344371	-4.3446357615894	-1.18490066225166				0.992953642384106	0.0157880794701987	0.253139072847682	-1.24609271523179	-8.37218543046358	1.37403973509934				0.997827814569536	-0.0652715231788079	-0.0879470198675496	-3.07258278145695	3.50649006622517	-0.20026490066225				0.496529801324503	-0.432529801324503	-0.709721854304636	5.84291390728477	4.6635761589404	-4.81562913907285				0.948026490066225	0.00349668874172187	0.0699337748344371	0.511788079470198	-2.46807947019868	0.502516556291392				0.335788079470199	-0.350834437086093	-0.804238410596027	-4.73960264900662	-7.96238410596027	-8.59470198675497			
161	3580	0.967841059602649	0.00275496688741723	0.280476821192053	3.11337748344371	-0.984635761589404	-2.02490066225166				0.976953642384106	-0.000211920529801304	0.173139072847682	0.433907284768212	-10.6121854304636	0.25403973509934				0.997827814569536	-0.0652715231788079	-0.0879470198675496	-5.31258278145695	2.10649006622517	-1.32026490066225				0.528529801324503	-0.416529801324503	-0.677721854304636	3.60291390728477	4.1035761589404	-8.17562913907285				0.948026490066225	0.0194966887417219	0.0699337748344371	1.3517880794702	1.45192052980132	-0.337483443708608				0.335788079470199	-0.334834437086093	-0.804238410596027	-5.85960264900662	-4.32238410596027	-8.03470198675497			
162	3600	0.951841059602649	0.0187549668874172	0.280476821192053	-1.64662251655629	0.135364238410596	-2.86490066225166				0.960953642384106	0.0157880794701987	0.173139072847682	-1.52609271523179	-2.77218543046358	-0.0259602649006601				1.01382781456954	-0.0652715231788079	-0.0879470198675496	-6.71258278145695	-1.81350993377483	-0.20026490066225				0.544529801324503	-0.400529801324503	-0.677721854304636	4.44291390728477	1.5835761589404	-9.85562913907285				0.964026490066225	0.0194966887417219	0.0539337748344371	2.4717880794702	1.73192052980133	-0.617483443708608				0.351788079470199	-0.334834437086093	-0.788238410596027	2.26039735099338	-1.52238410596026	-11.114701986755			
163	3620	0.967841059602649	0.0507549668874172	0.264476821192053	-4.44662251655629	-2.1046357615894	-2.86490066225166				0.976953642384106	0.0477880794701987	0.173139072847682	-0.406092715231788	-5.01218543046358	-0.86596026490066				0.981827814569536	-0.0492715231788079	-0.0399470198675496	-5.31258278145695	-3.49350993377483	-0.20026490066225				0.544529801324503	-0.416529801324503	-0.693721854304636	3.32291390728477	-2.6164238410596	-9.01562913907285				0.964026490066225	0.0194966887417219	0.0699337748344371	3.5917880794702	1.17192052980133	0.782516556291392				0.351788079470199	-0.334834437086093	-0.772238410596026	9.82039735099338	-0.962384105960265	-14.474701986755			
164	3640	0.967841059602649	0.0507549668874172	0.232476821192053	-3.88662251655629	-2.9446357615894	-3.42490066225166				0.960953642384106	0.0317880794701987	0.157139072847682	-0.966092715231788	-4.45218543046358	-1.42596026490066				0.949827814569536	-0.0172715231788079	-0.0399470198675496	-3.07258278145695	-4.89350993377483	-1.04026490066225				0.528529801324503	-0.448529801324503	-0.693721854304636	1.64291390728477	-4.0164238410596	-5.37562913907285				0.964026490066225	0.0194966887417219	0.0699337748344371	4.1517880794702	-0.508079470198675	0.222516556291392				0.367788079470199	-0.366834437086093	-0.788238410596027	15.7003973509934	0.437615894039735	-16.154701986755			
165	3660	0.951841059602649	0.0347549668874172	0.216476821192053	-1.36662251655629	-2.6646357615894	-2.30490066225166				0.944953642384106	0.0637880794701987	0.173139072847682	-0.126092715231788	-4.17218543046358	-1.42596026490066				0.949827814569536	-0.00127152317880793	-0.0239470198675496	-0.272582781456954	-4.89350993377483	-1.04026490066225				0.512529801324503	-0.448529801324503	-0.693721854304636	3.04291390728477	-2.0564238410596	-2.85562913907285				0.964026490066225	0.0194966887417219	0.0539337748344371	2.1917880794702	-3.02807947019868	-0.617483443708608				0.351788079470199	-0.430834437086093	-0.788238410596027	12.6203973509934	1.83761589403974	-15.314701986755			
166	3680	0.983841059602649	0.0187549668874172	0.216476821192053	1.71337748344371	-2.6646357615894	-0.624900662251656				0.960953642384106	0.0477880794701987	0.157139072847682	3.79390728476821	0.0278145695364242	-0.585960264900661				0.965827814569536	-0.0172715231788079	-0.0239470198675496	2.80741721854305	-3.49350993377483	-1.04026490066225				0.528529801324503	-0.448529801324503	-0.693721854304636	1.36291390728477	-0.0964238410596001	-2.57562913907285				0.964026490066225	0.0194966887417219	0.0699337748344371	2.7517880794702	0.611920529801325	-1.17748344370861				0.367788079470199	-0.414834437086093	-0.788238410596027	0.300397350993377	1.83761589403974	-10.834701986755			
167	3700	0.967841059602649	0.0347549668874172	0.216476821192053	1.43337748344371	-1.2646357615894	-1.46490066225166				0.976953642384106	0.0477880794701987	0.157139072847682	4.35390728476821	2.82781456953642	-0.0259602649006601				0.965827814569536	-0.0492715231788079	-0.0239470198675496	5.04741721854305	-1.81350993377483	-1.04026490066225				0.528529801324503	-0.400529801324503	-0.693721854304636	-1.43708609271523	-0.3764238410596	-1.45562913907285				0.964026490066225	0.0194966887417219	0.0699337748344371	2.4717880794702	0.0519205298013249	-2.57748344370861				0.351788079470199	-0.382834437086093	-0.788238410596027	-4.17960264900662	2.39761589403974	-7.19470198675497			
168	3720	0.951841059602649	0.0187549668874172	0.216476821192053	-1.64662251655629	-2.6646357615894	-2.02490066225166				0.976953642384106	0.0477880794701987	0.157139072847682	1.83390728476821	4.78781456953642	-1.42596026490066				0.965827814569536	-0.0492715231788079	-0.0399470198675496	6.16741721854305	1.26649006622517	-1.32026490066225				0.560529801324503	-0.400529801324503	-0.677721854304636	-3.67708609271523	-1.7764238410596	-2.57562913907285				0.948026490066225	0.0354966887417219	0.0699337748344371	3.0317880794702	-1.34807947019868	-2.57748344370861				0.351788079470199	-0.350834437086093	-0.788238410596027	-3.61960264900662	4.07761589403974	-5.79470198675497			
169	3740	0.967841059602649	0.0187549668874172	0.200476821192053	-1.64662251655629	-3.5046357615894	-1.74490066225166				0.976953642384106	0.0477880794701987	0.157139072847682	2.39390728476821	3.10781456953642	-1.42596026490066				0.965827814569536	-0.0492715231788079	-0.0559470198675496	4.76741721854305	1.82649006622517	-0.76026490066225				0.544529801324503	-0.400529801324503	-0.677721854304636	-4.79708609271523	-2.6164238410596	-5.09562913907285				0.964026490066225	0.0354966887417219	0.0699337748344371	3.5917880794702	-0.508079470198675	-2.01748344370861				0.351788079470199	-0.350834437086093	-0.804238410596027	1.42039735099338	4.35761589403974	-6.63470198675497			
170	3760	0.967841059602649	0.0187549668874172	0.200476821192053	-1.64662251655629	-2.3846357615894	-1.18490066225166				0.976953642384106	0.0477880794701987	0.173139072847682	5.19390728476821	5.90781456953642	-2.26596026490066				0.997827814569536	-0.0652715231788079	-0.0719470198675496	5.60741721854305	2.10649006622517	-0.20026490066225				0.512529801324503	-0.416529801324503	-0.677721854304636	-4.51708609271523	-2.8964238410596	-6.49562913907285				0.948026490066225	0.0354966887417219	0.0699337748344371	3.8717880794702	0.611920529801325	-3.69748344370861				0.367788079470199	-0.350834437086093	-0.804238410596027	6.74039735099338	4.07761589403974	-7.47470198675497			
171	3780	0.967841059602649	0.00275496688741723	0.184476821192053	0.593377483443709	-1.2646357615894	-0.624900662251656				1.02495364238411	0.0317880794701987	0.221139072847682	3.51390728476821	6.46781456953642	-1.14596026490066				0.997827814569536	-0.0652715231788079	-0.0719470198675496	3.64741721854305	-0.413509933774833	-0.20026490066225				0.528529801324503	-0.400529801324503	-0.677721854304636	-2.55708609271523	-1.2164238410596	-4.81562913907285				0.964026490066225	0.0354966887417219	0.0699337748344371	3.3117880794702	1.73192052980133	-3.41748344370861				0.367788079470199	-0.366834437086093	-0.804238410596027	7.30039735099338	1.83761589403974	-8.03470198675497			
172	3800	0.951841059602649	0.00275496688741723	0.184476821192053	1.99337748344371	-0.704635761589404	0.215099337748344				0.976953642384106	0.0317880794701987	0.157139072847682	1.27390728476821	2.26781456953642	-1.98596026490066				0.981827814569536	-0.0652715231788079	-0.0879470198675496	2.24741721854305	-1.53350993377483	-1.04026490066225				0.528529801324503	-0.416529801324503	-0.693721854304636	-1.15708609271523	0.4635761589404	-3.41562913907285				0.980026490066225	0.0194966887417219	0.0699337748344371	3.3117880794702	1.45192052980132	-3.41748344370861				0.383788079470199	-0.382834437086093	-0.820238410596026	5.62039735099338	0.997615894039735	-8.03470198675497			
173	3820	0.967841059602649	0.00275496688741723	0.184476821192053	0.593377483443709	-0.144635761589404	-1.18490066225166				0.976953642384106	0.0317880794701987	0.173139072847682	0.433907284768212	3.66781456953642	-2.54596026490066				0.981827814569536	-0.0652715231788079	-0.0719470198675496	-0.552582781456954	-2.37350993377483	-0.48026490066225				0.544529801324503	-0.400529801324503	-0.709721854304636	-0.877086092715232	-0.0964238410596001	-3.41562913907285				0.980026490066225	0.0354966887417219	0.0859337748344371	3.5917880794702	0.891920529801325	-3.69748344370861				0.383788079470199	-0.382834437086093	-0.836238410596026	3.10039735099338	0.157615894039735	-7.19470198675497			
174	3840	0.967841059602649	0.00275496688741723	0.184476821192053	-1.36662251655629	-0.984635761589404	-1.74490066225166				0.992953642384106	0.0477880794701987	0.189139072847682	3.79390728476821	2.82781456953642	-1.70596026490066				0.997827814569536	-0.0492715231788079	-0.0719470198675496	0.287417218543046	-2.93350993377483	-1.04026490066225				0.560529801324503	-0.432529801324503	-0.709721854304636	-1.43708609271523	0.4635761589404	-2.57562913907285				0.964026490066225	0.0354966887417219	0.0859337748344371	4.1517880794702	1.17192052980133	-2.57748344370861				0.399788079470199	-0.398834437086093	-0.820238410596026	-0.819602649006623	-1.80238410596026	-4.95470198675497			
175	3860	0.983841059602649	0.00275496688741723	0.184476821192053	-1.64662251655629	-2.1046357615894	-1.46490066225166				0.992953642384106	0.0317880794701987	0.173139072847682	7.15390728476821	3.94781456953642	-1.14596026490066				0.981827814569536	-0.0492715231788079	-0.0719470198675496	2.24741721854305	-1.53350993377483	-0.76026490066225				0.544529801324503	-0.400529801324503	-0.693721854304636	-3.39708609271523	-0.3764238410596	-2.29562913907285				0.980026490066225	0.0354966887417219	0.0859337748344371	4.1517880794702	1.17192052980133	-3.97748344370861				0.383788079470199	-0.398834437086093	-0.804238410596027	-2.77960264900662	-2.36238410596027	-2.71470198675497			
176	3880	0.967841059602649	0.00275496688741723	0.168476821192053	-0.806622516556291	-2.6646357615894	-0.344900662251656				0.992953642384106	0.0477880794701987	0.173139072847682	5.75390728476821	6.18781456953642	-0.30596026490066				0.965827814569536	-0.0652715231788079	-0.0719470198675496	3.08741721854305	-1.53350993377483	-0.20026490066225				0.560529801324503	-0.368529801324503	-0.693721854304636	-4.23708609271523	-0.9364238410596	-2.57562913907285				0.964026490066225	0.0514966887417219	0.0859337748344371	3.8717880794702	1.73192052980133	-2.57748344370861				0.383788079470199	-0.382834437086093	-0.788238410596027	-1.65960264900662	-0.682384105960265	-2.71470198675497			
177	3900	0.967841059602649	0.0187549668874172	0.184476821192053	2.27337748344371	-1.8246357615894	-0.624900662251656				0.976953642384106	0.0637880794701987	0.205139072847682	3.51390728476821	5.62781456953642	-0.30596026490066				0.949827814569536	-0.0492715231788079	-0.0719470198675496	3.64741721854305	-0.973509933774833	-0.20026490066225				0.544529801324503	-0.368529801324503	-0.677721854304636	-0.877086092715232	-0.6564238410596	-4.25562913907285				0.948026490066225	0.0354966887417219	0.0859337748344371	4.1517880794702	0.891920529801325	-3.13748344370861				0.383788079470199	-0.350834437086093	-0.772238410596026	0.860397350993377	-0.122384105960265	-1.03470198675497			
178	3920	0.967841059602649	0.00275496688741723	0.216476821192053	4.23337748344371	-0.424635761589404	-0.624900662251656				0.992953642384106	0.0477880794701987	0.189139072847682	3.51390728476821	0.307814569536424	-0.86596026490066				0.981827814569536	-0.0492715231788079	-0.0719470198675496	3.08741721854305	0.706490066225167	0.35973509933775				0.528529801324503	-0.384529801324503	-0.677721854304636	-0.877086092715232	-2.0564238410596	-5.93562913907285				0.948026490066225	0.0514966887417219	0.0859337748344371	4.7117880794702	2.29192052980133	-2.29748344370861				0.383788079470199	-0.366834437086093	-0.788238410596027	4.22039735099338	1.27761589403974	-0.474701986754968			
