No	Time	12-AccX	12-AccY	12-AccZ	12-GyroX	12-GyroY	12-GyroZ	13-AccX	13-AccY	13-AccZ	13-GyroX	13-GyroY	13-GyroZ	14-AccX	14-AccY	14-AccZ	14-GyroX	14-GyroY	14-GyroZ	15-AccX	15-AccY	15-AccZ	15-GyroX	15-GyroY	15-GyroZ	16-AccX	16-AccY	16-AccZ	16-GyroX	16-GyroY	16-GyroZ	17-AccX	17-AccY	17-AccZ	17-GyroX	17-GyroY	17-GyroZ
0	120	-0.216158940397351	0.0347549668874172	-0.951523178807947	0.593377483443709	0.695364238410596	-0.904900662251656				0.976953642384106	0.143788079470199	0.205139072847682	1.27390728476821	-0.532185430463576	1.65403973509934				-0.202172185430464	0.126728476821192	-0.90394701986755	-0.552582781456954	0.706490066225167	-0.48026490066225				0	0	0	0	0	0				0.932026490066225	0.0994966887417219	0.309933774834437	-0.328211920529802	1.17192052980133	-0.617483443708608				0.367788079470199	-0.206834437086093	-0.852238410596026	0.580397350993377	0.437615894039735	-0.194701986754968			
1	140	-0.216158940397351	0.0347549668874172	-0.951523178807947	0.593377483443709	-0.144635761589404	-1.18490066225166				0.976953642384106	0.143788079470199	0.189139072847682	0.993907284768212	-0.812185430463576	0.81403973509934				-0.218172185430464	0.110728476821192	-0.90394701986755	1.12741721854305	0.426490066225167	-0.20026490066225				0.560529801324503	-0.144529801324503	-0.789721854304636	0.522913907284768	0.4635761589404	0.504370860927152				0.932026490066225	0.0834966887417219	0.293933774834437	-1.1682119205298	-0.228079470198675	-0.0574834437086077				0.383788079470199	-0.206834437086093	-0.868238410596026	-0.539602649006623	-0.122384105960265	-0.754701986754968			
2	160	-0.216158940397351	0.0347549668874172	-0.951523178807947	-0.246622516556291	0.135364238410596	-0.904900662251656				0.976953642384106	0.143788079470199	0.189139072847682	0.993907284768212	-1.37218543046358	1.09403973509934				-0.218172185430464	0.126728476821192	-0.88794701986755	0.287417218543046	0.706490066225167	0.35973509933775				0.544529801324503	-0.144529801324503	-0.789721854304636	-0.317086092715232	0.4635761589404	0.224370860927152				0.916026490066225	0.0834966887417219	0.309933774834437	0.511788079470198	1.17192052980133	0.502516556291392				0.367788079470199	-0.206834437086093	-0.852238410596026	0.0203973509933773	0.437615894039735	-0.474701986754968			
3	180	-0.216158940397351	0.0347549668874172	-0.951523178807947	0.0333774834437086	0.135364238410596	-1.46490066225166				0.960953642384106	0.127788079470199	0.189139072847682	0.993907284768212	-0.532185430463576	1.09403973509934				-0.202172185430464	0.110728476821192	-0.88794701986755	-0.832582781456954	0.706490066225167	0.35973509933775				0.560529801324503	-0.144529801324503	-0.789721854304636	-0.877086092715232	0.1835761589404	-0.0556291390728476				0.932026490066225	0.0834966887417219	0.293933774834437	0.791788079470198	1.17192052980133	-0.337483443708608				0.383788079470199	-0.206834437086093	-0.852238410596026	0.580397350993377	0.157615894039735	-0.754701986754968			
4	200	-0.216158940397351	0.0507549668874172	-0.935523178807947	0.873377483443709	0.415364238410596	-1.46490066225166				0.976953642384106	0.143788079470199	0.189139072847682	1.27390728476821	0.0278145695364242	1.09403973509934				-0.218172185430464	0.126728476821192	-0.88794701986755	-1.95258278145695	-0.133509933774833	0.0797350993377501				0.544529801324503	-0.144529801324503	-0.789721854304636	-0.877086092715232	-0.3764238410596	0.784370860927152				0.932026490066225	0.0834966887417219	0.293933774834437	-0.328211920529802	0.611920529801325	-0.897483443708608				0.383788079470199	-0.206834437086093	-0.852238410596026	0.0203973509933773	0.157615894039735	0.645298013245032			
5	220	-0.216158940397351	0.0347549668874172	-0.935523178807947	0.593377483443709	0.135364238410596	-1.18490066225166				0.976953642384106	0.143788079470199	0.189139072847682	0.713907284768212	-1.09218543046358	0.81403973509934				-0.218172185430464	0.126728476821192	-0.90394701986755	-0.552582781456954	0.706490066225167	0.0797350993377501				0.544529801324503	-0.128529801324503	-0.789721854304636	-0.597086092715232	-0.3764238410596	0.504370860927152				0.916026490066225	0.0994966887417219	0.293933774834437	-0.608211920529802	0.891920529801325	0.222516556291392				0.383788079470199	-0.206834437086093	-0.852238410596026	0.580397350993377	-0.682384105960265	0.0852980132450323			
6	240	-0.232158940397351	0.0347549668874172	-0.951523178807947	-0.246622516556291	0.135364238410596	-0.904900662251656				0.976953642384106	0.143788079470199	0.189139072847682	0.713907284768212	-2.49218543046358	1.09403973509934				-0.218172185430464	0.126728476821192	-0.90394701986755	-1.39258278145695	0.146490066225167	0.35973509933775				0.528529801324503	-0.144529801324503	-0.789721854304636	-1.15708609271523	-0.0964238410596001	1.34437086092715				0.916026490066225	0.0674966887417219	0.309933774834437	-0.0482119205298018	0.611920529801325	0.502516556291392				0.383788079470199	-0.206834437086093	-0.852238410596026	1.14039735099338	-0.682384105960265	-0.754701986754968			
7	260	-0.232158940397351	0.0347549668874172	-0.951523178807947	0.0333774834437086	-0.424635761589404	-0.624900662251656				0.976953642384106	0.127788079470199	0.189139072847682	0.993907284768212	-2.49218543046358	0.25403973509934				-0.218172185430464	0.142728476821192	-0.88794701986755	-1.67258278145695	0.426490066225167	-1.04026490066225				0.544529801324503	-0.144529801324503	-0.789721854304636	0.522913907284768	0.7435761589404	1.06437086092715				0.932026490066225	0.0834966887417219	0.293933774834437	-1.4482119205298	2.01192052980133	-0.0574834437086077				0.367788079470199	-0.206834437086093	-0.852238410596026	0.860397350993377	-0.402384105960265	-1.03470198675497			
8	280	-0.216158940397351	0.0347549668874172	-0.951523178807947	0.593377483443709	0.135364238410596	-0.904900662251656				0.976953642384106	0.159788079470199	0.189139072847682	2.39390728476821	-0.532185430463576	1.09403973509934				-0.218172185430464	0.126728476821192	-0.88794701986755	-0.552582781456954	-0.973509933774833	0.35973509933775				0.544529801324503	-0.144529801324503	-0.773721854304636	0.802913907284768	2.1435761589404	1.06437086092715				0.932026490066225	0.0834966887417219	0.293933774834437	-1.7282119205298	1.17192052980133	-0.0574834437086077				0.367788079470199	-0.206834437086093	-0.852238410596026	0.860397350993377	1.27761589403974	-0.194701986754968			
9	300	-0.216158940397351	0.0347549668874172	-0.951523178807947	-0.806622516556291	0.415364238410596	-0.904900662251656				0.960953642384106	0.143788079470199	0.173139072847682	0.433907284768212	1.14781456953642	1.09403973509934				-0.218172185430464	0.110728476821192	-0.88794701986755	-0.272582781456954	-0.133509933774833	0.0797350993377501				0.544529801324503	-0.144529801324503	-0.789721854304636	1.36291390728477	1.3035761589404	-0.0556291390728476				0.916026490066225	0.0834966887417219	0.309933774834437	-1.7282119205298	1.73192052980133	-0.617483443708608				0.367788079470199	-0.206834437086093	-0.852238410596026	1.70039735099338	-0.122384105960265	-0.754701986754968			
10	320	-0.216158940397351	0.0347549668874172	-0.951523178807947	0.0333774834437086	-0.144635761589404	-1.18490066225166				0.976953642384106	0.143788079470199	0.205139072847682	-0.686092715231788	-1.09218543046358	0.53403973509934				-0.218172185430464	0.126728476821192	-0.88794701986755	0.567417218543046	0.706490066225167	-0.20026490066225				0.528529801324503	-0.128529801324503	-0.789721854304636	0.242913907284768	1.3035761589404	0.504370860927152				0.916026490066225	0.0834966887417219	0.277933774834437	-2.2882119205298	2.29192052980133	-0.897483443708608				0.367788079470199	-0.206834437086093	-0.836238410596026	0.580397350993377	-0.122384105960265	-0.754701986754968			
11	340	-0.232158940397351	0.0347549668874172	-0.951523178807947	0.313377483443709	-0.704635761589404	-1.18490066225166				0.960953642384106	0.143788079470199	0.189139072847682	2.39390728476821	-3.61218543046358	1.09403973509934				-0.218172185430464	0.126728476821192	-0.90394701986755	0.847417218543046	0.146490066225167	0.0797350993377501				0.544529801324503	-0.144529801324503	-0.773721854304636	-0.597086092715232	1.3035761589404	-0.335629139072848				0.948026490066225	0.0834966887417219	0.293933774834437	-0.328211920529802	1.73192052980133	0.222516556291392				0.367788079470199	-0.222834437086093	-0.852238410596026	-0.819602649006623	-0.402384105960265	-0.474701986754968			
12	360	-0.216158940397351	0.0347549668874172	-0.951523178807947	0.313377483443709	0.135364238410596	-0.904900662251656				0.976953642384106	0.143788079470199	0.189139072847682	2.67390728476821	-3.33218543046358	0.53403973509934				-0.218172185430464	0.110728476821192	-0.90394701986755	0.00741721854304636	-0.133509933774833	0.0797350993377501				0.560529801324503	-0.128529801324503	-0.773721854304636	-1.71708609271523	0.1835761589404	0.224370860927152				0.948026490066225	0.0834966887417219	0.309933774834437	0.791788079470198	1.45192052980132	0.222516556291392				0.367788079470199	-0.206834437086093	-0.868238410596026	0.0203973509933773	0.157615894039735	-0.194701986754968			
13	380	-0.232158940397351	0.0347549668874172	-0.951523178807947	0.313377483443709	0.415364238410596	-1.46490066225166				0.976953642384106	0.143788079470199	0.173139072847682	2.11390728476821	-2.21218543046358	0.25403973509934				-0.218172185430464	0.126728476821192	-0.90394701986755	0.287417218543046	0.146490066225167	0.0797350993377501				0.560529801324503	-0.128529801324503	-0.805721854304636	0.522913907284768	0.7435761589404	0.224370860927152				0.948026490066225	0.0834966887417219	0.293933774834437	-0.888211920529802	-0.228079470198675	0.502516556291392				0.367788079470199	-0.206834437086093	-0.852238410596026	0.0203973509933773	0.997615894039735	-0.754701986754968			
14	400	-0.232158940397351	0.0347549668874172	-0.951523178807947	-0.246622516556291	0.415364238410596	-1.74490066225166				0.976953642384106	0.143788079470199	0.189139072847682	2.39390728476821	-1.65218543046358	1.65403973509934				-0.218172185430464	0.126728476821192	-0.88794701986755	-0.552582781456954	0.706490066225167	0.35973509933775				0.560529801324503	-0.144529801324503	-0.789721854304636	1.08291390728477	1.3035761589404	0.784370860927152				0.932026490066225	0.0834966887417219	0.309933774834437	0.231788079470198	0.611920529801325	0.222516556291392				0.383788079470199	-0.222834437086093	-0.852238410596026	1.42039735099338	0.717615894039735	-1.03470198675497			
15	420	-0.232158940397351	0.0187549668874172	-0.951523178807947	-0.526622516556291	0.695364238410596	-1.46490066225166				0.976953642384106	0.127788079470199	0.173139072847682	1.55390728476821	-2.21218543046358	2.21403973509934				-0.218172185430464	0.126728476821192	-0.90394701986755	-0.272582781456954	0.146490066225167	0.35973509933775				0.560529801324503	-0.144529801324503	-0.789721854304636	1.64291390728477	1.8635761589404	1.06437086092715				0.932026490066225	0.0834966887417219	0.309933774834437	0.791788079470198	0.331920529801325	0.222516556291392				0.383788079470199	-0.222834437086093	-0.852238410596026	0.0203973509933773	0.157615894039735	-0.474701986754968			
16	440	-0.232158940397351	0.0347549668874172	-0.951523178807947	0.313377483443709	0.695364238410596	-0.904900662251656				0.976953642384106	0.143788079470199	0.173139072847682	2.11390728476821	-3.33218543046358	1.09403973509934				-0.202172185430464	0.126728476821192	-0.90394701986755	-0.272582781456954	0.706490066225167	0.35973509933775				0.560529801324503	-0.144529801324503	-0.789721854304636	0.242913907284768	0.1835761589404	1.06437086092715				0.932026490066225	0.0674966887417219	0.293933774834437	-0.0482119205298018	0.331920529801325	-0.617483443708608				0.383788079470199	-0.206834437086093	-0.868238410596026	-1.37960264900662	-0.682384105960265	0.645298013245032			
17	460	-0.216158940397351	0.0347549668874172	-0.935523178807947	0.0333774834437086	0.695364238410596	-1.18490066225166				0.976953642384106	0.143788079470199	0.173139072847682	2.39390728476821	-2.77218543046358	0.81403973509934				-0.218172185430464	0.126728476821192	-0.88794701986755	0.00741721854304636	0.986490066225167	0.63973509933775				0.544529801324503	-0.144529801324503	-0.789721854304636	-0.597086092715232	-0.9364238410596	0.784370860927152				0.916026490066225	0.0674966887417219	0.293933774834437	-0.328211920529802	0.331920529801325	0.502516556291392				0.367788079470199	-0.206834437086093	-0.852238410596026	0.0203973509933773	0.157615894039735	0.0852980132450323			
18	480	-0.232158940397351	0.0347549668874172	-0.951523178807947	-0.806622516556291	0.415364238410596	-1.18490066225166				0.976953642384106	0.143788079470199	0.173139072847682	2.11390728476821	-1.65218543046358	0.53403973509934				-0.202172185430464	0.142728476821192	-0.88794701986755	0.00741721854304636	0.426490066225167	-0.20026490066225				0.544529801324503	-0.144529801324503	-0.789721854304636	0.522913907284768	-0.3764238410596	0.224370860927152				0.932026490066225	0.0834966887417219	0.309933774834437	-0.328211920529802	-0.228079470198675	-0.0574834437086077				0.367788079470199	-0.206834437086093	-0.852238410596026	1.14039735099338	0.157615894039735	-1.31470198675497			
19	500	-0.216158940397351	0.0347549668874172	-0.951523178807947	-0.246622516556291	0.415364238410596	-0.904900662251656				0.976953642384106	0.143788079470199	0.173139072847682	0.713907284768212	-1.37218543046358	0.81403973509934				-0.218172185430464	0.142728476821192	-0.88794701986755	0.00741721854304636	0.146490066225167	-0.76026490066225				0.544529801324503	-0.144529801324503	-0.789721854304636	-0.0370860927152318	-0.3764238410596	0.224370860927152				0.916026490066225	0.0834966887417219	0.309933774834437	-0.0482119205298018	0.611920529801325	0.502516556291392				0.383788079470199	-0.222834437086093	-0.852238410596026	0.300397350993377	0.157615894039735	-0.754701986754968			
20	520	-0.216158940397351	0.0347549668874172	-0.935523178807947	-0.246622516556291	0.135364238410596	-0.624900662251656				0.976953642384106	0.143788079470199	0.173139072847682	1.27390728476821	-1.09218543046358	0.53403973509934				-0.218172185430464	0.126728476821192	-0.90394701986755	0.00741721854304636	-0.133509933774833	-0.20026490066225				0.544529801324503	-0.144529801324503	-0.789721854304636	-0.0370860927152318	-0.9364238410596	0.784370860927152				0.916026490066225	0.0834966887417219	0.293933774834437	0.511788079470198	-0.508079470198675	0.502516556291392				0.367788079470199	-0.206834437086093	-0.852238410596026	-0.539602649006623	0.157615894039735	0.0852980132450323			
21	540	-0.232158940397351	0.0347549668874172	-0.951523178807947	-0.526622516556291	-0.144635761589404	-0.904900662251656				0.976953642384106	0.159788079470199	0.173139072847682	1.55390728476821	0.307814569536424	0.25403973509934				-0.218172185430464	0.126728476821192	-0.90394701986755	-0.552582781456954	0.146490066225167	-1.04026490066225				0.560529801324503	-0.144529801324503	-0.789721854304636	-0.877086092715232	-0.9364238410596	1.06437086092715				0.900026490066225	0.0994966887417219	0.309933774834437	-0.888211920529802	0.331920529801325	-1.17748344370861				0.367788079470199	-0.206834437086093	-0.852238410596026	0.0203973509933773	0.157615894039735	0.0852980132450323			
22	560	-0.232158940397351	0.0347549668874172	-0.951523178807947	-0.246622516556291	0.975364238410596	-0.904900662251656				0.976953642384106	0.159788079470199	0.189139072847682	1.55390728476821	-1.09218543046358	0.81403973509934				-0.202172185430464	0.126728476821192	-0.88794701986755	0.00741721854304636	0.426490066225167	-0.48026490066225				0.544529801324503	-0.144529801324503	-0.789721854304636	-0.877086092715232	-1.2164238410596	0.784370860927152				0.916026490066225	0.0834966887417219	0.293933774834437	-0.608211920529802	-0.228079470198675	-0.337483443708608				0.367788079470199	-0.206834437086093	-0.852238410596026	1.14039735099338	-0.122384105960265	-0.474701986754968			
23	580	-0.216158940397351	0.0347549668874172	-0.935523178807947	0.0333774834437086	0.415364238410596	-1.46490066225166				0.960953642384106	0.143788079470199	0.173139072847682	-0.126092715231788	-0.812185430463576	-0.30596026490066				-0.202172185430464	0.126728476821192	-0.88794701986755	0.287417218543046	-0.133509933774833	0.0797350993377501				0.544529801324503	-0.128529801324503	-0.773721854304636	-0.0370860927152318	0.4635761589404	0.224370860927152				0.916026490066225	0.0834966887417219	0.293933774834437	1.6317880794702	1.17192052980133	0.222516556291392				0.367788079470199	-0.190834437086093	-0.852238410596026	1.14039735099338	0.157615894039735	-0.194701986754968			
24	600	-0.216158940397351	0.0347549668874172	-0.951523178807947	-0.806622516556291	-0.424635761589404	-1.46490066225166				0.976953642384106	0.143788079470199	0.189139072847682	-0.966092715231788	-0.532185430463576	0.25403973509934				-0.202172185430464	0.126728476821192	-0.88794701986755	1.40741721854305	0.146490066225167	0.0797350993377501				0.544529801324503	-0.128529801324503	-0.789721854304636	1.36291390728477	-0.3764238410596	-0.335629139072848				0.932026490066225	0.0834966887417219	0.309933774834437	0.791788079470198	0.0519205298013249	-0.897483443708608				0.367788079470199	-0.206834437086093	-0.852238410596026	0.0203973509933773	0.157615894039735	-1.03470198675497			
25	620	-0.248158940397351	0.0347549668874172	-0.951523178807947	-0.526622516556291	-0.424635761589404	-1.18490066225166				0.976953642384106	0.143788079470199	0.157139072847682	0.433907284768212	-0.532185430463576	0.53403973509934				-0.218172185430464	0.126728476821192	-0.90394701986755	0.567417218543046	0.146490066225167	-0.20026490066225				0.544529801324503	-0.144529801324503	-0.789721854304636	1.36291390728477	-0.3764238410596	-0.0556291390728476				0.932026490066225	0.0834966887417219	0.309933774834437	0.231788079470198	-0.228079470198675	-0.0574834437086077				0.367788079470199	-0.206834437086093	-0.852238410596026	-0.539602649006623	0.157615894039735	-1.87470198675497			
26	640	-0.232158940397351	0.0347549668874172	-0.951523178807947	0.0333774834437086	-0.424635761589404	-0.624900662251656				0.992953642384106	0.127788079470199	0.173139072847682	0.153907284768212	0.867814569536424	0.53403973509934				-0.218172185430464	0.142728476821192	-0.90394701986755	-0.552582781456954	-0.133509933774833	0.0797350993377501				0.560529801324503	-0.144529801324503	-0.789721854304636	0.242913907284768	-0.9364238410596	-0.895629139072848				0.916026490066225	0.0834966887417219	0.309933774834437	1.0717880794702	-0.508079470198675	0.502516556291392				0.383788079470199	-0.206834437086093	-0.868238410596026	-0.819602649006623	-0.122384105960265	-1.31470198675497			
27	660	-0.232158940397351	0.0347549668874172	-0.935523178807947	0.313377483443709	0.695364238410596	-0.904900662251656				0.976953642384106	0.143788079470199	0.173139072847682	0.993907284768212	-0.252185430463576	0.25403973509934				-0.218172185430464	0.142728476821192	-0.88794701986755	-1.11258278145695	0.706490066225167	0.0797350993377501				0.560529801324503	-0.128529801324503	-0.789721854304636	0.242913907284768	-0.3764238410596	-0.615629139072848				0.932026490066225	0.0834966887417219	0.309933774834437	0.791788079470198	0.0519205298013249	-0.0574834437086077				0.383788079470199	-0.206834437086093	-0.868238410596026	0.860397350993377	-0.122384105960265	-1.31470198675497			
28	680	-0.232158940397351	0.0347549668874172	-0.935523178807947	-0.526622516556291	0.415364238410596	-0.904900662251656				0.976953642384106	0.143788079470199	0.173139072847682	0.993907284768212	-1.93218543046358	0.81403973509934				-0.218172185430464	0.126728476821192	-0.88794701986755	0.00741721854304636	0.706490066225167	-0.76026490066225				0.544529801324503	-0.128529801324503	-0.789721854304636	1.36291390728477	0.4635761589404	-0.615629139072848				0.932026490066225	0.0834966887417219	0.293933774834437	1.6317880794702	-0.508079470198675	-0.0574834437086077				0.367788079470199	-0.206834437086093	-0.852238410596026	0.300397350993377	0.437615894039735	-1.87470198675497			
29	700	-0.232158940397351	0.0507549668874172	-0.951523178807947	-0.246622516556291	0.135364238410596	-0.904900662251656				0.976953642384106	0.143788079470199	0.173139072847682	1.27390728476821	-1.93218543046358	0.25403973509934				-0.218172185430464	0.126728476821192	-0.90394701986755	1.96741721854305	0.426490066225167	-1.04026490066225				0.544529801324503	-0.144529801324503	-0.789721854304636	2.48291390728477	-0.3764238410596	-0.0556291390728476				0.932026490066225	0.0834966887417219	0.293933774834437	1.6317880794702	-0.508079470198675	0.502516556291392				0.383788079470199	-0.206834437086093	-0.852238410596026	0.300397350993377	0.437615894039735	-2.15470198675497			
30	720	-0.216158940397351	0.0347549668874172	-0.951523178807947	0.0333774834437086	0.135364238410596	-0.904900662251656				0.976953642384106	0.143788079470199	0.157139072847682	0.433907284768212	0.0278145695364242	0.25403973509934				-0.218172185430464	0.110728476821192	-0.90394701986755	0.567417218543046	0.426490066225167	-0.76026490066225				0.544529801324503	-0.144529801324503	-0.789721854304636	1.64291390728477	-0.9364238410596	-0.0556291390728476				0.932026490066225	0.0834966887417219	0.309933774834437	0.231788079470198	-1.90807947019868	-0.337483443708608				0.367788079470199	-0.206834437086093	-0.852238410596026	-0.819602649006623	-0.402384105960265	-1.31470198675497			
31	740	-0.216158940397351	0.0347549668874172	-0.935523178807947	-0.246622516556291	1.5353642384106	-1.18490066225166				0.976953642384106	0.143788079470199	0.173139072847682	0.713907284768212	0.307814569536424	1.09403973509934				-0.218172185430464	0.126728476821192	-0.88794701986755	-1.11258278145695	0.706490066225167	-0.20026490066225				0.560529801324503	-0.144529801324503	-0.789721854304636	1.08291390728477	-1.2164238410596	-1.17562913907285				0.916026490066225	0.0834966887417219	0.309933774834437	0.791788079470198	-1.06807947019868	0.502516556291392				0.383788079470199	-0.206834437086093	-0.868238410596026	-0.539602649006623	-0.402384105960265	-1.31470198675497			
32	760	-0.216158940397351	0.0347549668874172	-0.935523178807947	0.0333774834437086	0.695364238410596	-0.344900662251656				0.976953642384106	0.143788079470199	0.189139072847682	2.11390728476821	-1.37218543046358	0.53403973509934				-0.218172185430464	0.126728476821192	-0.88794701986755	0.847417218543046	-0.133509933774833	-0.20026490066225				0.544529801324503	-0.128529801324503	-0.789721854304636	0.802913907284768	-0.0964238410596001	-0.335629139072848				0.932026490066225	0.0834966887417219	0.293933774834437	1.3517880794702	0.0519205298013249	0.782516556291392				0.367788079470199	-0.206834437086093	-0.868238410596026	1.42039735099338	0.157615894039735	-1.87470198675497			
33	780	-0.216158940397351	0.0347549668874172	-0.935523178807947	-0.246622516556291	-0.144635761589404	-1.18490066225166				0.960953642384106	0.143788079470199	0.173139072847682	1.83390728476821	-1.65218543046358	0.25403973509934				-0.202172185430464	0.126728476821192	-0.90394701986755	1.40741721854305	-0.413509933774833	0.35973509933775				0.544529801324503	-0.128529801324503	-0.789721854304636	1.92291390728477	0.7435761589404	-0.895629139072848				0.932026490066225	0.0994966887417219	0.293933774834437	0.511788079470198	0.0519205298013249	0.222516556291392				0.383788079470199	-0.206834437086093	-0.852238410596026	1.98039735099338	-0.402384105960265	-1.31470198675497			
34	800	-0.232158940397351	0.0347549668874172	-0.951523178807947	-0.806622516556291	-0.144635761589404	-0.904900662251656				0.960953642384106	0.143788079470199	0.157139072847682	0.713907284768212	-0.812185430463576	0.81403973509934				-0.218172185430464	0.126728476821192	-0.90394701986755	0.00741721854304636	-0.413509933774833	0.63973509933775				0.528529801324503	-0.128529801324503	-0.773721854304636	2.20291390728477	0.4635761589404	-0.895629139072848				0.916026490066225	0.0834966887417219	0.293933774834437	0.511788079470198	-1.34807947019868	1.06251655629139				0.367788079470199	-0.206834437086093	-0.836238410596026	0.860397350993377	-0.402384105960265	-0.474701986754968			
35	820	-0.232158940397351	0.0347549668874172	-0.935523178807947	0.313377483443709	0.695364238410596	-1.18490066225166				0.976953642384106	0.143788079470199	0.173139072847682	-0.686092715231788	0.0278145695364242	0.81403973509934				-0.218172185430464	0.142728476821192	-0.88794701986755	-2.79258278145695	0.706490066225167	0.35973509933775				0.528529801324503	-0.144529801324503	-0.773721854304636	2.48291390728477	-0.6564238410596	-0.615629139072848				0.916026490066225	0.0834966887417219	0.293933774834437	2.1917880794702	-1.90807947019868	1.62251655629139				0.367788079470199	-0.206834437086093	-0.852238410596026	0.860397350993377	-0.402384105960265	-0.754701986754968			
36	840	-0.216158940397351	0.0347549668874172	-0.935523178807947	-0.246622516556291	0.695364238410596	-1.18490066225166				0.976953642384106	0.143788079470199	0.173139072847682	-0.406092715231788	-1.93218543046358	-0.0259602649006601				-0.218172185430464	0.126728476821192	-0.88794701986755	0.847417218543046	0.706490066225167	0.63973509933775				0.544529801324503	-0.144529801324503	-0.789721854304636	2.48291390728477	0.4635761589404	-0.335629139072848				0.932026490066225	0.0994966887417219	0.309933774834437	0.791788079470198	0.611920529801325	0.502516556291392				0.383788079470199	-0.206834437086093	-0.852238410596026	0.300397350993377	0.157615894039735	-1.59470198675497			
37	860	-0.216158940397351	0.0347549668874172	-0.935523178807947	-1.64662251655629	-0.144635761589404	-0.904900662251656				0.976953642384106	0.143788079470199	0.157139072847682	1.55390728476821	-2.77218543046358	0.81403973509934				-0.218172185430464	0.126728476821192	-0.88794701986755	1.96741721854305	0.426490066225167	0.35973509933775				0.544529801324503	-0.144529801324503	-0.789721854304636	0.802913907284768	0.1835761589404	-0.895629139072848				0.948026490066225	0.0834966887417219	0.277933774834437	0.791788079470198	-0.788079470198675	0.222516556291392				0.383788079470199	-0.206834437086093	-0.852238410596026	1.14039735099338	-0.402384105960265	-1.03470198675497			
38	880	-0.232158940397351	0.0347549668874172	-0.951523178807947	-0.806622516556291	-0.424635761589404	-0.624900662251656				0.976953642384106	0.127788079470199	0.141139072847682	0.713907284768212	-0.812185430463576	2.49403973509934				-0.218172185430464	0.126728476821192	-0.90394701986755	2.80741721854305	0.146490066225167	0.63973509933775				0.544529801324503	-0.144529801324503	-0.789721854304636	1.36291390728477	-0.6564238410596	-0.0556291390728476				0.916026490066225	0.0674966887417219	0.309933774834437	-1.1682119205298	-0.508079470198675	-0.0574834437086077				0.383788079470199	-0.222834437086093	-0.868238410596026	0.580397350993377	-1.24238410596026	-0.474701986754968			
39	900	-0.232158940397351	0.0347549668874172	-0.951523178807947	-0.246622516556291	0.135364238410596	-0.344900662251656				0.976953642384106	0.143788079470199	0.173139072847682	-0.966092715231788	-3.33218543046358	1.65403973509934				-0.218172185430464	0.126728476821192	-0.88794701986755	2.80741721854305	0.986490066225167	-0.20026490066225				0.528529801324503	-0.160529801324503	-0.789721854304636	1.92291390728477	-0.6564238410596	1.62437086092715				0.916026490066225	0.0834966887417219	0.293933774834437	-1.1682119205298	-1.06807947019868	0.222516556291392				0.367788079470199	-0.222834437086093	-0.836238410596026	0.580397350993377	-2.64238410596027	0.0852980132450323			
40	920	-0.232158940397351	0.0187549668874172	-0.935523178807947	-1.64662251655629	0.415364238410596	-1.74490066225166				0.992953642384106	0.143788079470199	0.157139072847682	-2.08609271523179	-6.13218543046358	0.81403973509934				-0.218172185430464	0.126728476821192	-0.90394701986755	4.20741721854305	0.146490066225167	-0.76026490066225				0.544529801324503	-0.160529801324503	-0.805721854304636	0.242913907284768	-1.4964238410596	2.46437086092715				0.948026490066225	0.0834966887417219	0.309933774834437	0.231788079470198	-1.62807947019868	1.90251655629139				0.383788079470199	-0.222834437086093	-0.868238410596026	0.300397350993377	-3.20238410596026	0.365298013245032			
41	940	-0.232158940397351	0.0347549668874172	-0.935523178807947	-3.60662251655629	0.695364238410596	-1.46490066225166				0.992953642384106	0.143788079470199	0.157139072847682	-0.686092715231788	-5.85218543046358	0.53403973509934				-0.234172185430464	0.110728476821192	-0.88794701986755	7.28741721854305	-0.413509933774833	0.0797350993377501				0.560529801324503	-0.160529801324503	-0.805721854304636	-0.317086092715232	-3.1764238410596	3.58437086092715				0	0	0	0	0	0				0.399788079470199	-0.222834437086093	-0.868238410596026	1.14039735099338	-3.48238410596027	1.20529801324503			
42	960	-0.232158940397351	0.0347549668874172	-0.951523178807947	-3.60662251655629	-0.144635761589404	-0.344900662251656				0.992953642384106	0.143788079470199	0.141139072847682	-0.686092715231788	-7.25218543046358	0.81403973509934				-0.218172185430464	0.126728476821192	-0.90394701986755	7.84741721854305	-0.973509933774833	-1.04026490066225				0	0	0	0	0	0				0	0	0	0	0	0				0	0	0	0	0	0			
43	1080	-0.232158940397351	0.0187549668874172	-0.951523178807947	-6.12662251655629	0.695364238410596	6.09509933774834				1.04095364238411	0.159788079470199	0.0451390728476822	-1.80609271523179	-26.0121854304636	5.57403973509934				-0.250172185430464	-0.129271523178808	-0.99994701986755	84.287417218543	-24.4935099337748	0.0797350993377501				0	0	0	0	0	0				0	0	0	0	0	0				0	0	0	0	0	0			
44	1100	-0.264158940397351	0.0507549668874172	-1.03152317880795	-6.12662251655629	4.0553642384106	6.65509933774834				1.10495364238411	0.143788079470199	0.0131390728476822	-2.92609271523179	-33.5721854304636	7.81403973509934				-0.266172185430464	-0.129271523178808	-0.99994701986755	93.5274172185431	-33.4535099337748	-0.48026490066225				0.448529801324503	-0.208529801324503	-0.949721854304636	0.522913907284768	-28.6564238410596	3.02437086092715				1.04402649006623	0.0994966887417219	0.181933774834437	-4.8082119205298	-5.82807947019868	1.90251655629139				0.319788079470199	-0.238834437086093	-1.04423841059603	-0.819602649006623	-7.96238410596027	50.485298013245			
45	1120	-0.280158940397351	0.0667549668874172	-0.919523178807947	-6.96662251655629	7.4153642384106	5.53509933774834				1.10495364238411	0.175788079470199	-0.0828609271523179	-14.6860927152318	-21.2521854304636	2.77403973509934				-0.266172185430464	-0.0972715231788079	-0.99994701986755	112.287417218543	-42.9735099337748	-7.76026490066225				0.416529801324503	-0.240529801324503	-0.949721854304636	0.802913907284768	-30.3364238410596	3.86437086092715				1.02802649006623	0.0674966887417219	0.181933774834437	-2.5682119205298	-6.66807947019868	3.02251655629139				0.239788079470199	-0.270834437086093	-1.02823841059603	7.86039735099338	-21.1223841059603	56.645298013245			
46	1140	-0.264158940397351	0.0827549668874172	-0.935523178807947	-10.0466225165563	4.6153642384106	6.37509933774834				1.13695364238411	0.223788079470199	-0.0188609271523178	-26.4460927152318	-15.9321854304636	0.53403973509934				-0.938172185430464	-0.257271523178808	-0.83994701986755	78.687417218543	-17.7735099337748	-29.6002649006623				0.416529801324503	-0.320529801324503	-0.949721854304636	-5.35708609271523	-30.8964238410596	8.34437086092715				1.02802649006623	0.0674966887417219	0.133933774834437	-5.6482119205298	-7.78807947019868	2.18251655629139				0.223788079470199	-0.222834437086093	-1.06023841059603	-0.259602649006623	-23.0823841059603	61.125298013245			
47	1160	-0.200158940397351	0.0187549668874172	-0.967523178807947	-11.4466225165563	4.6153642384106	7.49509933774834				1.13695364238411	0.223788079470199	-0.0828609271523179	-20.0060927152318	-30.7721854304636	8.65403973509934				0.389827814569536	0.302728476821192	-0.55194701986755	-13.712582781457	3.78649006622517	9.03973509933775				0.400529801324503	-0.368529801324503	-0.997721854304636	-8.15708609271523	-31.7364238410596	19.2643708609272				1.06002649006623	0.0994966887417219	0.101933774834437	-7.0482119205298	-8.62807947019868	3.58251655629139				0.287788079470199	-0.158834437086093	-1.14023841059603	1.14039735099338	-28.1223841059603	70.365298013245			
48	1180	-0.152158940397351	0.0507549668874172	-0.999523178807947	-14.5266225165563	5.7353642384106	6.37509933774834				1.08895364238411	0.191788079470199	-0.194860927152318	-12.1660927152318	-28.5321854304636	13.9740397350993				-0.202172185430464	0.0947284768211921	-0.80794701986755	-8.39258278145695	-0.133509933774833	9.87973509933775				0.384529801324503	-0.352529801324503	-1.01372185430464	-14.5970860927152	-35.0964238410596	28.2243708609272				1.07602649006623	0.115496688741722	0.0699337748344371	-12.6482119205298	-6.66807947019868	3.02251655629139				0.239788079470199	-0.238834437086093	-1.12423841059603	26.0603973509934	-43.5223841059603	77.085298013245			
49	1200	-0.216158940397351	0.210754966887417	-0.951523178807947	-17.6066225165563	6.5753642384106	7.77509933774834				1.02495364238411	0.159788079470199	-0.242860927152318	-21.1260927152318	-22.3721854304636	8.09403973509934				-0.234172185430464	0.126728476821192	-0.87194701986755	3.64741721854305	-4.05350993377483	6.79973509933775				0.336529801324503	-0.304529801324503	-1.02972185430464	-22.9970860927152	-42.6564238410596	39.9843708609272				1.14002649006623	0.0514966887417219	0.0699337748344371	-10.4082119205298	-7.50807947019868	4.42251655629139				0.175788079470199	-0.318834437086093	-1.02823841059603	23.8203973509934	-51.3623841059603	87.725298013245			
50	1220	-0.280158940397351	0.130754966887417	-0.887523178807947	-26.5666225165563	0.135364238410596	7.49509933774834				0.784953642384106	0.127788079470199	-0.0668609271523178	-64.5260927152318	-11.1721854304636	24.3340397350993				-0.282172185430464	0.0627284768211921	-0.96794701986755	7.56741721854305	-0.973509933774833	2.03973509933775				0.288529801324503	-0.304529801324503	-1.06172185430464	-22.4370860927152	-48.8164238410596	48.1043708609272				1.15602649006623	-0.0125033112582781	0.0699337748344371	-9.5682119205298	-13.6680794701987	6.38251655629139				0.159788079470199	-0.286834437086093	-1.12423841059603	2.54039735099338	-49.4023841059603	99.205298013245			
51	1240	-0.264158940397351	0.0827549668874172	-1.01552317880795	-19.2866225165563	2.3753642384106	5.25509933774834				0.864953642384106	0.239788079470199	0.0131390728476822	-29.5260927152318	28.0278145695364	30.4940397350993				-0.346172185430464	-0.0332715231788079	-0.95194701986755	2.80741721854305	2.94649006622517	-4.96026490066225				0.272529801324503	-0.304529801324503	-1.06172185430464	-19.0770860927152	-53.0164238410596	52.8643708609272				0.980026490066225	0.0514966887417219	0.149933774834437	-17.6882119205298	-10.3080794701987	10.0225165562914				0.111788079470199	-0.286834437086093	-1.14023841059603	-3.61960264900662	-58.9223841059603	101.445298013245			
52	1260	-0.232158940397351	0.0827549668874172	-1.09552317880795	-16.2066225165563	-6.0246357615894	-0.0649006622516557				1.16895364238411	0.0157880794701987	-0.0988609271523179	72.9539072847682	84.5878145695364	11.7340397350993				-0.410172185430464	-0.161271523178808	-0.99994701986755	10.087417218543	6.86649006622517	-2.16026490066225				0.256529801324503	-0.288529801324503	-1.04572185430464	-28.5970860927152	-62.5364238410596	46.4243708609272				1.09202649006623	0.0674966887417219	0.0859337748344371	-5.9282119205298	-4.98807947019868	19.2625165562914				-0.0482119205298013	-0.238834437086093	-1.06023841059603	-8.37960264900662	-46.3223841059603	98.645298013245			
53	1280	-0.408158940397351	0.146754966887417	-1.07952317880795	-0.806622516556291	14.1353642384106	5.53509933774834				0.752953642384106	-0.0962119205298013	0.237139072847682	-11.8860927152318	110.067814569536	6.13403973509934				-0.410172185430464	-0.257271523178808	-0.98394701986755	7.84741721854305	5.18649006622517	7.63973509933775				0.352529801324503	-0.224529801324503	-0.997721854304636	-44.2770860927152	-63.0964238410596	42.5043708609272				1.23602649006623	0.00349668874172187	0.0219337748344371	-0.328211920529802	0.611920529801325	18.1425165562914				-0.0482119205298013	-0.0948344370860927	-1.07623841059603	-5.29960264900662	-39.3223841059603	100.605298013245			
54	1300	-0.536158940397351	-0.0132450331125828	-1.01552317880795	-17.6066225165563	33.7353642384106	13.0950993377483				1.12095364238411	0.0477880794701987	0.317139072847682	-67.8860927152318	149.827814569536	7.53403973509934				-0.362172185430464	-0.257271523178808	-1.06394701986755	-2.79258278145695	16.3864900662252	18.5597350993378				0.448529801324503	-0.144529801324503	-0.997721854304636	-43.1570860927152	-58.8964238410596	37.1843708609272				1.06002649006623	0.00349668874172187	0.213933774834437	10.0317880794702	0.611920529801325	17.5825165562914				-0.176211920529801	-0.158834437086093	-1.02823841059603	26.3403973509934	-43.5223841059603	102.565298013245			
55	1320	-0.264158940397351	-0.0292450331125828	-1.07952317880795	-49.2466225165563	35.6953642384106	7.77509933774834				1.29695364238411	0.319788079470199	0.349139072847682	-16.0860927152318	164.387814569536	19.5740397350993				-0.458172185430464	-0.129271523178808	-1.14394701986755	-6.99258278145695	25.6264900662252	19.1197350993378				0.496529801324503	-0.0965298013245033	-0.997721854304636	-14.3170860927152	-50.4964238410596	27.3843708609272				1.14002649006623	0.00349668874172187	0.341933774834437	37.7517880794702	-3.02807947019868	21.2225165562914				-0.112211920529801	-0.302834437086093	-0.948238410596026	9.26039735099338	-24.7623841059603	85.765298013245			
56	1340	-0.360158940397351	0.210754966887417	-0.903523178807947	-36.3666225165563	34.2953642384106	3.57509933774835				1.21695364238411	0.191788079470199	0.269139072847682	23.3939072847682	110.627814569536	22.0940397350993				-0.474172185430464	-0.00127152317880793	-1.01594701986755	-18.472582781457	33.1864900662252	13.2397350993378				0.720529801324503	-0.176529801324503	-1.02972185430464	5.28291390728477	-50.2164238410596	16.4643708609272				1.23602649006623	0.0994966887417219	0.309933774834437	33.8317880794702	3.97192052980133	14.7825165562914				0.0957880794701987	-0.190834437086093	-0.948238410596026	-3.89960264900662	-15.5223841059603	66.725298013245			
57	1360	-0.472158940397351	0.146754966887417	-1.07952317880795	-25.7266225165563	40.7353642384106	11.9750993377483				1.26495364238411	0.127788079470199	0.269139072847682	-36.2460927152318	62.4678145695364	12.2940397350993				-0.506172185430464	0.174728476821192	-0.98394701986755	-12.312582781457	42.9864900662252	8.47973509933775				0.816529801324503	-0.160529801324503	-1.17372185430464	15.3629139072848	-65.0564238410596	16.7443708609272				1.17202649006623	0.211496688741722	0.405933774834437	38.0317880794702	-9.74807947019868	7.78251655629139				0.0957880794701987	-0.190834437086093	-0.916238410596027	3.94039735099338	-16.9223841059603	43.205298013245			
58	1380	-0.440158940397351	0.0347549668874172	-1.11152317880795	-27.6866225165563	57.2553642384106	16.1750993377483				1.29695364238411	0.0957880794701987	0.573139072847682	-57.8060927152318	82.9078145695364	31.6140397350993				-0.538172185430464	0.286728476821192	-1.07994701986755	5.60741721854305	48.8664900662252	3.99973509933775				0.800529801324503	-0.304529801324503	-1.12572185430464	-6.47708609271523	-76.2564238410596	2.74437086092715				1.06002649006623	0.243496688741722	0.565933774834437	78.3517880794702	-34.3880794701987	11.9825165562914				0.0637880794701987	-0.462834437086093	-0.836238410596026	12.0603973509934	8.55761589403974	33.685298013245			
59	1400	-0.344158940397351	0.0827549668874172	-1.03152317880795	-34.9666225165563	63.1353642384106	15.3350993377483				1.24895364238411	0.319788079470199	0.845139072847682	12.4739072847682	73.9478145695364	33.2940397350993				-0.570172185430464	0.190728476821192	-0.96794701986755	13.447417218543	54.7464900662252	-4.68026490066225				0.480529801324503	-0.352529801324503	-1.07772185430464	-36.7170860927152	-49.3764238410596	-17.1356291390729				1.06002649006623	0.131496688741722	0.629933774834437	80.3117880794702	-12.5480794701987	8.34251655629139				0.239788079470199	-0.414834437086093	-0.996238410596026	-23.7796026490066	33.7576158940397	23.325298013245			
60	1420	-0.232158940397351	0.290754966887417	-1.06352317880795	-30.2066225165563	65.6553642384106	19.2550993377483				1.31295364238411	0.223788079470199	0.909139072847682	28.1539072847682	20.1878145695364	15.0940397350993				-0.378172185430464	0.222728476821192	-1.07994701986755	30.8074172185431	65.6664900662252	-11.6802649006622				0.224529801324503	-0.0965298013245033	-0.933721854304636	-73.9570860927152	-5.9764238410596	-21.6156291390729				1.09202649006623	-0.0605033112582781	0.645933774834437	50.0717880794702	1.45192052980132	-5.09748344370861				0.351788079470199	-0.494834437086093	-0.948238410596026	-22.9396026490066	33.7576158940397	9.32529801324503			
61	1440	-0.152158940397351	0.386754966887417	-1.06352317880795	-34.4066225165563	76.5753642384106	26.8150993377483				1.08895364238411	-0.224211920529801	0.621139072847682	-7.12609271523179	-25.4521854304636	-10.3859602649007				-0.282172185430464	0.0467284768211921	-1.07994701986755	21.287417218543	72.6664900662252	-19.2402649006623				0.144529801324503	0.287470198675497	-0.869721854304636	-42.5970860927152	13.0635761589404	-16.2956291390729				1.07602649006623	0.0354966887417219	0.581933774834437	34.3917880794702	3.69192052980133	-14.3374834437086				0.351788079470199	-0.670834437086093	-0.852238410596026	-44.4996026490066	35.1576158940397	10.725298013245			
62	1460	-0.104158940397351	0.338754966887417	-1.03152317880795	-17.0466225165563	80.7753642384106	23.4550993377483				0.960953642384106	-0.256211920529801	0.685139072847682	12.4739072847682	15.1478145695364	-6.74596026490066				-0.170172185430464	-0.161271523178808	-0.99994701986755	16.807417218543	82.7464900662252	-17.2802649006623				0.256529801324503	0.0794701986754967	-0.965721854304636	43.6429139072848	29.8635761589404	2.46437086092715				1.07602649006623	0.0514966887417219	0.565933774834437	38.0317880794702	4.25192052980133	-6.21748344370861				0.527788079470199	-0.574834437086093	-0.900238410596026	-30.4996026490066	53.9176158940397	13.525298013245			
63	1480	0.087841059602649	0.386754966887417	-0.999523178807947	4.51337748344371	81.3353642384106	17.0150993377483				1.07295364238411	0.0637880794701987	0.765139072847682	17.7939072847682	44.8278145695364	-5.34596026490066				0.0378278145695364	-0.257271523178808	-0.95194701986755	-21.272582781457	86.6664900662252	-11.1202649006623				0.448529801324503	-0.240529801324503	-1.07772185430464	63.2429139072848	39.3835761589404	14.7843708609272				1.09202649006623	-0.0605033112582781	0.613933774834437	25.9917880794702	1.45192052980132	-7.05748344370861				0.543788079470199	-0.494834437086093	-1.01223841059603	-18.4596026490066	43.5576158940397	-3.27470198675497			
64	1500	0.199841059602649	0.450754966887417	-0.983523178807947	11.7933774834437	87.7753642384106	14.4950993377483				1.23295364238411	0.0477880794701987	0.573139072847682	-4.04609271523179	18.2278145695364	-10.6659602649007				0.165827814569536	-0.0332715231788079	-0.93594701986755	-46.192582781457	93.1064900662252	-6.08026490066225				0.480529801324503	-0.256529801324503	-1.07772185430464	27.6829139072848	37.7035761589404	10.8643708609272				1.06002649006623	0.00349668874172187	0.517933774834437	-0.608211920529802	-8.34807947019868	-10.4174834437086				0.431788079470199	-0.558834437086093	-0.932238410596026	0.860397350993377	39.3576158940397	-13.354701986755			
65	1520	0.231841059602649	0.274754966887417	-1.01552317880795	19.0733774834437	96.4553642384106	12.8150993377483				1.02495364238411	0.0317880794701987	0.477139072847682	15.8339072847682	-38.8921854304636	-20.1859602649007				0.181827814569536	0.0947284768211921	-0.95194701986755	-32.752582781457	100.666490066225	-5.24026490066225				0.464529801324503	-0.0805298013245033	-0.965721854304636	-12.0770860927152	37.9835761589404	7.78437086092715				1.06002649006623	0.0994966887417219	0.517933774834437	-7.6082119205298	-0.508079470198675	-7.61748344370861				0.351788079470199	-0.654834437086093	-0.788238410596027	-1.65960264900662	57.2776158940397	-6.63470198675497			
66	1540	0.295841059602649	0.178754966887417	-0.983523178807947	22.4333774834437	100.375364238411	10.8550993377483				0.976953642384106	0.111788079470199	0.845139072847682	34.5939072847682	-28.2521854304636	-22.7059602649007				0.165827814569536	0.110728476821192	-0.90394701986755	-8.11258278145695	103.186490066225	-8.60026490066225				0.512529801324503	-0.000529801324503289	-0.933721854304636	-4.51708609271523	40.5035761589404	4.14437086092715				1.04402649006623	0.0994966887417219	0.485933774834437	-12.6482119205298	5.65192052980133	-8.17748344370861				0.351788079470199	-0.446834437086093	-0.900238410596026	-36.0996026490066	69.5976158940397	-12.234701986755			
67	1560	0.375841059602649	0.210754966887417	-0.967523178807947	23.8333774834437	107.375364238411	8.89509933774834				0.960953642384106	-0.208211920529801	0.765139072847682	27.3139072847682	-15.3721854304636	-25.5059602649007				0.213827814569536	0.0147284768211921	-0.88794701986755	15.407417218543	101.506490066225	-10.8402649006623				0.560529801324503	-0.112529801324503	-0.917721854304636	21.5229139072848	49.1835761589404	4.42437086092715				1.02802649006623	0.147496688741722	0.373933774834437	-24.1282119205298	3.69192052980133	-13.4974834437086				0.271788079470199	-0.238834437086093	-0.916238410596027	-26.2996026490066	65.6776158940397	-24.834701986755			
68	1580	0.423841059602649	0.0987549668874172	-0.935523178807947	26.9133774834437	114.095364238411	10.8550993377483				1.08895364238411	-0.144211920529801	0.349139072847682	-4.60609271523179	-10.3321854304636	-36.4259602649007				0.325827814569536	-0.0972715231788079	-0.87194701986755	11.207417218543	100.946490066225	-11.1202649006623				0.464529801324503	-0.208529801324503	-0.885721854304636	26.5629139072848	53.3835761589404	-2.85562913907285				0.932026490066225	0.0354966887417219	0.357933774834437	-2.8482119205298	-2.74807947019868	-11.2574834437086				0.239788079470199	-0.254834437086093	-0.756238410596026	-6.97960264900662	78.2776158940397	-24.554701986755			
69	1600	0.439841059602649	0.00275496688741723	-0.871523178807947	20.1933774834437	118.015364238411	11.9750993377483				0.960953642384106	0.255788079470199	0.429139072847682	1.55390728476821	-36.0921854304636	-32.2259602649007				0.421827814569536	-0.161271523178808	-0.83994701986755	-10.352582781457	100.386490066225	-9.72026490066225				0.416529801324503	-0.160529801324503	-0.837721854304636	1.36291390728477	53.6635761589404	-6.21562913907285				0.884026490066225	-0.0125033112582781	0.453933774834437	-5.0882119205298	1.73192052980133	-11.8174834437086				0.303788079470199	-0.302834437086093	-0.788238410596027	-8.37960264900662	74.3576158940397	-27.914701986755			
70	1620	0.455841059602649	-0.0292450331125828	-0.775523178807947	9.83337748344371	118.015364238411	13.6550993377483				0.960953642384106	0.303788079470199	0.493139072847682	18.9139072847682	-97.9721854304636	-26.3459602649007				0.437827814569536	-0.209271523178808	-0.82394701986755	-29.672582781457	101.226490066225	-7.48026490066225				0.416529801324503	-0.144529801324503	-0.837721854304636	7.52291390728477	53.9435761589404	-4.25562913907285				0.916026490066225	0.0994966887417219	0.341933774834437	-39.2482119205298	-1.90807947019868	-17.4174834437086				0.447788079470199	-0.382834437086093	-0.772238410596026	-22.6596026490066	67.0776158940397	-38.274701986755			
71	1640	0.503841059602649	0.0187549668874172	-0.743523178807947	-2.48662251655629	110.455364238411	11.1350993377483				0.912953642384106	0.175788079470199	0.285139072847682	56.9939072847682	-118.132185430464	-29.9859602649007				0.341827814569536	-0.0652715231788079	-0.77594701986755	-31.352582781457	104.026490066225	-8.60026490066225				0.384529801324503	-0.0645298013245033	-0.789721854304636	19.0029139072848	55.0635761589404	-14.3356291390729				0.916026490066225	0.179496688741722	0.181933774834437	-36.1682119205298	-6.10807947019868	-18.8174834437086				0.495788079470199	-0.238834437086093	-0.708238410596026	-43.0996026490066	72.9576158940397	-42.194701986755			
72	1660	0.455841059602649	0.114754966887417	-0.743523178807947	-11.1666225165563	103.175364238411	10.2950993377483				0.864953642384106	0.175788079470199	0.157139072847682	72.1139072847682	-91.5321854304636	-34.4659602649007				0.277827814569536	0.0467284768211921	-0.71194701986755	-24.632582781457	105.986490066225	-7.20026490066225				0.400529801324503	0.0474701986754967	-0.709721854304636	22.9229139072848	55.3435761589404	-18.8156291390729				0.884026490066225	0.163496688741722	0.229933774834437	-19.6482119205298	-3.58807947019868	-14.3374834437086				0.383788079470199	-0.0628344370860927	-0.724238410596026	-40.5796026490066	77.9976158940397	-41.354701986755			
73	1680	0.423841059602649	0.162754966887417	-0.775523178807947	-12.2866225165563	98.9753642384106	10.5750993377483				0.784953642384106	0.111788079470199	0.0451390728476822	47.4739072847682	-93.7721854304636	-21.8659602649007				0.341827814569536	0.0467284768211921	-0.77594701986755	0.847417218543046	104.026490066225	-3.56026490066225				0.400529801324503	0.0314701986754967	-0.661721854304636	24.6029139072848	49.4635761589404	-7.61562913907285				0.820026490066225	0.211496688741722	0.245933774834437	-25.8082119205298	-14.2280794701987	-11.2574834437086				0.287788079470199	-0.0308344370860927	-0.756238410596026	-23.4996026490066	73.5176158940397	-42.754701986755			
74	1700	0.375841059602649	0.130754966887417	-0.759523178807947	-9.20662251655629	94.4953642384106	11.1350993377483				0.832953642384106	0.0637880794701987	0.173139072847682	15.5539072847682	-98.2521854304636	-19.0659602649007				0.405827814569536	0.0307284768211921	-0.71194701986755	21.567417218543	102.346490066225	-1.32026490066225				0.464529801324503	-0.112529801324503	-0.709721854304636	32.7229139072848	53.1035761589404	-5.65562913907285				0.756026490066225	0.179496688741722	0.213933774834437	-19.9282119205298	-20.9480794701987	-10.1374834437086				0.351788079470199	0.0491655629139073	-0.852238410596026	-29.3796026490066	65.1176158940397	-47.514701986755			
75	1720	0.247841059602649	0.162754966887417	-0.775523178807947	-1.64662251655629	93.3753642384106	11.4150993377483				0.848953642384106	0.127788079470199	0.205139072847682	28.9939072847682	-82.5721854304636	-10.9459602649007				0.373827814569536	-0.0652715231788079	-0.67994701986755	23.5274172185431	100.386490066225	-4.68026490066225				0.432529801324503	-0.128529801324503	-0.741721854304636	39.7229139072848	55.3435761589404	-9.01562913907285				0.772026490066225	0.163496688741722	0.181933774834437	-3.4082119205298	-25.7080794701987	-5.93748344370861				0.367788079470199	-0.126834437086093	-0.708238410596026	-11.7396026490066	66.2376158940397	-28.754701986755			
76	1740	0.247841059602649	0.146754966887417	-0.807523178807947	4.51337748344371	95.8953642384106	11.1350993377483				0.752953642384106	0.255788079470199	0.0451390728476822	49.9939072847682	-68.2921854304636	-4.22596026490066				0.229827814569536	-0.113271523178808	-0.83994701986755	18.487417218543	100.386490066225	-8.88026490066225				0.400529801324503	-0.160529801324503	-0.677721854304636	32.1629139072848	48.9035761589404	-10.4156291390728				0.836026490066225	0.115496688741722	0.181933774834437	2.1917880794702	-22.6280794701987	-2.29748344370861				0.335788079470199	-0.190834437086093	-0.660238410596027	-37.7796026490066	76.5976158940397	-20.914701986755			
77	1760	0.359841059602649	0.0187549668874172	-0.855523178807947	0.873377483443709	98.6953642384106	11.9750993377483				0.672953642384106	0.383788079470199	-0.0348609271523178	26.1939072847682	-48.4121854304636	0.81403973509934				0.197827814569536	-0.0652715231788079	-0.79194701986755	13.447417218543	100.106490066225	-8.60026490066225				0.304529801324503	-0.112529801324503	-0.581721854304636	19.5629139072848	44.1435761589404	-8.73562913907285				0.804026490066225	0.0994966887417219	0.0859337748344371	-5.9282119205298	-37.1880794701987	-2.85748344370861				0.447788079470199	-0.110834437086093	-0.676238410596026	-40.8596026490066	69.5976158940397	-30.154701986755			
78	1780	0.503841059602649	0.0667549668874172	-0.743523178807947	6.19337748344371	99.5353642384106	10.0150993377483				0.880953642384106	0.0477880794701987	0.0611390728476822	16.9539072847682	-42.8121854304636	1.37403973509934				0.277827814569536	0.0307284768211921	-0.71194701986755	1.40741721854305	101.506490066225	-3.28026490066225				0.336529801324503	-0.0645298013245033	-0.661721854304636	35.5229139072848	48.6235761589404	-11.2556291390728				0.660026490066225	0.147496688741722	0.117933774834437	-19.6482119205298	-35.2280794701987	-6.21748344370861				0.511788079470199	-0.0308344370860927	-0.740238410596026	-26.5796026490066	61.4776158940397	-34.914701986755			
79	1800	0.519841059602649	0.130754966887417	-0.679523178807947	10.1133774834437	94.7753642384106	8.61509933774835				0.928953642384106	0.0637880794701987	0.0451390728476822	32.6339072847682	-58.2121854304636	-7.58596026490066				0.485827814569536	0.0467284768211921	-0.72794701986755	-5.31258278145695	104.026490066225	-1.04026490066225				0.416529801324503	-0.0645298013245033	-0.677721854304636	62.4029139072848	62.0635761589404	-13.7756291390728				0.804026490066225	0.163496688741722	0.261933774834437	8.9117880794702	-20.3880794701987	-2.29748344370861				0.463788079470199	-0.0628344370860927	-0.740238410596026	-21.8196026490066	56.4376158940397	-23.994701986755			
80	1820	0.471841059602649	0.178754966887417	-0.743523178807947	0.873377483443709	95.0553642384106	15.0550993377483				0.816953642384106	0.255788079470199	-0.0508609271523178	30.6739072847682	-58.4921854304636	-1.42596026490066				0.517827814569536	-0.0172715231788079	-0.75994701986755	-3.07258278145695	96.7464900662252	-6.64026490066225				0.512529801324503	-0.256529801324503	-0.629721854304636	48.4029139072848	59.5435761589404	-6.21562913907285				0.916026490066225	0.0514966887417219	0.117933774834437	9.4717880794702	-26.8280794701987	2.18251655629139				0.463788079470199	-0.0788344370860927	-0.724238410596026	-25.7396026490066	49.4376158940397	-18.394701986755			
81	1840	0.487841059602649	0.130754966887417	-0.679523178807947	7.31337748344371	97.5753642384106	15.6150993377483				0.688953642384106	0.255788079470199	-0.114860927152318	17.7939072847682	-61.5721854304636	3.61403973509934				0.501827814569536	0.0627284768211921	-0.69594701986755	3.64741721854305	90.8664900662252	-6.64026490066225				0.512529801324503	-0.224529801324503	-0.677721854304636	40.0029139072848	37.7035761589404	1.34437086092715				0.836026490066225	0.0674966887417219	0.101933774834437	-4.8082119205298	-45.3080794701987	2.74251655629139				0.527788079470199	-0.0788344370860927	-0.756238410596026	-19.8596026490066	38.2376158940397	-17.554701986755			
82	1860	0.583841059602649	0.114754966887417	-0.631523178807947	7.87337748344371	91.9753642384106	10.2950993377483				0.736953642384106	0.0797880794701987	0.0771390728476822	17.5139072847682	-42.8121854304636	-0.86596026490066				0.501827814569536	0.0947284768211921	-0.67994701986755	-5.87258278145695	85.5464900662252	-4.12026490066225				0.432529801324503	-0.352529801324503	-0.757721854304636	22.9229139072848	34.3435761589404	1.34437086092715				0.756026490066225	0.115496688741722	0.101933774834437	-2.0082119205298	-38.5880794701987	4.98251655629139				0.559788079470199	-0.0788344370860927	-0.740238410596026	-36.9396026490066	37.9576158940397	-14.194701986755			
83	1880	0.663841059602649	0.162754966887417	-0.695523178807947	3.11337748344371	87.4953642384106	5.25509933774834				0.944953642384106	0.0157880794701987	0.0611390728476822	22.2739072847682	-40.5721854304636	-2.82596026490066				0.549827814569536	0.0627284768211921	-0.59994701986755	4.20741721854305	95.6264900662252	-7.76026490066225				0.416529801324503	-0.320529801324503	-0.693721854304636	20.9629139072848	25.6635761589404	-3.13562913907285				0.740026490066225	0.0514966887417219	0.0699337748344371	-6.4882119205298	-34.3880794701987	5.54251655629139				0.447788079470199	-0.0308344370860927	-0.676238410596026	-27.1396026490066	30.3976158940397	-3.55470198675497			
84	1900	0.631841059602649	0.258754966887417	-0.631523178807947	12.0733774834437	83.0153642384106	2.45509933774835				0.768953642384106	0.111788079470199	-0.0668609271523178	13.5939072847682	-50.9321854304636	2.49403973509934				0.597827814569536	-0.0492715231788079	-0.59994701986755	-6.71258278145695	88.3464900662252	-7.48026490066225				0.464529801324503	-0.224529801324503	-0.645721854304636	15.6429139072848	12.2235761589404	-4.53562913907285				0.772026490066225	-0.0285033112582781	0.133933774834437	0.511788079470198	-25.4280794701987	2.46251655629139				0.415788079470199	-0.0628344370860927	-0.676238410596026	-23.4996026490066	20.8776158940397	2.60529801324503			
85	1920	0.535841059602649	0.242754966887417	-0.551523178807947	24.3933774834437	79.9353642384106	1.89509933774834				0.576953642384106	0.143788079470199	-0.0668609271523178	2.39390728476821	-56.5321854304636	4.45403973509934				0.613827814569536	-0.0652715231788079	-0.56794701986755	-8.67258278145695	76.0264900662252	-5.24026490066225				0.464529801324503	-0.208529801324503	-0.565721854304636	-2.27708609271523	4.3835761589404	-5.37562913907285				0.804026490066225	0.0514966887417219	0.117933774834437	-15.1682119205298	-37.7480794701987	2.46251655629139				0.495788079470199	-0.0948344370860927	-0.628238410596026	-24.6196026490066	14.4376158940397	5.40529801324503			
86	1940	0.535841059602649	0.146754966887417	-0.503523178807947	27.1933774834437	75.1753642384106	-0.0649006622516557				0	0	0	0	0	0				0	0	0	0	0	0				0.368529801324503	-0.176529801324503	-0.517721854304636	5.84291390728477	1.0235761589404	-3.41562913907285				0	0	0	0	0	0				0.527788079470199	0.0491655629139073	-0.612238410596026	-38.0596026490066	15.2776158940397	0.365298013245032			
87	2060	0	0	0	0	0	0				0	0	0	0	0	0				0.693827814569536	0.0467284768211921	-0.59994701986755	-20.712582781457	36.5464900662252	5.39973509933775				0	0	0	0	0	0				0.740026490066225	0.147496688741722	0.00593377483443711	-6.4882119205298	-18.1480794701987	2.18251655629139				0	0	0	0	0	0			
88	2080	0.727841059602649	0.0507549668874172	-0.551523178807947	5.07337748344371	19.7353642384106	5.81509933774834				0.800953642384106	0.0477880794701987	-0.162860927152318	1.83390728476821	-35.5321854304636	3.33403973509934				0.645827814569536	-0.00127152317880793	-0.50394701986755	-20.712582781457	20.5864900662252	5.11973509933775				0.624529801324503	-0.176529801324503	-0.709721854304636	19.2829139072848	-5.4164238410596	21.5043708609272				0.948026490066225	0.0994966887417219	0.0379337748344371	5.8317880794702	-3.58807947019868	6.10251655629139				0.607788079470199	0.0811655629139073	-0.724238410596026	-10.0596026490066	-18.6023841059603	-21.754701986755			
89	2100	0.743841059602649	0.00275496688741723	-0.551523178807947	-1.08662251655629	14.9753642384106	2.73509933774834				0.896953642384106	0.0477880794701987	-0.178860927152318	-25.0460927152318	-40.0121854304636	10.6140397350993				0.725827814569536	-0.0172715231788079	-0.55194701986755	-17.352582781457	6.86649006622517	0.91973509933775				0.720529801324503	-0.368529801324503	-0.709721854304636	7.52291390728477	-20.8164238410596	30.1843708609272				0.964026490066225	0.0194966887417219	0.165933774834437	7.7917880794702	-26.2680794701987	8.90251655629139				0.623788079470199	-0.0308344370860927	-0.724238410596026	-0.259602649006623	-26.7223841059603	-20.914701986755			
90	2120	0.775841059602649	0.0347549668874172	-0.503523178807947	7.87337748344371	7.9753642384106	-0.624900662251656				0.928953642384106	0.191788079470199	-0.0508609271523178	-23.0860927152318	-19.5721854304636	10.8940397350993				0.773827814569536	0.0147284768211921	-0.64794701986755	-12.032582781457	3.78649006622517	-3.84026490066225				0.384529801324503	-0.336529801324503	-0.597721854304636	-6.75708609271523	-24.1764238410596	-3.41562913907285				0.740026490066225	-0.0285033112582781	-0.0260662251655629	-6.2082119205298	-29.0680794701987	5.54251655629139				0.383788079470199	-0.398834437086093	-0.612238410596026	12.3403973509934	-20.8423841059603	12.405298013245			
91	2140	0.807841059602649	0.00275496688741723	-0.471523178807947	17.6733774834437	2.6553642384106	-2.86490066225166				0.864953642384106	0.0317880794701987	0.0291390728476822	5.75390728476821	-14.8121854304636	12.2940397350993				0.757827814569536	0.0307284768211921	-0.63194701986755	-3.91258278145695	6.58649006622517	-10.2802649006622				0.0485298013245033	-0.0645298013245033	-0.421721854304636	-26.3570860927152	-21.3764238410596	-24.9756291390729				0.660026490066225	0.0514966887417219	0.00593377483443711	-11.8082119205298	-1.62807947019868	8.06251655629139				0.175788079470199	-0.222834437086093	-0.436238410596026	-10.3396026490066	-0.682384105960265	40.965298013245			
92	2160	0.919841059602649	0.0347549668874172	-0.327523178807947	28.5933774834437	-2.9446357615894	-2.30490066225166				0.720953642384106	-0.000211920529801304	-0.0828609271523179	13.0339072847682	-16.4921854304636	5.85403973509934				0.725827814569536	0.0787284768211921	-0.48794701986755	-3.63258278145695	8.82649006622517	-14.7602649006622				0.192529801324503	-0.0485298013245033	-0.389721854304636	1.64291390728477	15.0235761589404	-10.6956291390728				0.692026490066225	0.00349668874172187	0.0379337748344371	-8.7282119205298	0.891920529801325	10.5825165562914				0.431788079470199	0.241165562913907	-0.500238410596026	-11.7396026490066	15.5576158940397	31.725298013245			
93	2180	0.855841059602649	0.0667549668874172	-0.439523178807947	20.1933774834437	-17.5046357615894	-5.94490066225166				0.832953642384106	0.127788079470199	-0.0508609271523178	-11.8860927152318	-5.01218543046358	-1.98596026490066				0.773827814569536	0.126728476821192	-0.43994701986755	7.84741721854305	-0.413509933774833	-17.5602649006623				0.496529801324503	-0.336529801324503	-0.405721854304636	54.2829139072848	57.5835761589404	-10.9756291390728				0.772026490066225	-0.0125033112582781	0.0539337748344371	-6.7682119205298	-1.90807947019868	12.8225165562914				0.463788079470199	0.0171655629139073	-0.660238410596027	-15.0996026490066	19.7576158940397	21.645298013245			
94	2200	0.823841059602649	-0.0452450331125828	-0.455523178807947	13.4733774834437	-21.9846357615894	-5.66490066225166				0.976953642384106	0.287788079470199	-0.114860927152318	6.03390728476821	-1.09218543046358	-1.42596026490066				0.885827814569536	0.142728476821192	-0.32794701986755	34.1674172185431	-13.2935099337748	-14.7602649006622				0.672529801324503	-0.304529801324503	-0.517721854304636	15.6429139072848	49.4635761589404	-17.1356291390729				0.852026490066225	0.0834966887417219	0.149933774834437	-5.0882119205298	8.73192052980133	14.2225165562914				0.479788079470199	-0.0948344370860927	-0.644238410596026	26.0603973509934	25.6376158940397	27.245298013245			
95	2220	0.647841059602649	-0.0452450331125828	-0.423523178807947	4.51337748344371	-30.1046357615894	-5.10490066225166				0.944953642384106	0.207788079470199	-0.162860927152318	51.9539072847682	-15.3721854304636	8.65403973509934				0.997827814569536	0.0787284768211921	-0.34394701986755	55.1674172185431	-20.8535099337748	-15.6002649006622				0.688529801324503	-0.256529801324503	-0.613721854304636	12.5629139072848	53.1035761589404	-11.2556291390728				0.916026490066225	0.00349668874172187	0.0859337748344371	-6.4882119205298	12.3719205298013	13.1025165562914				0.559788079470199	0.0491655629139073	-0.628238410596026	58.5403973509934	30.3976158940397	1.76529801324503			
96	2240	1.91184105960265	0.466754966887417	-0.631523178807947	-38.3266225165563	-33.4646357615894	31.8550993377483				0.880953642384106	0.0957880794701987	-0.146860927152318	39.3539072847682	-19.0121854304636	5.01403973509934				0.869827814569536	-0.0492715231788079	-0.42394701986755	73.3674172185431	-23.9335099337748	-19.8002649006623				0.832529801324503	-0.512529801324503	-0.805721854304636	36.6429139072848	42.4635761589404	-11.8156291390728				0.996026490066225	-0.0765033112582781	0.101933774834437	-6.2082119205298	17.4119205298013	4.42251655629139				0.559788079470199	-0.126834437086093	-0.804238410596027	87.1003973509934	-8.52238410596027	-31.834701986755			
97	2260	0.103841059602649	0.690754966887417	0.00847682119205304	-85.0866225165563	-23.6646357615894	-31.9849006622517				0.976953642384106	0.191788079470199	-0.0988609271523179	7.43390728476821	-15.9321854304636	-5.90596026490066				0.725827814569536	0.0147284768211921	-0.42394701986755	50.9674172185431	-21.9735099337748	-18.6802649006623				0.960529801324503	-0.528529801324503	-0.645721854304636	-5.63708609271523	23.4235761589404	-26.9356291390729				1.06002649006623	0.0194966887417219	0.133933774834437	-2.5682119205298	0.0519205298013249	-2.29748344370861				0.431788079470199	-0.382834437086093	-0.596238410596026	27.4603973509934	41.3176158940397	9.32529801324503			
98	2280	0.231841059602649	0.0187549668874172	-0.807523178807947	31.1133774834437	-2.6646357615894	-29.7449006622517				1.20095364238411	0.271788079470199	-0.434860927152318	17.7939072847682	-24.0521854304636	-4.50596026490066				0.741827814569536	0.0307284768211921	-0.50394701986755	21.567417218543	-20.8535099337748	-12.8002649006623				0.768529801324503	-0.176529801324503	-0.613721854304636	-28.0370860927152	27.9035761589404	-22.1756291390729				1.14002649006623	0.147496688741722	0.165933774834437	-0.0482119205298018	3.41192052980132	-5.37748344370861				0.623788079470199	0.257165562913907	-0.884238410596026	-10.8996026490066	42.7176158940397	11.845298013245			
99	2300	0.935841059602649	0.0827549668874172	-1.01552317880795	69.7533774834437	0.135364238410596	-23.8649006622517				1.23295364238411	0.335788079470199	-0.466860927152318	24.5139072847682	-25.1721854304636	-3.94596026490066				0.885827814569536	0.0627284768211921	-0.69594701986755	29.9674172185431	-11.3335099337748	-1.04026490066225				0.800529801324503	-0.208529801324503	-0.757721854304636	55.4029139072848	43.8635761589404	11.7043708609272				1.26802649006623	0.115496688741722	-0.0260662251655629	13.9517880794702	-22.0680794701987	-6.21748344370861				1.1517880794702	0.417165562913907	-0.996238410596026	45.3803973509934	-20.5623841059603	-57.874701986755			
100	2320	0.887841059602649	-0.253245033112583	-0.583523178807947	-5.00662251655629	15.5353642384106	-7.34490066225166				1.12095364238411	0.223788079470199	-0.0508609271523178	-0.126092715231788	-0.252185430463576	0.53403973509934				0.837827814569536	-0.177271523178808	-0.79194701986755	-5.59258278145695	-10.2135099337748	10.1597350993378				1.0085298013245	-0.576529801324503	-1.02972185430464	34.4029139072848	17.8235761589404	7.50437086092715				1.10802649006623	0.0354966887417219	0.00593377483443711	17.5917880794702	-9.74807947019868	-6.49748344370861				0.895788079470199	-0.686834437086093	-0.900238410596026	69.4603973509934	-11.3223841059603	-75.234701986755			
101	2340	0.663841059602649	0.0987549668874172	-0.823523178807947	-14.5266225165563	7.1353642384106	9.45509933774835				0.976953642384106	0.111788079470199	-0.290860927152318	3.51390728476821	-19.0121854304636	-1.14596026490066				0.677827814569536	-0.129271523178808	-0.74394701986755	-43.112582781457	11.0664900662252	11.5597350993378				0.880529801324503	-0.432529801324503	-1.06172185430464	-10.1170860927152	-15.2164238410596	8.90437086092715				1.17202649006623	0.147496688741722	0.0539337748344371	7.5117880794702	-5.54807947019868	-5.09748344370861				0.735788079470199	-0.462834437086093	-1.02823841059603	-97.4196026490066	52.2376158940397	-29.874701986755			
102	2360	0.663841059602649	0.114754966887417	-0.791523178807947	6.19337748344371	7.9753642384106	7.21509933774835				1.12095364238411	0.287788079470199	-0.482860927152318	-0.966092715231788	3.10781456953642	-0.585960264900661				0.693827814569536	-0.0172715231788079	-0.63194701986755	-76.432582781457	18.6264900662252	11.8397350993378				0.624529801324503	-0.304529801324503	-0.917721854304636	-4.51708609271523	-34.2564238410596	13.1043708609272				1.15602649006623	-0.0285033112582781	0.0219337748344371	-3.4082119205298	-9.74807947019868	-9.85748344370861				0.671788079470199	-0.142834437086093	-0.868238410596026	-71.6596026490066	16.6776158940397	-8.31470198675497			
103	2380	0.679841059602649	0.242754966887417	-0.631523178807947	7.59337748344371	19.4553642384106	-2.02490066225166				0.928953642384106	0.255788079470199	-0.226860927152318	-11.3260927152318	-15.6521854304636	8.37403973509934				0.773827814569536	0.0947284768211921	-0.64794701986755	-70.552582781457	28.9864900662252	12.3997350993378				0.448529801324503	-0.544529801324503	-0.757721854304636	-17.3970860927152	-35.3764238410596	13.9443708609272				1.07602649006623	0.0834966887417219	-0.122066225165563	-18.5282119205298	-38.5880794701987	-14.8974834437086				0.735788079470199	0.193165562913907	-0.820238410596026	-83.6996026490066	-19.7223841059603	12.405298013245			
104	2400	0.775841059602649	0.354754966887417	-0.663523178807947	14.0333774834437	19.7353642384106	-9.02490066225166				0.768953642384106	0.111788079470199	-0.338860927152318	0.993907284768212	-31.0521854304636	2.21403973509934				0.677827814569536	0.142728476821192	-0.71194701986755	-45.352582781457	19.1864900662252	9.59973509933775				0.432529801324503	-0.144529801324503	-0.789721854304636	-36.7170860927152	-32.0164238410596	14.5043708609272				1.02802649006623	0.0994966887417219	-0.0900662251655629	-22.1682119205298	-21.5080794701987	-8.17748344370861				0.847788079470199	0.129165562913907	-0.884238410596026	-76.6996026490066	-30.9223841059603	9.32529801324503			
105	2420	0.823841059602649	0.258754966887417	-0.471523178807947	36.1533774834437	12.4553642384106	-11.8249006622517				0.896953642384106	0.143788079470199	-0.562860927152318	1.83390728476821	-23.4921854304636	-2.54596026490066				0.581827814569536	0.158728476821192	-0.63194701986755	-31.632582781457	13.8664900662252	10.1597350993378				0.480529801324503	-0.0965298013245033	-0.565721854304636	-9.55708609271523	-16.0564238410596	13.1043708609272				1.02802649006623	0.0994966887417219	-0.0260662251655629	-24.9682119205298	-21.2280794701987	-3.13748344370861				0.639788079470199	0.0171655629139073	-0.548238410596027	-5.29960264900662	-25.3223841059603	-5.23470198675497			
106	2440	0.807841059602649	0.0987549668874172	-0.535523178807947	36.9933774834437	8.8153642384106	-6.22490066225166				0.816953642384106	0.287788079470199	-0.466860927152318	-7.96609271523179	-26.0121854304636	0.53403973509934				0.725827814569536	0.206728476821192	-0.55194701986755	-24.072582781457	13.3064900662252	11.8397350993378				0.448529801324503	-0.272529801324503	-0.597721854304636	12.2829139072848	-0.9364238410596	15.9043708609272				0.804026490066225	0.147496688741722	-0.138066225165563	-9.5682119205298	-36.3480794701987	2.18251655629139				0.383788079470199	0.225165562913907	-0.596238410596026	-31.3396026490066	-9.08238410596027	-2.15470198675497			
107	2460	0.743841059602649	-0.0612450331125828	-0.487523178807947	25.7933774834437	13.5753642384106	0.215099337748344				0.800953642384106	0.255788079470199	-0.162860927152318	6.03390728476821	-29.0921854304636	-7.58596026490066				0.773827814569536	0.174728476821192	-0.58394701986755	-16.512582781457	8.82649006622517	12.3997350993378				0.384529801324503	-0.352529801324503	-0.757721854304636	5.84291390728477	-5.4164238410596	17.5843708609272				0.772026490066225	0.147496688741722	-0.202066225165563	-0.888211920529802	-24.5880794701987	3.86251655629139				0.399788079470199	0.273165562913907	-0.820238410596026	-14.2596026490066	-15.5223841059603	-7.19470198675497			
108	2480	0.615841059602649	-0.0772450331125828	-0.455523178807947	10.9533774834437	1.5353642384106	-0.0649006622516557				0.736953642384106	0.191788079470199	-0.194860927152318	18.0739072847682	-37.2121854304636	-8.14596026490066				0.645827814569536	0.0947284768211921	-0.58394701986755	1.40741721854305	-0.133509933774833	9.87973509933775				0.624529801324503	-0.464529801324503	-0.725721854304636	-2.55708609271523	-9.8964238410596	19.2643708609272				0.884026490066225	0.0674966887417219	-0.138066225165563	-0.608211920529802	-8.90807947019868	0.222516556291392				0.463788079470199	0.113165562913907	-0.820238410596026	-6.97960264900662	-14.9623841059603	-0.754701986754968			
109	2500	0.711841059602649	-0.125245033112583	-0.551523178807947	-18.1666225165563	-4.9046357615894	-2.30490066225166				0.848953642384106	0.0797880794701987	-0.450860927152318	-2.36609271523179	-22.0921854304636	1.65403973509934				0.725827814569536	0.0787284768211921	-0.50394701986755	-9.23258278145695	-8.81350993377484	7.63973509933775				0.624529801324503	-0.352529801324503	-0.597721854304636	-2.27708609271523	-5.4164238410596	8.62437086092715				0.932026490066225	0.0514966887417219	-0.0580662251655629	1.9117880794702	-5.54807947019868	-2.85748344370861				0.479788079470199	0.0651655629139073	-0.788238410596027	-11.4596026490066	-21.4023841059603	-4.67470198675497			
110	2520	0.807841059602649	-0.0452450331125828	-0.647523178807947	-34.6866225165563	-13.5846357615894	-0.344900662251656				0.960953642384106	0.143788079470199	-0.354860927152318	-13.8460927152318	-1.09218543046358	5.01403973509934				0.805827814569536	0.0787284768211921	-0.50394701986755	-16.512582781457	-10.2135099337748	4.27973509933775				0.384529801324503	-0.224529801324503	-0.725721854304636	-2.83708609271523	-12.1364238410596	6.94437086092715				0.900026490066225	0.0994966887417219	-0.138066225165563	1.6317880794702	-20.6680794701987	-1.17748344370861				0.415788079470199	0.129165562913907	-0.644238410596026	-12.2996026490066	-7.96238410596027	-6.63470198675497			
111	2540	0.775841059602649	0.0987549668874172	-0.535523178807947	-33.5666225165563	-7.9846357615894	3.01509933774834				0.784953642384106	0.255788079470199	-0.146860927152318	1.27390728476821	-0.532185430463576	2.49403973509934				0.741827814569536	0.0787284768211921	-0.58394701986755	-0.552582781456954	-8.53350993377483	-2.44026490066225				0.464529801324503	-0.336529801324503	-0.773721854304636	1.64291390728477	-15.7764238410596	9.74437086092715				0.788026490066225	0.0834966887417219	-0.0900662251655629	-3.6882119205298	-18.4280794701987	0.502516556291392				0.431788079470199	0.289165562913907	-0.820238410596026	-32.7396026490066	4.07761589403974	0.925298013245032			
112	2560	0.743841059602649	0.162754966887417	-0.519523178807947	-12.2866225165563	-2.6646357615894	7.49509933774834				0.784953642384106	0.175788079470199	-0.162860927152318	7.15390728476821	-9.49218543046358	0.81403973509934				0.629827814569536	0.126728476821192	-0.50394701986755	1.40741721854305	-4.89350993377483	-5.24026490066225				0.544529801324503	-0.464529801324503	-0.613721854304636	-7.03708609271523	-11.2964238410596	6.38437086092715				0.916026490066225	0.0834966887417219	-0.0900662251655629	-4.2482119205298	-11.9880794701987	-3.41748344370861				0.623788079470199	0.113165562913907	-0.820238410596026	3.94039735099338	-7.96238410596027	-5.79470198675497			
113	2580	0.759841059602649	0.0347549668874172	-0.503523178807947	3.95337748344371	-3.7846357615894	4.69509933774834				0.912953642384106	0.127788079470199	-0.402860927152318	-2.92609271523179	-1.09218543046358	2.49403973509934				0.805827814569536	0.126728476821192	-0.48794701986755	-0.832582781456954	-5.45350993377483	-6.36026490066225				0.432529801324503	-0.192529801324503	-0.581721854304636	1.92291390728477	4.6635761589404	0.784370860927152				0.996026490066225	0.179496688741722	-0.138066225165563	-12.6482119205298	-10.0280794701987	-2.57748344370861				0.671788079470199	0.0651655629139073	-0.804238410596027	0.0203973509933773	-8.80238410596027	-11.394701986755			
114	2600	0.823841059602649	-0.0612450331125828	-0.487523178807947	12.3533774834437	-10.2246357615894	4.41509933774834				0.992953642384106	0.0317880794701987	-0.370860927152318	-0.406092715231788	9.82781456953643	4.73403973509934				0.837827814569536	0.0147284768211921	-0.59994701986755	-3.07258278145695	-18.8935099337748	-4.40026490066225				0.448529801324503	-0.128529801324503	-0.773721854304636	8.08291390728477	4.6635761589404	11.4243708609272				0.932026490066225	0.0834966887417219	-0.0740662251655629	-2.8482119205298	5.09192052980133	7.50251655629139				0.559788079470199	0.0811655629139073	-0.724238410596026	3.10039735099338	-4.32238410596027	-0.474701986754968			
115	2620	0.759841059602649	-0.0292450331125828	-0.519523178807947	2.55337748344371	-11.6246357615894	2.73509933774834				0.928953642384106	0.159788079470199	-0.114860927152318	-1.24609271523179	10.3878145695364	9.21403973509934				0.805827814569536	-0.0652715231788079	-0.56794701986755	8.40741721854305	-13.8535099337748	-3.28026490066225				0	0	0	0	0	0				0.948026490066225	0.0194966887417219	0.0219337748344371	3.3117880794702	-1.34807947019868	8.62251655629139				0.479788079470199	0.0171655629139073	-0.756238410596026	-7.81960264900662	-4.88238410596027	3.16529801324503			
116	2640	0.743841059602649	-0.0132450331125828	-0.551523178807947	-1.36662251655629	-9.94463576158941	3.29509933774834				0.896953642384106	0.175788079470199	-0.274860927152318	-6.28609271523179	-1.93218543046358	15.3740397350993				0.741827814569536	-0.113271523178808	-0.53594701986755	-0.552582781456954	-7.41350993377483	-4.40026490066225				0.672529801324503	-0.624529801324503	-0.677721854304636	0.522913907284768	11.9435761589404	2.74437086092715				0.980026490066225	0.00349668874172187	-0.106066225165563	-2.8482119205298	1.17192052980133	1.90251655629139				0.687788079470199	0.0331655629139073	-0.884238410596026	13.4603973509934	-11.3223841059603	2.60529801324503			
117	2660	0.839841059602649	-0.0452450331125828	-0.567523178807947	-2.48662251655629	-11.3446357615894	-0.904900662251656				0.976953642384106	0.0317880794701987	-0.530860927152318	0.713907284768212	-1.93218543046358	13.6940397350993				0.773827814569536	-0.0652715231788079	-0.48794701986755	-3.63258278145695	-10.7735099337748	-1.04026490066225				0.416529801324503	-0.224529801324503	-0.757721854304636	-15.9970860927152	-2.0564238410596	9.18437086092715				1.02802649006623	0.0834966887417219	-0.122066225165563	-15.4482119205298	9.85192052980133	3.58251655629139				0.639788079470199	-0.0148344370860927	-0.740238410596026	4.78039735099338	-7.96238410596027	10.725298013245			
118	2680	0.807841059602649	0.0187549668874172	-0.583523178807947	-4.16662251655629	-9.38463576158941	-0.0649006622516557				1.05695364238411	0.111788079470199	-0.418860927152318	-2.08609271523179	1.70781456953642	12.5740397350993				0.805827814569536	0.0307284768211921	-0.50394701986755	7.56741721854305	-5.17350993377483	2.03973509933775				0.512529801324503	-0.336529801324503	-0.741721854304636	-2.55708609271523	3.8235761589404	19.2643708609272				1.04402649006623	0.00349668874172187	0.00593377483443711	-10.9682119205298	8.73192052980133	11.1425165562914				0.639788079470199	-0.0148344370860927	-0.724238410596026	3.38039735099338	0.437615894039735	8.76529801324503			
119	2700	0.775841059602649	0.0827549668874172	-0.647523178807947	3.11337748344371	-7.1446357615894	1.61509933774834				1.02495364238411	0.175788079470199	-0.370860927152318	-2.08609271523179	-6.41218543046358	15.3740397350993				0.773827814569536	0.0467284768211921	-0.63194701986755	6.44741721854305	4.34649006622517	3.71973509933775				0.768529801324503	-0.528529801324503	-0.677721854304636	15.3629139072848	24.8235761589404	14.2243708609272				1.14002649006623	-0.0125033112582781	-0.0260662251655629	-8.4482119205298	-9.74807947019868	9.46251655629139				0.639788079470199	0.0171655629139073	-0.884238410596026	-11.7396026490066	3.79761589403974	4.56529801324503			
120	2720	0.759841059602649	0.0827549668874172	-0.631523178807947	15.7133774834437	-7.1446357615894	1.61509933774834				0.976953642384106	0.127788079470199	-0.322860927152318	-4.60609271523179	-10.0521854304636	15.3740397350993				0.773827814569536	0.0147284768211921	-0.67994701986755	12.607417218543	6.02649006622517	3.71973509933775				0.544529801324503	-0.320529801324503	-0.709721854304636	-4.23708609271523	17.8235761589404	8.62437086092715				1.01202649006623	0.0834966887417219	-0.170066225165563	-21.0482119205298	-4.42807947019868	7.50251655629139				0.527788079470199	0.0651655629139073	-0.964238410596026	1.42039735099338	4.35761589403974	16.605298013245			
121	2740	0.775841059602649	0.00275496688741723	-0.567523178807947	9.55337748344371	-5.4646357615894	-0.624900662251656				0.944953642384106	0.127788079470199	-0.370860927152318	4.35390728476821	-3.61218543046358	11.7340397350993				0.725827814569536	0.0147284768211921	-0.63194701986755	3.64741721854305	6.02649006622517	4.27973509933775				0.480529801324503	-0.288529801324503	-0.805721854304636	-8.43708609271523	13.0635761589404	10.5843708609272				0.900026490066225	0.0514966887417219	-0.0900662251655629	-14.0482119205298	16.0119205298013	10.5825165562914				0.543788079470199	0.0331655629139073	-0.868238410596026	5.90039735099338	-1.80238410596026	26.125298013245			
122	2760	0.759841059602649	0.0827549668874172	-0.535523178807947	-0.806622516556291	-4.3446357615894	-3.42490066225166				0.848953642384106	0.0957880794701987	-0.386860927152318	1.55390728476821	-3.33218543046358	11.4540397350993				0.693827814569536	0.0147284768211921	-0.53594701986755	-16.792582781457	7.42649006622517	5.67973509933775				0.720529801324503	-0.496529801324503	-0.709721854304636	6.68291390728477	9.4235761589404	13.1043708609272				1.07602649006623	0.00349668874172187	-0.0420662251655629	-4.8082119205298	3.97192052980133	10.5825165562914				0.495788079470199	0.0171655629139073	-0.772238410596026	6.46039735099338	-12.7223841059603	23.045298013245			
123	2780	0.727841059602649	0.130754966887417	-0.567523178807947	1.99337748344371	-1.5446357615894	-3.98490066225166				0.912953642384106	0.143788079470199	-0.306860927152318	-11.0460927152318	4.22781456953642	13.4140397350993				0.741827814569536	0.0627284768211921	-0.58394701986755	-19.592582781457	3.50649006622517	6.23973509933775				0.624529801324503	-0.544529801324503	-0.709721854304636	0.802913907284768	11.9435761589404	13.1043708609272				0.996026490066225	0.0194966887417219	-0.0900662251655629	-12.3682119205298	-6.10807947019868	8.34251655629139				0.591788079470199	0.193165562913907	-0.820238410596026	-5.01960264900662	-0.682384105960265	13.525298013245			
124	2800	0.743841059602649	0.146754966887417	-0.599523178807947	8.43337748344371	-2.6646357615894	-0.904900662251656				0.896953642384106	0.159788079470199	-0.274860927152318	-2.64609271523179	4.78781456953642	12.5740397350993				0.741827814569536	0.110728476821192	-0.56794701986755	1.12741721854305	-1.25350993377483	3.71973509933775				0.448529801324503	-0.304529801324503	-0.709721854304636	-11.5170860927152	1.5835761589404	13.3843708609272				0.820026490066225	0.0354966887417219	-0.138066225165563	-14.0482119205298	12.3719205298013	8.62251655629139				0.463788079470199	0.0811655629139073	-0.820238410596026	1.14039735099338	2.39761589403974	11.285298013245			
125	2820	0.759841059602649	0.0507549668874172	-0.567523178807947	9.55337748344371	2.0953642384106	-0.624900662251656				0.800953642384106	0.143788079470199	-0.354860927152318	7.99390728476821	7.30781456953642	8.09403973509934				0.645827814569536	0.158728476821192	-0.51994701986755	5.88741721854305	-3.21350993377483	1.19973509933775				0.592529801324503	-0.304529801324503	-0.613721854304636	-3.39708609271523	4.3835761589404	8.34437086092715				0.948026490066225	0.0194966887417219	-0.0580662251655629	-4.2482119205298	17.9719205298013	6.94251655629139				0.415788079470199	-0.0148344370860927	-0.804238410596027	13.4603973509934	-6.00238410596027	7.08529801324503			
126	2840	0.743841059602649	-0.0452450331125828	-0.551523178807947	-7.52662251655629	1.8153642384106	-1.18490066225166				0.864953642384106	0.111788079470199	-0.434860927152318	-1.52609271523179	11.2278145695364	9.77403973509934				0.661827814569536	0.142728476821192	-0.51994701986755	-0.832582781456954	-6.29350993377483	2.31973509933775				0.688529801324503	-0.384529801324503	-0.581721854304636	13.1229139072848	15.3035761589404	9.74437086092715				1.04402649006623	0.0674966887417219	-0.0260662251655629	0.791788079470198	-2.46807947019868	6.10251655629139				0.511788079470199	0.113165562913907	-0.820238410596026	-1.93960264900662	-2.08238410596027	9.04529801324503			
127	2860	0.695841059602649	0.0347549668874172	-0.615523178807947	-13.9666225165563	-5.1846357615894	-0.904900662251656				0.928953642384106	0.191788079470199	-0.370860927152318	-1.80609271523179	7.58781456953643	3.61403973509934				0.741827814569536	0.142728476821192	-0.66394701986755	7.00741721854305	-8.81350993377484	2.59973509933775				0.560529801324503	-0.416529801324503	-0.661721854304636	10.8829139072848	13.9035761589404	13.9443708609272				0.900026490066225	0.0514966887417219	-0.122066225165563	-0.0482119205298018	2.29192052980133	8.34251655629139				0.543788079470199	0.145165562913907	-0.772238410596026	-11.4596026490066	1.55761589403974	6.80529801324503			
128	2880	0.727841059602649	0.0987549668874172	-0.679523178807947	-8.08662251655629	-5.7446357615894	0.775099337748344				0.928953642384106	0.127788079470199	-0.242860927152318	7.99390728476821	12.9078145695364	7.81403973509934				0.757827814569536	0.110728476821192	-0.71194701986755	19.0474172185431	-5.17350993377483	0.63973509933775				0.544529801324503	-0.448529801324503	-0.789721854304636	0.522913907284768	0.4635761589404	4.98437086092715				0.868026490066225	0.00349668874172187	-0.138066225165563	3.0317880794702	15.7319205298013	4.98251655629139				0.479788079470199	0.0171655629139073	-0.772238410596026	-5.01960264900662	5.47761589403974	-3.83470198675497			
129	2900	0.775841059602649	0.0987549668874172	-0.743523178807947	2.83337748344371	-2.9446357615894	1.61509933774834				0.912953642384106	0.0957880794701987	-0.290860927152318	9.11390728476821	7.30781456953642	6.97403973509934				0.725827814569536	0.0947284768211921	-0.71194701986755	13.727417218543	1.26649006622517	-2.44026490066225				0.736529801324503	-0.384529801324503	-0.677721854304636	-3.11708609271523	-7.9364238410596	-2.29562913907285				1.01202649006623	0.00349668874172187	0.00593377483443711	10.5917880794702	23.0119205298013	0.222516556291392				0.383788079470199	-0.0148344370860927	-0.772238410596026	17.6603973509934	-2.08238410596027	-2.43470198675497			
130	2920	0.727841059602649	0.0827549668874172	-0.663523178807947	8.43337748344371	-0.984635761589404	2.17509933774834				0.880953642384106	0.127788079470199	-0.338860927152318	-4.60609271523179	14.8678145695364	3.33403973509934				0.709827814569536	0.0627284768211921	-0.66394701986755	0.00741721854304636	0.986490066225167	-4.40026490066225				0.512529801324503	-0.448529801324503	-0.629721854304636	1.64291390728477	9.7035761589404	-6.49562913907285				1.01202649006623	0.0354966887417219	-0.0100662251655629	8.6317880794702	-1.90807947019868	-2.01748344370861				0.543788079470199	0.0491655629139073	-0.740238410596026	22.1403973509934	-0.122384105960265	7.92529801324503			
131	2940	0.663841059602649	0.0827549668874172	-0.599523178807947	11.7933774834437	-3.2246357615894	-1.18490066225166				0.960953642384106	0.0317880794701987	-0.274860927152318	2.39390728476821	14.8678145695364	3.33403973509934				0.709827814569536	0.0627284768211921	-0.64794701986755	-3.91258278145695	-1.81350993377483	-4.12026490066225				0.496529801324503	-0.400529801324503	-0.709721854304636	2.20291390728477	5.2235761589404	-1.73562913907285				0.900026490066225	-0.0125033112582781	-0.154066225165563	-7.0482119205298	1.73192052980133	-0.897483443708608				0.687788079470199	-0.0148344370860927	-0.772238410596026	-6.97960264900662	16.1176158940397	2.60529801324503			
