No	Time	12-AccX	12-AccY	12-AccZ	12-GyroX	12-GyroY	12-GyroZ	13-AccX	13-AccY	13-AccZ	13-GyroX	13-GyroY	13-GyroZ	14-AccX	14-AccY	14-AccZ	14-GyroX	14-GyroY	14-GyroZ	15-AccX	15-AccY	15-AccZ	15-GyroX	15-GyroY	15-GyroZ	16-AccX	16-AccY	16-AccZ	16-GyroX	16-GyroY	16-GyroZ	17-AccX	17-AccY	17-AccZ	17-GyroX	17-GyroY	17-GyroZ
0	120	0	0	0	0	0	0				0	0	0	0	0	0				-0.202172185430464	-0.145271523178808	-0.88794701986755	1.40741721854305	0.706490066225167	-0.76026490066225				0.608529801324503	-0.320529801324503	-0.693721854304636	0.802913907284768	0.4635761589404	1.06437086092715				0.964026490066225	0.0674966887417219	0.117933774834437	-0.608211920529802	-3.30807947019868	-0.617483443708608				0.527788079470199	-0.0468344370860927	-0.788238410596027	-1.37960264900662	0.997615894039735	-0.474701986754968			
1	140	-0.184158940397351	0.162754966887417	-0.935523178807947	-0.526622516556291	-0.144635761589404	-0.904900662251656				0.960953642384106	0.143788079470199	0.221139072847682	0.713907284768212	-2.21218543046358	0.81403973509934				-0.186172185430464	-0.145271523178808	-0.90394701986755	-0.552582781456954	-0.133509933774833	0.0797350993377501				0.608529801324503	-0.304529801324503	-0.693721854304636	0.522913907284768	-0.3764238410596	0.784370860927152				0.964026490066225	0.0674966887417219	0.101933774834437	-1.7282119205298	-3.30807947019868	0.502516556291392				0.543788079470199	-0.0308344370860927	-0.788238410596027	-1.93960264900662	0.717615894039735	-0.194701986754968			
2	160	-0.184158940397351	0.162754966887417	-0.935523178807947	-0.246622516556291	-0.144635761589404	-0.0649006622516557				0.976953642384106	0.143788079470199	0.205139072847682	-0.686092715231788	0.867814569536424	0.81403973509934				-0.186172185430464	-0.161271523178808	-0.88794701986755	-0.832582781456954	0.146490066225167	-0.48026490066225				0.608529801324503	-0.304529801324503	-0.677721854304636	-0.877086092715232	-1.2164238410596	0.784370860927152				0.948026490066225	0.0674966887417219	0.117933774834437	0.511788079470198	-1.62807947019868	0.502516556291392				0.527788079470199	-0.0308344370860927	-0.788238410596027	-0.819602649006623	-0.402384105960265	-0.194701986754968			
3	180	-0.184158940397351	0.162754966887417	-0.935523178807947	-0.246622516556291	0.415364238410596	-1.46490066225166				0.976953642384106	0.143788079470199	0.205139072847682	-0.966092715231788	3.10781456953642	0.53403973509934				-0.202172185430464	-0.129271523178808	-0.87194701986755	0.847417218543046	0.706490066225167	-0.76026490066225				0.592529801324503	-0.288529801324503	-0.677721854304636	-0.597086092715232	-0.6564238410596	1.06437086092715				0.948026490066225	0.0674966887417219	0.117933774834437	1.3517880794702	-1.62807947019868	-0.0574834437086077				0.527788079470199	-0.0308344370860927	-0.804238410596027	-0.539602649006623	-0.682384105960265	1.20529801324503			
4	200	-0.152158940397351	0.162754966887417	-0.951523178807947	-0.806622516556291	0.975364238410596	-1.18490066225166				0.960953642384106	0.127788079470199	0.221139072847682	-0.966092715231788	4.22781456953642	0.81403973509934				-0.186172185430464	-0.145271523178808	-0.88794701986755	2.24741721854305	0.426490066225167	-1.04026490066225				0.592529801324503	-0.288529801324503	-0.645721854304636	-0.317086092715232	-0.3764238410596	1.06437086092715				0.948026490066225	0.0674966887417219	0.117933774834437	0.231788079470198	-1.06807947019868	0.502516556291392				0.527788079470199	-0.0308344370860927	-0.788238410596027	-1.65960264900662	0.157615894039735	0.0852980132450323			
5	220	-0.168158940397351	0.162754966887417	-0.935523178807947	-0.526622516556291	0.695364238410596	-0.344900662251656				0.944953642384106	0.143788079470199	0.237139072847682	-0.966092715231788	3.66781456953642	-0.585960264900661				-0.202172185430464	-0.145271523178808	-0.88794701986755	3.36741721854305	-0.133509933774833	-0.76026490066225				0.592529801324503	-0.288529801324503	-0.677721854304636	-0.877086092715232	-0.6564238410596	-0.335629139072848				0.964026490066225	0.0674966887417219	0.101933774834437	0.231788079470198	-1.90807947019868	0.502516556291392				0.543788079470199	-0.0308344370860927	-0.788238410596027	-1.09960264900662	0.157615894039735	0.0852980132450323			
6	240	-0.168158940397351	0.162754966887417	-0.935523178807947	0.313377483443709	0.135364238410596	-0.624900662251656				0.960953642384106	0.143788079470199	0.237139072847682	-0.406092715231788	3.10781456953642	0.25403973509934				-0.186172185430464	-0.145271523178808	-0.88794701986755	3.08741721854305	-0.973509933774833	0.0797350993377501				0.608529801324503	-0.304529801324503	-0.677721854304636	-0.0370860927152318	-0.9364238410596	-0.895629139072848				0.948026490066225	0.0674966887417219	0.133933774834437	0.791788079470198	0.331920529801325	0.782516556291392				0.527788079470199	-0.0148344370860927	-0.788238410596027	0.300397350993377	-0.122384105960265	-1.03470198675497			
7	260	-0.184158940397351	0.162754966887417	-0.951523178807947	0.313377483443709	0.415364238410596	-0.624900662251656				0.976953642384106	0.143788079470199	0.221139072847682	-0.966092715231788	3.66781456953642	-0.585960264900661				-0.202172185430464	-0.145271523178808	-0.88794701986755	1.96741721854305	-0.413509933774833	0.0797350993377501				0.608529801324503	-0.304529801324503	-0.693721854304636	0.802913907284768	0.7435761589404	0.504370860927152				0.964026490066225	0.0514966887417219	0.0859337748344371	1.9117880794702	-3.58807947019868	1.06251655629139				0.527788079470199	-0.0148344370860927	-0.788238410596027	1.14039735099338	-0.402384105960265	-1.03470198675497			
8	280	-0.184158940397351	0.162754966887417	-0.951523178807947	-0.526622516556291	-0.424635761589404	-0.344900662251656				0.976953642384106	0.143788079470199	0.237139072847682	-0.126092715231788	5.34781456953642	0.81403973509934				-0.202172185430464	-0.145271523178808	-0.87194701986755	-0.272582781456954	0.426490066225167	-0.20026490066225				0.608529801324503	-0.304529801324503	-0.677721854304636	-0.877086092715232	0.4635761589404	1.06437086092715				0.948026490066225	0.0834966887417219	0.149933774834437	-3.4082119205298	2.85192052980133	-0.897483443708608				0.527788079470199	-0.0308344370860927	-0.788238410596027	0.300397350993377	-0.682384105960265	-0.474701986754968			
9	300	-0.168158940397351	0.162754966887417	-0.935523178807947	0.0333774834437086	0.975364238410596	-1.18490066225166				0.960953642384106	0.143788079470199	0.253139072847682	-1.52609271523179	3.38781456953642	0.81403973509934				-0.202172185430464	-0.129271523178808	-0.88794701986755	-1.11258278145695	0.426490066225167	-0.76026490066225				0.592529801324503	-0.288529801324503	-0.693721854304636	-0.597086092715232	1.0235761589404	1.34437086092715				0.964026490066225	0.0674966887417219	0.101933774834437	-2.2882119205298	2.01192052980133	-0.897483443708608				0.527788079470199	-0.0148344370860927	-0.788238410596027	0.580397350993377	-0.122384105960265	-0.474701986754968			
10	320	-0.168158940397351	0.162754966887417	-0.935523178807947	-0.526622516556291	0.135364238410596	-0.624900662251656				0.960953642384106	0.143788079470199	0.237139072847682	-2.36609271523179	0.587814569536424	-0.30596026490066				-0.186172185430464	-0.129271523178808	-0.88794701986755	-0.832582781456954	0.146490066225167	-0.48026490066225				0.608529801324503	-0.288529801324503	-0.693721854304636	0.522913907284768	0.1835761589404	1.34437086092715				0.980026490066225	0.0674966887417219	0.101933774834437	1.3517880794702	2.01192052980133	-0.0574834437086077				0.527788079470199	-0.0308344370860927	-0.788238410596027	1.42039735099338	1.27761589403974	-1.31470198675497			
11	340	-0.184158940397351	0.162754966887417	-0.935523178807947	0.313377483443709	0.135364238410596	-0.624900662251656				0.960953642384106	0.143788079470199	0.237139072847682	-0.686092715231788	1.98781456953642	-0.585960264900661				-0.202172185430464	-0.161271523178808	-0.88794701986755	0.00741721854304636	-0.133509933774833	-1.32026490066225				0.624529801324503	-0.304529801324503	-0.693721854304636	-2.27708609271523	1.0235761589404	-0.335629139072848				0.980026490066225	0.0674966887417219	0.117933774834437	1.0717880794702	1.45192052980132	-0.337483443708608				0.527788079470199	-0.0148344370860927	-0.788238410596027	0.0203973509933773	2.11761589403974	-1.59470198675497			
12	360	-0.184158940397351	0.162754966887417	-0.951523178807947	0.873377483443709	0.415364238410596	-1.18490066225166				0.960953642384106	0.159788079470199	0.269139072847682	-0.966092715231788	4.50781456953642	1.09403973509934				-0.202172185430464	-0.145271523178808	-0.88794701986755	0.847417218543046	1.26649006622517	-0.48026490066225				0.608529801324503	-0.288529801324503	-0.693721854304636	-1.99708609271523	-0.6564238410596	-0.895629139072848				0.964026490066225	0.0834966887417219	0.117933774834437	-0.608211920529802	0.611920529801325	-0.897483443708608				0.527788079470199	-0.0308344370860927	-0.788238410596027	-0.259602649006623	3.23761589403974	-1.87470198675497			
13	380	-0.168158940397351	0.162754966887417	-0.967523178807947	-0.246622516556291	1.5353642384106	-1.18490066225166				0.960953642384106	0.159788079470199	0.253139072847682	-0.126092715231788	5.06781456953642	2.21403973509934				-0.202172185430464	-0.129271523178808	-0.88794701986755	-1.11258278145695	1.82649006622517	-0.48026490066225				0.608529801324503	-0.288529801324503	-0.677721854304636	-1.99708609271523	0.4635761589404	-1.17562913907285				0.948026490066225	0.0834966887417219	0.133933774834437	-0.0482119205298018	1.73192052980133	-0.617483443708608				0.543788079470199	-0.0148344370860927	-0.788238410596027	0.0203973509933773	1.55761589403974	-0.754701986754968			
14	400	-0.168158940397351	0.178754966887417	-0.935523178807947	-0.246622516556291	0.415364238410596	-1.18490066225166				0.976953642384106	0.127788079470199	0.253139072847682	0.153907284768212	3.38781456953642	1.37403973509934				-0.186172185430464	-0.145271523178808	-0.88794701986755	-1.95258278145695	0.706490066225167	-1.04026490066225				0.624529801324503	-0.288529801324503	-0.693721854304636	-0.317086092715232	1.3035761589404	-1.17562913907285				0.980026490066225	0.0674966887417219	0.101933774834437	1.3517880794702	0.891920529801325	-0.897483443708608				0.543788079470199	-0.0308344370860927	-0.788238410596027	0.0203973509933773	0.997615894039735	-1.31470198675497			
15	420	-0.184158940397351	0.162754966887417	-0.919523178807947	0.0333774834437086	0.415364238410596	-0.904900662251656				0.960953642384106	0.143788079470199	0.253139072847682	0.993907284768212	0.867814569536424	0.81403973509934				-0.186172185430464	-0.145271523178808	-0.88794701986755	-0.552582781456954	-0.973509933774833	-0.48026490066225				0.608529801324503	-0.304529801324503	-0.693721854304636	0.242913907284768	-0.0964238410596001	-1.17562913907285				0.980026490066225	0.0674966887417219	0.149933774834437	1.3517880794702	1.17192052980133	-0.897483443708608				0.543788079470199	-0.0148344370860927	-0.788238410596027	0.860397350993377	0.717615894039735	-1.03470198675497			
16	440	-0.184158940397351	0.162754966887417	-0.935523178807947	0.593377483443709	0.415364238410596	-1.46490066225166				0.976953642384106	0.159788079470199	0.237139072847682	0.433907284768212	0.587814569536424	0.81403973509934				-0.202172185430464	-0.161271523178808	-0.88794701986755	1.12741721854305	0.986490066225167	-0.48026490066225				0.608529801324503	-0.288529801324503	-0.677721854304636	-0.317086092715232	-0.6564238410596	-0.615629139072848				0.948026490066225	0.0834966887417219	0.117933774834437	1.9117880794702	1.17192052980133	-0.337483443708608				0.543788079470199	-0.0308344370860927	-0.788238410596027	1.70039735099338	-0.122384105960265	-1.03470198675497			
17	460	-0.184158940397351	0.146754966887417	-0.967523178807947	-0.246622516556291	0.975364238410596	-1.46490066225166				0.960953642384106	0.143788079470199	0.237139072847682	-0.406092715231788	2.82781456953642	1.09403973509934				-0.202172185430464	-0.129271523178808	-0.88794701986755	1.12741721854305	0.706490066225167	-1.04026490066225				0.608529801324503	-0.288529801324503	-0.677721854304636	-0.877086092715232	-1.4964238410596	-1.45562913907285				0.948026490066225	0.0674966887417219	0.133933774834437	1.3517880794702	0.611920529801325	-0.897483443708608				0.543788079470199	-0.0308344370860927	-0.772238410596026	1.98039735099338	-0.122384105960265	-1.03470198675497			
18	480	-0.152158940397351	0.162754966887417	-0.951523178807947	-0.526622516556291	0.135364238410596	-0.904900662251656				0.960953642384106	0.143788079470199	0.237139072847682	-0.966092715231788	2.26781456953642	1.65403973509934				-0.202172185430464	-0.161271523178808	-0.88794701986755	0.00741721854304636	1.26649006622517	-0.20026490066225				0.608529801324503	-0.288529801324503	-0.693721854304636	-0.317086092715232	-1.2164238410596	-1.73562913907285				0.948026490066225	0.0674966887417219	0.133933774834437	1.0717880794702	0.891920529801325	-0.897483443708608				0.559788079470199	-0.0308344370860927	-0.772238410596026	1.14039735099338	-0.682384105960265	-1.03470198675497			
19	500	-0.168158940397351	0.146754966887417	-0.919523178807947	-1.08662251655629	0.695364238410596	-0.624900662251656				0.960953642384106	0.127788079470199	0.253139072847682	0.993907284768212	1.70781456953642	1.09403973509934				-0.170172185430464	-0.145271523178808	-0.87194701986755	0.847417218543046	-0.133509933774833	-0.48026490066225				0.608529801324503	-0.288529801324503	-0.677721854304636	-0.597086092715232	-0.6564238410596	-2.01562913907285				0.964026490066225	0.0674966887417219	0.117933774834437	0.511788079470198	-1.34807947019868	0.502516556291392				0.559788079470199	-0.0308344370860927	-0.788238410596027	0.300397350993377	0.997615894039735	-1.03470198675497			
20	520	-0.168158940397351	0.162754966887417	-0.919523178807947	0.313377483443709	-0.704635761589404	-0.0649006622516557				0.960953642384106	0.143788079470199	0.253139072847682	0.713907284768212	1.14781456953642	0.81403973509934				-0.186172185430464	-0.145271523178808	-0.87194701986755	0.00741721854304636	-0.133509933774833	0.0797350993377501				0.608529801324503	-0.288529801324503	-0.677721854304636	-4.23708609271523	1.0235761589404	-1.45562913907285				0.964026490066225	0.0674966887417219	0.133933774834437	0.791788079470198	1.45192052980132	-0.337483443708608				0.543788079470199	-0.0148344370860927	-0.788238410596027	1.70039735099338	1.83761589403974	-0.474701986754968			
21	540	-0.168158940397351	0.146754966887417	-0.967523178807947	0.593377483443709	-0.144635761589404	-0.624900662251656				0.960953642384106	0.143788079470199	0.237139072847682	0.713907284768212	3.10781456953642	0.25403973509934				-0.202172185430464	-0.161271523178808	-0.90394701986755	0.00741721854304636	-0.693509933774834	-0.48026490066225				0.608529801324503	-0.288529801324503	-0.677721854304636	1.36291390728477	1.0235761589404	-1.17562913907285				0.948026490066225	0.0674966887417219	0.117933774834437	-0.0482119205298018	0.891920529801325	-0.617483443708608				0.543788079470199	-0.0308344370860927	-0.772238410596026	2.54039735099338	0.997615894039735	-1.03470198675497			
22	560	-0.168158940397351	0.162754966887417	-0.951523178807947	0.873377483443709	0.415364238410596	-0.904900662251656				0.960953642384106	0.143788079470199	0.253139072847682	0.713907284768212	4.50781456953642	0.81403973509934				-0.202172185430464	-0.161271523178808	-0.90394701986755	0.847417218543046	-0.133509933774833	0.0797350993377501				0.608529801324503	-0.288529801324503	-0.645721854304636	-1.15708609271523	0.4635761589404	-0.615629139072848				0.948026490066225	0.0674966887417219	0.133933774834437	2.7517880794702	1.17192052980133	0.502516556291392				0.543788079470199	-0.0308344370860927	-0.772238410596026	3.38039735099338	0.157615894039735	-0.474701986754968			
23	580	-0.168158940397351	0.162754966887417	-0.919523178807947	0.313377483443709	-0.424635761589404	-0.904900662251656				0.960953642384106	0.127788079470199	0.269139072847682	0.153907284768212	2.54781456953642	1.93403973509934				-0.186172185430464	-0.145271523178808	-0.87194701986755	1.12741721854305	0.986490066225167	-0.20026490066225				0.624529801324503	-0.304529801324503	-0.693721854304636	-1.15708609271523	-0.0964238410596001	-0.335629139072848				0.964026490066225	0.0834966887417219	0.133933774834437	1.6317880794702	1.45192052980132	-0.0574834437086077				0.559788079470199	-0.0468344370860927	-0.788238410596027	1.70039735099338	-0.122384105960265	-1.03470198675497			
24	600	-0.168158940397351	0.162754966887417	-0.919523178807947	0.593377483443709	-0.424635761589404	-0.904900662251656				0.960953642384106	0.143788079470199	0.269139072847682	0.433907284768212	0.0278145695364242	0.81403973509934				-0.202172185430464	-0.145271523178808	-0.87194701986755	0.847417218543046	-0.133509933774833	-0.76026490066225				0.624529801324503	-0.288529801324503	-0.693721854304636	-0.0370860927152318	0.4635761589404	-0.0556291390728476				0.980026490066225	0.0834966887417219	0.117933774834437	-0.0482119205298018	1.45192052980132	-0.0574834437086077				0.559788079470199	-0.0308344370860927	-0.772238410596026	0.860397350993377	0.717615894039735	-1.59470198675497			
25	620	-0.184158940397351	0.178754966887417	-0.951523178807947	0.873377483443709	-0.424635761589404	-1.46490066225166				0.960953642384106	0.143788079470199	0.237139072847682	2.11390728476821	-1.65218543046358	0.81403973509934				-0.202172185430464	-0.145271523178808	-0.88794701986755	0.847417218543046	-0.413509933774833	-0.48026490066225				0.608529801324503	-0.288529801324503	-0.677721854304636	-0.317086092715232	-0.0964238410596001	-0.0556291390728476				0.964026490066225	0.0674966887417219	0.133933774834437	0.791788079470198	1.17192052980133	0.222516556291392				0.543788079470199	-0.0308344370860927	-0.772238410596026	2.26039735099338	0.997615894039735	-1.87470198675497			
26	640	-0.184158940397351	0.162754966887417	-0.951523178807947	0.313377483443709	0.415364238410596	-1.18490066225166				0.976953642384106	0.143788079470199	0.221139072847682	0.993907284768212	0.867814569536424	1.09403973509934				-0.202172185430464	-0.145271523178808	-0.90394701986755	-0.272582781456954	0.426490066225167	-0.20026490066225				0.624529801324503	-0.288529801324503	-0.677721854304636	-0.317086092715232	-0.6564238410596	-0.335629139072848				0.964026490066225	0.0674966887417219	0.133933774834437	0.231788079470198	-1.06807947019868	-0.0574834437086077				0.543788079470199	-0.0308344370860927	-0.772238410596026	2.26039735099338	0.157615894039735	-1.59470198675497			
27	660	-0.168158940397351	0.162754966887417	-0.935523178807947	-0.246622516556291	1.5353642384106	-1.18490066225166				0.976953642384106	0.143788079470199	0.253139072847682	-0.406092715231788	0.587814569536424	1.09403973509934				-0.202172185430464	-0.145271523178808	-0.88794701986755	1.40741721854305	0.706490066225167	-0.48026490066225				0.624529801324503	-0.288529801324503	-0.677721854304636	0.802913907284768	-0.6564238410596	-0.0556291390728476				0.964026490066225	0.0674966887417219	0.133933774834437	0.231788079470198	-1.34807947019868	0.782516556291392				0.543788079470199	-0.0308344370860927	-0.772238410596026	0.860397350993377	-1.24238410596026	-0.754701986754968			
28	680	-0.152158940397351	0.162754966887417	-0.919523178807947	-1.08662251655629	-0.144635761589404	-1.46490066225166				0.960953642384106	0.143788079470199	0.253139072847682	0.713907284768212	-2.77218543046358	0.25403973509934				-0.186172185430464	-0.145271523178808	-0.87194701986755	0.847417218543046	0.706490066225167	-0.20026490066225				0.624529801324503	-0.304529801324503	-0.693721854304636	2.20291390728477	0.4635761589404	1.06437086092715				0.964026490066225	0.0674966887417219	0.133933774834437	0.231788079470198	-1.06807947019868	0.782516556291392				0.559788079470199	-0.0148344370860927	-0.788238410596027	0.580397350993377	-0.402384105960265	-1.31470198675497			
29	700	-0.168158940397351	0.162754966887417	-0.935523178807947	0.313377483443709	-0.984635761589404	-0.904900662251656				0.944953642384106	0.143788079470199	0.253139072847682	1.83390728476821	-5.29218543046358	1.09403973509934				-0.186172185430464	-0.145271523178808	-0.90394701986755	-0.272582781456954	-1.81350993377483	-0.48026490066225				0.624529801324503	-0.304529801324503	-0.709721854304636	-0.317086092715232	0.4635761589404	1.06437086092715				0.964026490066225	0.0834966887417219	0.117933774834437	1.0717880794702	-0.788079470198675	-0.0574834437086077				0.543788079470199	-0.0308344370860927	-0.788238410596027	1.42039735099338	-0.402384105960265	-0.754701986754968			
30	720	-0.184158940397351	0.162754966887417	-0.951523178807947	1.15337748344371	-0.424635761589404	-0.904900662251656				0.976953642384106	0.127788079470199	0.237139072847682	2.11390728476821	-2.77218543046358	1.37403973509934				-0.202172185430464	-0.145271523178808	-0.90394701986755	-1.11258278145695	-0.133509933774833	-0.20026490066225				0.608529801324503	-0.288529801324503	-0.693721854304636	0.522913907284768	-0.9364238410596	1.90437086092715				0.964026490066225	0.0674966887417219	0.117933774834437	0.791788079470198	0.0519205298013249	0.222516556291392				0.543788079470199	-0.0468344370860927	-0.772238410596026	0.860397350993377	-0.962384105960265	-0.754701986754968			
31	740	-0.184158940397351	0.162754966887417	-0.951523178807947	1.15337748344371	0.695364238410596	-0.904900662251656				0.960953642384106	0.143788079470199	0.237139072847682	2.11390728476821	-0.532185430463576	0.81403973509934				-0.202172185430464	-0.145271523178808	-0.90394701986755	0.847417218543046	0.426490066225167	-0.48026490066225				0.592529801324503	-0.288529801324503	-0.693721854304636	-0.597086092715232	-0.6564238410596	2.18437086092715				0.948026490066225	0.0674966887417219	0.133933774834437	1.3517880794702	0.891920529801325	0.222516556291392				0.543788079470199	-0.0468344370860927	-0.788238410596027	0.0203973509933773	-0.962384105960265	-0.194701986754968			
32	760	-0.168158940397351	0.162754966887417	-0.935523178807947	0.313377483443709	0.415364238410596	-0.624900662251656				0.960953642384106	0.143788079470199	0.253139072847682	0.153907284768212	-0.812185430463576	0.53403973509934				-0.202172185430464	-0.129271523178808	-0.88794701986755	0.287417218543046	0.706490066225167	-0.20026490066225				0.608529801324503	-0.288529801324503	-0.677721854304636	-1.15708609271523	-0.3764238410596	1.62437086092715				0.964026490066225	0.0674966887417219	0.117933774834437	0.231788079470198	0.611920529801325	0.222516556291392				0.527788079470199	-0.0308344370860927	-0.788238410596027	0.0203973509933773	-1.80238410596026	-0.474701986754968			
33	780	-0.184158940397351	0.162754966887417	-0.919523178807947	0.0333774834437086	0.135364238410596	-0.344900662251656				0.960953642384106	0.127788079470199	0.253139072847682	1.27390728476821	-3.61218543046358	1.37403973509934				-0.186172185430464	-0.145271523178808	-0.88794701986755	-0.832582781456954	-0.693509933774834	0.0797350993377501				0.608529801324503	-0.304529801324503	-0.693721854304636	-0.317086092715232	0.1835761589404	0.504370860927152				0.980026490066225	0.0674966887417219	0.101933774834437	-0.328211920529802	-1.06807947019868	-0.0574834437086077				0.543788079470199	-0.0308344370860927	-0.788238410596027	0.860397350993377	-0.402384105960265	-0.754701986754968			
34	800	-0.168158940397351	0.162754966887417	-0.935523178807947	0.0333774834437086	0.415364238410596	-0.344900662251656				0.960953642384106	0.143788079470199	0.237139072847682	2.67390728476821	-5.29218543046358	0.81403973509934				-0.186172185430464	-0.145271523178808	-0.88794701986755	-1.39258278145695	0.146490066225167	0.0797350993377501				0.608529801324503	-0.288529801324503	-0.693721854304636	-0.317086092715232	0.7435761589404	1.62437086092715				0.964026490066225	0.0834966887417219	0.133933774834437	-0.0482119205298018	2.85192052980133	-0.0574834437086077				0.527788079470199	-0.0308344370860927	-0.788238410596027	1.70039735099338	0.437615894039735	-1.03470198675497			
35	820	-0.184158940397351	0.146754966887417	-0.967523178807947	-0.246622516556291	0.695364238410596	-1.18490066225166				0.960953642384106	0.143788079470199	0.221139072847682	3.51390728476821	-3.61218543046358	0.25403973509934				-0.202172185430464	-0.145271523178808	-0.88794701986755	0.567417218543046	-0.133509933774833	-0.48026490066225				0.608529801324503	-0.288529801324503	-0.661721854304636	-0.0370860927152318	-0.0964238410596001	2.46437086092715				0.948026490066225	0.0674966887417219	0.133933774834437	-0.888211920529802	1.73192052980133	0.502516556291392				0.527788079470199	-0.0308344370860927	-0.788238410596027	0.860397350993377	-0.122384105960265	-0.194701986754968			
36	840	-0.168158940397351	0.146754966887417	-0.951523178807947	-0.526622516556291	0.135364238410596	-0.344900662251656				0.976953642384106	0.159788079470199	0.221139072847682	0.993907284768212	-1.65218543046358	1.37403973509934				-0.202172185430464	-0.145271523178808	-0.90394701986755	1.96741721854305	0.706490066225167	-0.20026490066225				0.608529801324503	-0.288529801324503	-0.693721854304636	0.802913907284768	-0.0964238410596001	2.18437086092715				0.932026490066225	0.0674966887417219	0.133933774834437	-0.328211920529802	-0.508079470198675	0.782516556291392				0.543788079470199	-0.0308344370860927	-0.788238410596027	0.300397350993377	-0.402384105960265	-0.474701986754968			
37	860	-0.168158940397351	0.162754966887417	-0.935523178807947	-0.246622516556291	-0.424635761589404	-1.18490066225166				0.960953642384106	0.143788079470199	0.237139072847682	-1.80609271523179	-1.65218543046358	0.53403973509934				-0.186172185430464	-0.145271523178808	-0.87194701986755	-1.39258278145695	0.426490066225167	0.0797350993377501				0.608529801324503	-0.304529801324503	-0.693721854304636	1.36291390728477	0.4635761589404	2.18437086092715				0.948026490066225	0.0674966887417219	0.101933774834437	-2.0082119205298	1.45192052980132	0.222516556291392				0.527788079470199	-0.0308344370860927	-0.788238410596027	0.300397350993377	-0.962384105960265	-1.59470198675497			
38	880	-0.184158940397351	0.162754966887417	-0.935523178807947	0.0333774834437086	-0.144635761589404	-0.904900662251656				0.960953642384106	0.143788079470199	0.253139072847682	-0.686092715231788	-3.05218543046358	0.25403973509934				-0.186172185430464	-0.145271523178808	-0.87194701986755	-1.39258278145695	-0.973509933774833	-0.48026490066225				0.624529801324503	-0.288529801324503	-0.709721854304636	-0.317086092715232	1.0235761589404	1.34437086092715				0.980026490066225	0.0514966887417219	0.117933774834437	1.3517880794702	0.891920529801325	-0.617483443708608				0.527788079470199	-0.0308344370860927	-0.788238410596027	1.70039735099338	-0.682384105960265	-1.31470198675497			
39	900	-0.184158940397351	0.162754966887417	-0.951523178807947	0.873377483443709	0.135364238410596	-0.0649006622516557				0.992953642384106	0.159788079470199	0.237139072847682	1.55390728476821	-4.45218543046358	-0.30596026490066				-0.202172185430464	-0.145271523178808	-0.90394701986755	-1.11258278145695	-0.693509933774834	-0.48026490066225				0.624529801324503	-0.288529801324503	-0.677721854304636	-1.99708609271523	-0.0964238410596001	-0.0556291390728476				0.980026490066225	0.0674966887417219	0.117933774834437	1.3517880794702	0.611920529801325	0.222516556291392				0.543788079470199	-0.0468344370860927	-0.788238410596027	0.580397350993377	0.437615894039735	-0.754701986754968			
40	920	-0.184158940397351	0.146754966887417	-0.967523178807947	0.0333774834437086	0.695364238410596	-0.904900662251656				0.960953642384106	0.143788079470199	0.237139072847682	0.993907284768212	-1.93218543046358	0.53403973509934				-0.202172185430464	-0.161271523178808	-0.88794701986755	0.847417218543046	1.54649006622517	0.0797350993377501				0.608529801324503	-0.272529801324503	-0.677721854304636	-0.877086092715232	-0.9364238410596	-0.615629139072848				0.964026490066225	0.0674966887417219	0.133933774834437	1.0717880794702	-0.228079470198675	0.782516556291392				0.527788079470199	-0.0468344370860927	-0.788238410596027	0.300397350993377	1.27761589403974	-0.194701986754968			
41	940	-0.152158940397351	0.178754966887417	-0.935523178807947	-0.806622516556291	0.695364238410596	-1.46490066225166				0.960953642384106	0.143788079470199	0.221139072847682	-0.126092715231788	-1.65218543046358	0.53403973509934				-0.186172185430464	-0.145271523178808	-0.88794701986755	1.40741721854305	2.38649006622517	0.0797350993377501				0	0	0	0	0	0				0	0	0	0	0	0				0	0	0	0	0	0			
42	960	-0.168158940397351	0.162754966887417	-0.951523178807947	-0.246622516556291	0.415364238410596	-1.18490066225166				0	0	0	0	0	0				0	0	0	0	0	0				0	0	0	0	0	0				0	0	0	0	0	0				0	0	0	0	0	0			
43	1080	-0.168158940397351	0.146754966887417	-0.951523178807947	-0.246622516556291	-0.144635761589404	-0.624900662251656				0.960953642384106	0.143788079470199	0.237139072847682	-1.80609271523179	1.42781456953642	-0.585960264900661				-0.202172185430464	-0.145271523178808	-0.87194701986755	2.80741721854305	0.706490066225167	0.91973509933775				0.592529801324503	-0.288529801324503	-0.677721854304636	1.64291390728477	0.7435761589404	-2.85562913907285				0.948026490066225	0.0674966887417219	0.133933774834437	-0.888211920529802	0.611920529801325	-0.0574834437086077				0.527788079470199	-0.0468344370860927	-0.788238410596027	1.42039735099338	0.437615894039735	0.0852980132450323			
44	1100	-0.168158940397351	0.146754966887417	-0.951523178807947	0.313377483443709	0.135364238410596	-0.344900662251656				0.960953642384106	0.143788079470199	0.221139072847682	-0.966092715231788	3.94781456953642	-0.30596026490066				-0.202172185430464	-0.145271523178808	-0.88794701986755	0.847417218543046	0.706490066225167	2.03973509933775				0.608529801324503	-0.304529801324503	-0.693721854304636	2.48291390728477	1.3035761589404	-2.29562913907285				0.948026490066225	0.0674966887417219	0.133933774834437	-0.328211920529802	0.331920529801325	-0.337483443708608				0.543788079470199	-0.0308344370860927	-0.772238410596026	1.98039735099338	1.27761589403974	-0.194701986754968			
45	1120	-0.168158940397351	0.162754966887417	-0.935523178807947	-0.806622516556291	0.415364238410596	-1.18490066225166				0.976953642384106	0.143788079470199	0.237139072847682	-0.966092715231788	3.94781456953642	0.81403973509934				-0.202172185430464	-0.161271523178808	-0.90394701986755	1.96741721854305	-1.25350993377483	2.03973509933775				0.608529801324503	-0.304529801324503	-0.693721854304636	0.802913907284768	-0.0964238410596001	-2.29562913907285				0.964026490066225	0.0674966887417219	0.117933774834437	-0.0482119205298018	0.891920529801325	0.222516556291392				0.543788079470199	-0.0468344370860927	-0.788238410596027	-0.539602649006623	-0.402384105960265	-0.474701986754968			
46	1140	-0.168158940397351	0.162754966887417	-0.919523178807947	-0.526622516556291	0.135364238410596	-0.624900662251656				0.960953642384106	0.127788079470199	0.237139072847682	-0.686092715231788	3.38781456953642	1.65403973509934				-0.186172185430464	-0.145271523178808	-0.88794701986755	-0.272582781456954	-1.53350993377483	2.03973509933775				0.608529801324503	-0.304529801324503	-0.693721854304636	0.242913907284768	-1.2164238410596	-0.895629139072848				0.964026490066225	0.0834966887417219	0.117933774834437	-1.7282119205298	2.01192052980133	-0.0574834437086077				0.543788079470199	-0.0468344370860927	-0.804238410596027	0.300397350993377	-0.962384105960265	-0.194701986754968			
47	1160	-0.184158940397351	0.162754966887417	-0.951523178807947	0.873377483443709	-0.704635761589404	-0.904900662251656				0.976953642384106	0.143788079470199	0.237139072847682	-1.80609271523179	2.54781456953642	-0.0259602649006601				-0.186172185430464	-0.145271523178808	-0.88794701986755	3.36741721854305	1.26649006622517	0.91973509933775				0.592529801324503	-0.304529801324503	-0.693721854304636	1.92291390728477	-0.6564238410596	0.224370860927152				0.964026490066225	0.0674966887417219	0.117933774834437	-2.0082119205298	1.45192052980132	-0.897483443708608				0.543788079470199	-0.0308344370860927	-0.788238410596027	-0.259602649006623	-0.682384105960265	0.645298013245032			
48	1180	-0.184158940397351	0.162754966887417	-0.951523178807947	-1.08662251655629	-0.144635761589404	-1.18490066225166				0.976953642384106	0.143788079470199	0.237139072847682	-3.76609271523179	1.98781456953642	-0.30596026490066				-0.202172185430464	-0.161271523178808	-0.88794701986755	9.24741721854305	2.10649006622517	0.91973509933775				0.608529801324503	-0.304529801324503	-0.693721854304636	0.242913907284768	-0.6564238410596	1.34437086092715				0.948026490066225	0.0674966887417219	0.117933774834437	-1.4482119205298	2.29192052980133	-0.897483443708608				0.527788079470199	-0.0148344370860927	-0.788238410596027	0.0203973509933773	-0.402384105960265	1.48529801324503			
49	1200	-0.184158940397351	0.162754966887417	-0.951523178807947	-2.20662251655629	0.695364238410596	-1.46490066225166				0.944953642384106	0.127788079470199	0.221139072847682	-5.72609271523179	1.14781456953642	-0.585960264900661				-0.186172185430464	-0.161271523178808	-0.85594701986755	3.64741721854305	0.986490066225167	2.59973509933775				0.592529801324503	-0.304529801324503	-0.693721854304636	-2.55708609271523	-2.8964238410596	0.224370860927152				0.948026490066225	0.0674966887417219	0.117933774834437	-3.4082119205298	3.13192052980133	-0.0574834437086077				0.543788079470199	-0.0468344370860927	-0.788238410596027	2.54039735099338	-2.92238410596027	1.20529801324503			
50	1220	-0.168158940397351	0.162754966887417	-0.919523178807947	-1.92662251655629	0.415364238410596	-1.18490066225166				0.928953642384106	0.111788079470199	0.237139072847682	-6.84609271523179	3.38781456953642	-0.0259602649006601				-0.138172185430464	-0.145271523178808	-0.82394701986755	1.96741721854305	3.22649006622517	1.75973509933775				0.592529801324503	-0.304529801324503	-0.709721854304636	-3.11708609271523	-2.0564238410596	0.784370860927152				0.964026490066225	0.0514966887417219	0.117933774834437	-2.5682119205298	2.29192052980133	-0.337483443708608				0.543788079470199	-0.0468344370860927	-0.804238410596027	0.860397350993377	-4.32238410596027	2.32529801324503			
51	1240	-0.184158940397351	0.162754966887417	-0.935523178807947	-0.246622516556291	-0.704635761589404	-1.74490066225166				0.944953642384106	0.111788079470199	0.269139072847682	-8.80609271523179	6.18781456953642	-1.14596026490066				-0.138172185430464	-0.209271523178808	-0.87194701986755	10.927417218543	4.62649006622517	0.63973509933775				0.576529801324503	-0.288529801324503	-0.693721854304636	-2.83708609271523	-2.6164238410596	1.62437086092715				0.948026490066225	0.0674966887417219	0.101933774834437	-4.5282119205298	1.45192052980132	0.502516556291392				0.511788079470199	-0.0308344370860927	-0.788238410596027	0.580397350993377	-4.32238410596027	2.88529801324503			
52	1260	-0.200158940397351	0.146754966887417	-0.951523178807947	-0.526622516556291	-0.144635761589404	-2.30490066225166				0.960953642384106	0.159788079470199	0.221139072847682	-9.92609271523179	6.74781456953642	0.53403973509934				-0.890172185430464	-0.113271523178808	-0.77594701986755	25.2074172185431	7.14649006622517	-7.76026490066225				0.560529801324503	-0.288529801324503	-0.693721854304636	-2.83708609271523	-5.1364238410596	0.784370860927152				0.948026490066225	0.0674966887417219	0.117933774834437	-3.4082119205298	3.69192052980133	1.06251655629139				0.495788079470199	-0.0148344370860927	-0.804238410596027	0.860397350993377	-3.48238410596027	3.16529801324503			
53	1280	-0.184158940397351	0.146754966887417	-0.951523178807947	0.873377483443709	0.695364238410596	-1.74490066225166				0.944953642384106	0.159788079470199	0.189139072847682	-9.36609271523179	7.58781456953643	2.77403973509934				-0.186172185430464	-0.161271523178808	-0.87194701986755	28.0074172185431	4.34649006622517	0.0797350993377501				0.576529801324503	-0.288529801324503	-0.693721854304636	-3.39708609271523	-4.5764238410596	-0.615629139072848				0.932026490066225	0.0834966887417219	0.101933774834437	-4.8082119205298	4.81192052980133	-0.0574834437086077				0.495788079470199	-0.0148344370860927	-0.820238410596026	2.82039735099338	-4.04238410596027	2.88529801324503			
54	1300	-0.088158940397351	0.130754966887417	-0.935523178807947	-3.32662251655629	-2.1046357615894	4.13509933774834				0.928953642384106	0.127788079470199	0.205139072847682	-11.3260927152318	8.42781456953642	5.85403973509934				-0.266172185430464	-0.0652715231788079	-0.85594701986755	20.1674172185431	0.986490066225167	-2.44026490066225				0.560529801324503	-0.304529801324503	-0.725721854304636	-0.597086092715232	-2.6164238410596	-1.45562913907285				0.964026490066225	0.0674966887417219	0.101933774834437	-4.8082119205298	7.05192052980133	-0.0574834437086077				0.511788079470199	-0.0308344370860927	-0.852238410596026	5.06039735099338	-7.12238410596027	4.00529801324503			
55	1320	-0.168158940397351	0.146754966887417	-0.887523178807947	-8.92662251655629	-2.3846357615894	-0.624900662251656				1.02495364238411	0.207788079470199	0.205139072847682	-6.00609271523179	-4.17218543046358	3.33403973509934				-0.250172185430464	-0.177271523178808	-0.90394701986755	22.407417218543	-0.413509933774833	2.03973509933775				0.560529801324503	-0.304529801324503	-0.725721854304636	-0.0370860927152318	-1.4964238410596	-0.615629139072848				0.980026490066225	0.0834966887417219	0.0539337748344371	-6.4882119205298	6.77192052980133	-0.0574834437086077				0.511788079470199	-0.0148344370860927	-0.836238410596026	1.70039735099338	-11.6023841059603	5.68529801324503			
56	1340	-0.216158940397351	0.178754966887417	-0.951523178807947	-4.72662251655629	-2.3846357615894	0.495099337748344				1.00895364238411	0.159788079470199	0.173139072847682	4.35390728476821	-8.93218543046358	4.45403973509934				-0.218172185430464	-0.209271523178808	-0.95194701986755	24.3674172185431	-2.09350993377483	7.07973509933775				0.560529801324503	-0.304529801324503	-0.741721854304636	0.242913907284768	-5.4164238410596	-0.615629139072848				0.980026490066225	0.0834966887417219	0.0699337748344371	-3.6882119205298	9.01192052980133	1.62251655629139				0.479788079470199	-0.0148344370860927	-0.836238410596026	2.54039735099338	-9.36238410596027	6.24529801324503			
57	1360	-0.232158940397351	0.210754966887417	-0.951523178807947	-5.28662251655629	1.5353642384106	2.17509933774834				0.976953642384106	0.175788079470199	0.189139072847682	-0.406092715231788	-0.812185430463576	2.77403973509934				-0.218172185430464	-0.225271523178808	-0.96794701986755	25.767417218543	-0.973509933774833	7.91973509933775				0.544529801324503	-0.288529801324503	-0.757721854304636	-3.11708609271523	-9.6164238410596	-4.81562913907285				0.980026490066225	0.0674966887417219	0.0699337748344371	-2.5682119205298	12.0919205298013	2.18251655629139				0.479788079470199	-0.0468344370860927	-0.852238410596026	9.54039735099338	-4.88238410596027	10.445298013245			
58	1380	-0.168158940397351	0.194754966887417	-0.935523178807947	-3.04662251655629	3.4953642384106	2.73509933774834				1.00895364238411	0.127788079470199	0.285139072847682	-7.68609271523179	15.7078145695364	4.73403973509934				-0.170172185430464	-0.257271523178808	-0.88794701986755	6.44741721854305	4.62649006622517	6.79973509933775				0.544529801324503	-0.288529801324503	-0.741721854304636	-6.75708609271523	-9.3364238410596	-8.17562913907285				0.980026490066225	0.0834966887417219	0.0859337748344371	-6.2082119205298	12.9319205298013	3.02251655629139				0.431788079470199	-0.0788344370860927	-0.820238410596026	10.6603973509934	-1.52238410596026	19.125298013245			
59	1400	-0.136158940397351	0.194754966887417	-0.951523178807947	0.313377483443709	0.975364238410596	3.29509933774834				0.960953642384106	0.127788079470199	0.317139072847682	-8.24609271523179	17.3878145695364	9.21403973509934				-0.234172185430464	-0.193271523178808	-0.91994701986755	1.12741721854305	-1.25350993377483	7.07973509933775				0.560529801324503	-0.320529801324503	-0.757721854304636	-7.59708609271523	-4.0164238410596	-8.45562913907285				0.980026490066225	0.0994966887417219	0.0859337748344371	-6.4882119205298	13.2119205298013	1.90251655629139				0.447788079470199	-0.0308344370860927	-0.852238410596026	-0.819602649006623	0.997615894039735	26.685298013245			
60	1420	-0.120158940397351	0.194754966887417	-0.967523178807947	0.0333774834437086	0.415364238410596	1.05509933774834				1.00895364238411	0.127788079470199	0.253139072847682	-5.16609271523179	5.90781456953642	10.8940397350993				-0.202172185430464	-0.209271523178808	-0.93594701986755	-1.67258278145695	-3.77350993377483	9.87973509933775				0.528529801324503	-0.352529801324503	-0.789721854304636	-2.83708609271523	0.4635761589404	-6.77562913907285				0.948026490066225	0.0994966887417219	0.0859337748344371	-7.3282119205298	18.8119205298013	1.62251655629139				0.479788079470199	0.00116556291390731	-0.916238410596027	0.860397350993377	-3.20238410596026	29.485298013245			
61	1440	-0.184158940397351	0.194754966887417	-0.919523178807947	-1.36662251655629	-0.704635761589404	-2.30490066225166				0.992953642384106	0.111788079470199	0.237139072847682	-5.72609271523179	-3.33218543046358	12.8540397350993				-0.170172185430464	-0.145271523178808	-0.90394701986755	-11.192582781457	-4.89350993377483	9.31973509933775				0.544529801324503	-0.336529801324503	-0.805721854304636	-10.1170860927152	2.4235761589404	-5.65562913907285				0.996026490066225	0.0514966887417219	0.0859337748344371	-1.1682119205298	22.7319205298013	2.18251655629139				0.511788079470199	-0.0308344370860927	-0.900238410596026	13.1803973509934	-5.44238410596027	28.645298013245			
62	1460	-0.264158940397351	0.178754966887417	-0.919523178807947	3.11337748344371	0.975364238410596	-3.42490066225166				0.976953642384106	0.0957880794701987	0.237139072847682	-7.68609271523179	4.78781456953642	13.4140397350993				-0.186172185430464	-0.0812715231788079	-0.88794701986755	-14.552582781457	-1.81350993377483	3.15973509933775				0.528529801324503	-0.304529801324503	-0.757721854304636	-20.1970860927152	-3.4564238410596	-4.25562913907285				0.996026490066225	0.0514966887417219	0.0859337748344371	-4.2482119205298	21.6119205298013	4.42251655629139				0.511788079470199	-0.0788344370860927	-0.884238410596026	17.9403973509934	-4.04238410596027	33.125298013245			
63	1480	-0.248158940397351	0.194754966887417	-0.903523178807947	2.27337748344371	4.6153642384106	-2.58490066225166				0.960953642384106	0.127788079470199	0.221139072847682	-5.72609271523179	14.3078145695364	10.6140397350993				-0.234172185430464	-0.0812715231788079	-0.91994701986755	-10.912582781457	-1.53350993377483	1.47973509933775				0.496529801324503	-0.304529801324503	-0.741721854304636	-18.7970860927152	-6.5364238410596	-0.335629139072848				0.964026490066225	0.0354966887417219	0.133933774834437	-8.7282119205298	21.0519205298013	6.38251655629139				0.495788079470199	-0.0948344370860927	-0.852238410596026	18.7803973509934	-3.76238410596027	36.485298013245			
64	1500	-0.184158940397351	0.178754966887417	-0.935523178807947	-1.36662251655629	7.9753642384106	-2.02490066225166				0.992953642384106	0.191788079470199	0.189139072847682	-4.60609271523179	14.0278145695364	5.29403973509934				-0.250172185430464	-0.145271523178808	-0.95194701986755	-12.312582781457	1.82649006622517	5.11973509933775				0.512529801324503	-0.320529801324503	-0.741721854304636	-12.0770860927152	-3.4564238410596	4.14437086092715				0.932026490066225	0.0514966887417219	0.165933774834437	-9.2882119205298	20.7719205298013	6.38251655629139				0.511788079470199	-0.126834437086093	-0.820238410596026	12.6203973509934	-2.92238410596027	39.285298013245			
65	1520	-0.136158940397351	0.178754966887417	-0.951523178807947	1.71337748344371	4.8953642384106	1.05509933774834				0.976953642384106	0.175788079470199	0.269139072847682	-7.40609271523179	23.8278145695364	7.53403973509934				-0.234172185430464	-0.177271523178808	-0.91994701986755	-30.232582781457	3.78649006622517	7.07973509933775				0.528529801324503	-0.336529801324503	-0.757721854304636	-15.7170860927152	-0.6564238410596	7.22437086092715				0.980026490066225	0.0514966887417219	0.165933774834437	-10.4082119205298	21.3319205298013	4.42251655629139				0.543788079470199	-0.174834437086093	-0.804238410596027	10.3803973509934	-6.84238410596027	41.805298013245			
66	1540	-0.120158940397351	0.146754966887417	-0.951523178807947	3.67337748344371	1.5353642384106	1.89509933774834				0.960953642384106	0.127788079470199	0.269139072847682	-5.72609271523179	25.7878145695364	10.8940397350993				-0.218172185430464	-0.145271523178808	-0.91994701986755	-42.552582781457	2.38649006622517	6.79973509933775				0.544529801324503	-0.336529801324503	-0.773721854304636	-21.3170860927152	1.5835761589404	10.8643708609272				0.980026490066225	0.0514966887417219	0.149933774834437	-15.4482119205298	21.8919205298013	4.14251655629139				0.527788079470199	-0.142834437086093	-0.804238410596027	4.22039735099338	-6.28238410596027	44.605298013245			
67	1560	-0.168158940397351	0.146754966887417	-0.919523178807947	2.83337748344371	0.695364238410596	1.89509933774834				0.960953642384106	0.191788079470199	0.253139072847682	1.27390728476821	24.1078145695364	11.1740397350993				-0.202172185430464	-0.129271523178808	-0.90394701986755	-49.832582781457	0.146490066225167	4.27973509933775				0.528529801324503	-0.336529801324503	-0.789721854304636	-23.2770860927152	5.5035761589404	19.5443708609272				0.964026490066225	0.0514966887417219	0.165933774834437	-17.4082119205298	22.1719205298013	3.30251655629139				0.495788079470199	-0.126834437086093	-0.836238410596026	3.38039735099338	-4.32238410596027	44.605298013245			
68	1580	-0.184158940397351	0.162754966887417	-0.935523178807947	3.67337748344371	3.4953642384106	2.17509933774834				0.944953642384106	0.191788079470199	0.253139072847682	6.59390728476821	22.4278145695364	13.9740397350993				-0.282172185430464	-0.129271523178808	-0.91994701986755	-53.472582781457	-2.09350993377483	1.75973509933775				0.560529801324503	-0.368529801324503	-0.789721854304636	-16.8370860927152	5.2235761589404	30.7443708609272				0.948026490066225	0.0674966887417219	0.149933774834437	-19.0882119205298	23.0119205298013	2.18251655629139				0.479788079470199	-0.0948344370860927	-0.884238410596026	7.58039735099338	-6.84238410596027	42.925298013245			
69	1600	-0.136158940397351	0.178754966887417	-0.951523178807947	3.67337748344371	2.9353642384106	3.57509933774835				0.976953642384106	0.0957880794701987	0.269139072847682	11.9139072847682	20.4678145695364	19.2940397350993				-0.250172185430464	0.0467284768211921	-0.99994701986755	-64.672582781457	-4.05350993377483	-4.12026490066225				0.624529801324503	-0.352529801324503	-0.789721854304636	-21.8770860927152	-3.1764238410596	37.1843708609272				0.964026490066225	0.0674966887417219	0.181933774834437	-17.1282119205298	26.9319205298013	3.02251655629139				0.479788079470199	-0.110834437086093	-0.900238410596026	10.6603973509934	-14.4023841059603	43.485298013245			
70	1620	-0.136158940397351	0.162754966887417	-0.951523178807947	2.55337748344371	1.5353642384106	3.85509933774834				1.04095364238411	0.0317880794701987	0.269139072847682	1.83390728476821	12.3478145695364	13.6940397350993				-0.170172185430464	0.0947284768211921	-1.06394701986755	-64.952582781457	-13.0135099337748	-12.2402649006623				0.672529801324503	-0.352529801324503	-0.805721854304636	-31.3970860927152	-19.1364238410596	46.9843708609272				1.01202649006623	0.0354966887417219	0.165933774834437	-13.2082119205298	23.0119205298013	4.14251655629139				0.479788079470199	-0.110834437086093	-0.932238410596026	14.3003973509934	-19.4423841059603	44.885298013245			
71	1640	-0.184158940397351	0.130754966887417	-0.951523178807947	0.593377483443709	3.2153642384106	3.01509933774834				0.992953642384106	0.0957880794701987	0.125139072847682	-3.48609271523179	2.82781456953642	5.01403973509934				-0.282172185430464	0.0147284768211921	-0.95194701986755	-56.272582781457	-62.2935099337748	-23.1602649006623				0.768529801324503	-0.304529801324503	-0.805721854304636	-34.7570860927152	-30.0564238410596	55.1043708609272				1.02802649006623	0.0354966887417219	0.229933774834437	-14.8882119205298	17.4119205298013	6.66251655629139				0.479788079470199	-0.110834437086093	-1.02823841059603	9.26039735099338	-25.8823841059603	43.765298013245			
72	1660	-0.152158940397351	0.162754966887417	-0.935523178807947	-1.36662251655629	2.0953642384106	2.45509933774835				0.960953642384106	0.111788079470199	0.157139072847682	4.07390728476821	11.2278145695364	18.4540397350993				-0.186172185430464	-0.145271523178808	-0.79194701986755	-27.432582781457	-127.813509933775	-3.56026490066225				1.0725298013245	-0.352529801324503	-0.789721854304636	-18.5170860927152	-42.0964238410596	63.2243708609272				1.04402649006623	0.147496688741722	0.245933774834437	-14.0482119205298	9.85192052980133	10.0225165562914				0.479788079470199	-0.0948344370860927	-1.14023841059603	4.22039735099338	-34.5623841059603	43.205298013245			
73	1680	-0.200158940397351	0.146754966887417	-0.951523178807947	-2.48662251655629	1.8153642384106	1.05509933774834				0.928953642384106	-0.112211920529801	0.269139072847682	-0.126092715231788	33.3478145695364	36.3740397350993				-0.346172185430464	-0.0652715231788079	-0.58394701986755	31.927417218543	2.38649006622517	-22.8802649006623				1.2645298013245	-0.352529801324503	-0.805721854304636	-21.0370860927152	-51.8964238410596	66.5843708609272				1.06002649006623	0.195496688741722	0.309933774834437	4.7117880794702	7.61192052980133	13.6625165562914				0.431788079470199	-0.158834437086093	-1.12423841059603	9.54039735099338	-69.0023841059603	43.485298013245			
74	1700	-0.264158940397351	0.130754966887417	-0.967523178807947	-1.92662251655629	2.3753642384106	-1.18490066225166				1.05695364238411	0.0637880794701987	0.381139072847682	-31.7660927152318	49.8678145695364	24.6140397350993				-0.330172185430464	-0.113271523178808	-0.82394701986755	6.44741721854305	-9.09350993377483	-27.9202649006623				0.976529801324503	-0.288529801324503	-0.917721854304636	-28.8770860927152	-72.6164238410596	61.2643708609272				1.09202649006623	0.115496688741722	0.325933774834437	42.7917880794702	1.45192052980132	15.6225165562914				0.335788079470199	-0.206834437086093	-1.17223841059603	-8.37960264900662	-93.3623841059603	46.565298013245			
75	1720	-0.280158940397351	0.146754966887417	-0.999523178807947	-4.16662251655629	2.9353642384106	-2.02490066225166				1.08895364238411	0.287788079470199	0.333139072847682	-74.6060927152318	56.5878145695364	22.9340397350993				-0.378172185430464	-0.225271523178808	-0.88794701986755	4.48741721854305	-2.09350993377483	-17.5602649006623				0.608529801324503	-0.336529801324503	-1.02972185430464	-33.0770860927152	-93.8964238410596	52.8643708609272				1.18802649006623	0.0514966887417219	0.229933774834437	53.7117880794702	-9.18807947019868	10.0225165562914				0.335788079470199	-0.222834437086093	-1.09223841059603	-18.1796026490066	-105.96238410596	47.125298013245			
76	1740	-0.344158940397351	0.194754966887417	-0.999523178807947	-6.68662251655629	7.9753642384106	0.215099337748344				1.18495364238411	0.207788079470199	0.509139072847682	-72.6460927152318	81.5078145695364	45.6140397350993				-0.394172185430464	-0.257271523178808	-0.82394701986755	-3.07258278145695	6.58649006622517	-10.8402649006623				0.400529801324503	-0.336529801324503	-1.09372185430464	-39.7970860927152	-117.41642384106	35.5043708609272				1.15602649006623	0.00349668874172187	0.197933774834437	47.8317880794702	-15.0680794701987	1.34251655629139				0.335788079470199	-0.286834437086093	-0.996238410596026	-22.3796026490066	-120.24238410596	46.005298013245			
77	1760	-0.328158940397351	0.226754966887417	-0.967523178807947	-6.40662251655629	11.8953642384106	1.61509933774834				1.18495364238411	0.127788079470199	0.557139072847682	27.8739072847682	52.6678145695364	54.0140397350993				-0.426172185430464	-0.209271523178808	-0.85594701986755	1.12741721854305	5.74649006622517	-2.44026490066225				0.192529801324503	-0.256529801324503	-1.01372185430464	-73.6770860927152	-136.17642384106	-4.25562913907285				1.06002649006623	0.00349668874172187	0.213933774834437	53.9917880794702	0.891920529801325	-2.29748344370861				0.367788079470199	-0.254834437086093	-0.948238410596026	-28.2596026490066	-106.80238410596	42.925298013245			
78	1780	-0.312158940397351	0.178754966887417	-0.983523178807947	-6.68662251655629	10.2153642384106	5.81509933774834				1.00895364238411	0.223788079470199	0.173139072847682	77.1539072847682	-17.6121854304636	50.3740397350993				-0.490172185430464	-0.113271523178808	-0.82394701986755	0.847417218543046	6.58649006622517	6.23973509933775				0.160529801324503	-0.128529801324503	-0.757721854304636	-105.877086092715	-116.01642384106	-29.1756291390729				1.20402649006623	-0.0445033112582781	0.117933774834437	44.7517880794702	5.65192052980133	-4.53748344370861				0.255788079470199	-0.190834437086093	-1.06023841059603	-2.21960264900662	-90.5623841059603	32.565298013245			
79	1800	-0.312158940397351	0.130754966887417	-1.09552317880795	-24.6066225165563	23.0953642384106	7.77509933774834				0.992953642384106	-0.0482119205298013	0.397139072847682	-26.4460927152318	10.3878145695364	34.9740397350993				-0.506172185430464	-0.0492715231788079	-1.01594701986755	0.00741721854304636	22.2664900662252	10.7197350993378				0.304529801324503	-0.0165298013245033	-0.661721854304636	-52.6770860927152	-90.8164238410596	-26.3756291390728				1.18802649006623	-0.0765033112582781	0.245933774834437	39.9917880794702	-13.3880794701987	-13.7774834437086				0.415788079470199	0.0491655629139073	-0.980238410596026	25.7803973509934	-79.3623841059603	9.60529801324503			
80	1820	-0.376158940397351	0.130754966887417	-0.951523178807947	-33.0066225165563	50.5353642384106	8.05509933774835				0.992953642384106	-0.224211920529801	0.397139072847682	-26.7260927152318	42.0278145695364	13.9740397350993				-0.490172185430464	-0.0332715231788079	-1.36794701986755	26.3274172185431	56.9864900662252	12.6797350993378				0.512529801324503	-0.000529801324503289	-0.661721854304636	8.08291390728477	-71.4964238410596	-9.57562913907285				1.02802649006623	0.147496688741722	0.469933774834437	44.1917880794702	-27.1080794701987	-6.21748344370861				0.367788079470199	-0.110834437086093	-1.01223841059603	67.2203973509934	-109.88238410596	-5.79470198675497			
81	1840	-0.328158940397351	0.370754966887417	-0.775523178807947	-24.3266225165563	51.0953642384106	6.09509933774834				1.08895364238411	-0.240211920529801	0.541139072847682	27.0339072847682	57.9878145695364	0.25403973509934				-0.314172185430464	-0.0172715231788079	-1.01594701986755	41.1674172185431	51.6664900662252	5.67973509933775				0.304529801324503	-0.112529801324503	-0.997721854304636	48.6829139072848	-56.9364238410596	17.0243708609272				1.06002649006623	0.131496688741722	0.453933774834437	58.4717880794702	-24.5880794701987	11.4225165562914				0.207788079470199	-0.590834437086093	-1.06023841059603	94.3803973509934	-105.96238410596	-2.71470198675497			
82	1860	-0.392158940397351	0.258754966887417	-0.935523178807947	-33.5666225165563	50.2553642384106	16.1750993377483				1.29695364238411	0.127788079470199	0.669139072847682	-22.8060927152318	17.3878145695364	6.13403973509934				-0.330172185430464	-0.129271523178808	-0.71194701986755	1.40741721854305	51.3864900662252	5.67973509933775				0.336529801324503	-0.400529801324503	-1.34972185430464	54.2829139072848	-50.4964238410596	8.90437086092715				1.20402649006623	0.0354966887417219	0.501933774834437	51.1917880794702	-18.1480794701987	9.74251655629139				0.431788079470199	-0.718834437086093	-0.980238410596026	38.6603973509934	-82.1623841059603	24.445298013245			
83	1880	-0.152158940397351	0.226754966887417	-1.20752317880795	-8.64662251655629	48.5753642384106	22.3350993377483				1.26495364238411	0.143788079470199	0.813139072847682	-62.5660927152318	-2.77218543046358	6.13403973509934				-0.426172185430464	0.0147284768211921	-0.99994701986755	-15.112582781457	55.8664900662252	-0.20026490066225				0.592529801324503	-0.400529801324503	-1.34972185430464	25.4429139072848	-32.5764238410596	5.82437086092715				1.36402649006623	0.0194966887417219	0.581933774834437	41.1117880794702	-17.0280794701987	-2.57748344370861				0.415788079470199	-0.878834437086093	-0.916238410596027	-15.3796026490066	-73.4823841059603	40.965298013245			
84	1900	0.007841059602649	0.242754966887417	-1.17552317880795	-3.88662251655629	60.0553642384106	29.0550993377483				1.23295364238411	-0.0322119205298013	1.00513907284768	4.07390728476821	-16.7721854304636	3.05403973509934				-0.314172185430464	0.0147284768211921	-1.11194701986755	10.367417218543	69.3064900662252	4.27973509933775				0.368529801324503	-0.304529801324503	-1.04572185430464	-8.71708609271523	-28.6564238410596	-9.85562913907285				1.23602649006623	0.163496688741722	0.549933774834437	15.6317880794702	-23.4680794701987	-9.01748344370861				0.431788079470199	-0.654834437086093	-1.01223841059603	-59.0596026490066	-50.8023841059603	39.565298013245			
85	1920	-0.056158940397351	0.370754966887417	-1.06352317880795	5.07337748344371	67.6153642384106	32.9750993377484				1.20095364238411	-0.160211920529801	0.845139072847682	95.6339072847682	-19.5721854304636	1.93403973509934				-0.122172185430464	-0.0332715231788079	-1.06394701986755	2.52741721854305	74.6264900662252	3.43973509933775				0.384529801324503	-0.0485298013245033	-1.14172185430464	-26.9170860927152	-27.2564238410596	-27.4956291390729				1.10802649006623	0.211496688741722	0.405933774834437	16.7517880794702	-2.18807947019868	-5.37748344370861				0.287788079470199	-0.238834437086093	-1.02823841059603	-44.2196026490066	-36.2423841059603	25.005298013245			
86	1940	-0.168158940397351	0.338754966887417	-1.11152317880795	1.15337748344371	83.5753642384106	27.9350993377483				1.13695364238411	-0.144211920529801	0.605139072847682	55.3139072847682	-41.9721854304636	-3.66596026490066				-0.314172185430464	-0.241271523178808	-1.09594701986755	-7.55258278145695	82.7464900662252	1.75973509933775				0.464529801324503	-0.160529801324503	-1.01372185430464	-23.2770860927152	-11.2964238410596	-27.7756291390729				1.23602649006623	0.115496688741722	0.357933774834437	31.8717880794702	3.69192052980133	0.222516556291392				0.0637880794701987	-0.126834437086093	-0.900238410596026	2.26039735099338	-32.3223841059603	4.84529801324503			
87	1960	-0.104158940397351	0.370754966887417	-1.03152317880795	7.31337748344371	90.8553642384106	16.7350993377483				1.05695364238411	0.0157880794701987	0.653139072847682	10.2339072847682	-41.1321854304636	-8.14596026490066				-0.154172185430464	-0.289271523178808	-1.04794701986755	-33.032582781457	93.9464900662252	3.71973509933775				0.192529801324503	-0.224529801324503	-1.01372185430464	6.40291390728477	17.5435761589404	-23.0156291390729				1.22002649006623	0.0354966887417219	0.453933774834437	14.7917880794702	-5.54807947019868	-3.13748344370861				0.0797880794701987	-0.270834437086093	-0.900238410596026	35.0203973509934	-24.4823841059603	-18.394701986755			
88	2100	0	0	0	0	0	0				0	0	0	0	0	0				0.357827814569536	0.0147284768211921	-0.82394701986755	-3.35258278145695	138.746490066225	13.5197350993378				0.512529801324503	-0.288529801324503	-0.869721854304636	40.0029139072848	97.9035761589404	-14.6156291390728				1.02802649006623	0.131496688741722	0.181933774834437	-38.1282119205298	-1.06807947019868	1.90251655629139				0.223788079470199	-0.238834437086093	-0.916238410596027	0.300397350993377	86.6776158940397	-38.834701986755			
89	2120	0.487841059602649	0.0667549668874172	-0.903523178807947	5.35337748344371	129.215364238411	27.0950993377483				1.05695364238411	0.271788079470199	0.0451390728476822	23.9539072847682	-72.7721854304636	-25.2259602649007				0.405827814569536	0.0307284768211921	-0.80794701986755	-1.39258278145695	132.586490066225	10.1597350993378				0.544529801324503	-0.304529801324503	-0.789721854304636	42.2429139072848	100.70357615894	-17.4156291390728				1.07602649006623	0.0834966887417219	0.117933774834437	-31.4082119205298	-1.62807947019868	6.94251655629139				0.255788079470199	-0.222834437086093	-0.900238410596026	-20.1396026490066	99.5576158940397	-36.874701986755			
90	2140	0.535841059602649	0.0187549668874172	-0.823523178807947	1.43337748344371	136.775364238411	31.0150993377483				1.04095364238411	0.159788079470199	0.301139072847682	8.55390728476821	-75.5721854304636	-16.8259602649007				0.405827814569536	0.0467284768211921	-0.80794701986755	-0.272582781456954	129.506490066225	7.63973509933775				0.592529801324503	-0.304529801324503	-0.757721854304636	43.6429139072848	95.9435761589404	-12.6556291390728				1.02802649006623	0.115496688741722	0.133933774834437	-50.4482119205298	-23.4680794701987	-4.81748344370861				0.287788079470199	-0.222834437086093	-0.820238410596026	-32.4596026490066	116.07761589404	-37.714701986755			
91	2160	0.551841059602649	0.114754966887417	-0.791523178807947	-4.44662251655629	143.495364238411	31.8550993377483				0.992953642384106	-0.0962119205298013	0.381139072847682	-11.3260927152318	-68.5721854304636	-4.50596026490066				0.453827814569536	0.0787284768211921	-0.79194701986755	13.727417218543	126.426490066225	5.67973509933775				0.592529801324503	-0.368529801324503	-0.725721854304636	40.5629139072848	88.3835761589404	-0.615629139072848				0.932026490066225	0.131496688741722	0.165933774834437	-52.4082119205298	-30.7480794701987	-3.69748344370861				0.303788079470199	-0.174834437086093	-0.756238410596026	-43.0996026490066	126.99761589404	-37.714701986755			
92	2180	0.535841059602649	0.114754966887417	-0.727523178807947	-4.72662251655629	150.495364238411	30.1750993377483				1.00895364238411	-0.160211920529801	0.0931390728476822	-15.2460927152318	-63.5321854304636	4.45403973509934				0.485827814569536	0.0307284768211921	-0.74394701986755	21.8474172185431	125.586490066225	2.87973509933775				0.592529801324503	-0.384529801324503	-0.677721854304636	28.8029139072848	79.4235761589404	11.9843708609272				0.916026490066225	0.0354966887417219	0.133933774834437	-20.2082119205298	-27.1080794701987	6.10251655629139				0.319788079470199	-0.142834437086093	-0.788238410596027	-56.5396026490066	132.31761589404	-36.314701986755			
93	2200	0.567841059602649	0.0507549668874172	-0.679523178807947	-0.806622516556291	149.935364238411	30.4550993377483				0.976953642384106	0.111788079470199	-0.0668609271523178	-24.2060927152318	-55.6921854304636	1.37403973509934				0.453827814569536	-0.00127152317880793	-0.67994701986755	15.407417218543	127.546490066225	0.63973509933775				0.368529801324503	-0.496529801324503	-0.693721854304636	26.8429139072848	75.2235761589404	20.3843708609272				0.900026490066225	-0.0925033112582781	0.0699337748344371	-23.5682119205298	-38.0280794701987	8.06251655629139				0.415788079470199	-0.126834437086093	-0.788238410596027	-68.8596026490066	128.39761589404	-33.234701986755			
94	2220	0.679841059602649	0.0187549668874172	-0.663523178807947	-3.04662251655629	144.615364238411	28.4950993377483				0.880953642384106	0.271788079470199	-0.0668609271523178	-11.0460927152318	-69.4121854304636	-2.26596026490066				0.469827814569536	-0.0332715231788079	-0.63194701986755	11.487417218543	129.786490066225	3.43973509933775				0.352529801324503	-0.496529801324503	-0.677721854304636	22.3629139072848	73.2635761589404	13.9443708609272				0.820026490066225	-0.0445033112582781	0.0219337748344371	-48.7682119205298	-46.4280794701987	2.74251655629139				0.479788079470199	-0.174834437086093	-0.756238410596026	-77.2596026490066	131.75761589404	-25.394701986755			
95	2240	0.759841059602649	0.0347549668874172	-0.567523178807947	-14.8066225165563	141.815364238411	25.6950993377483				0.800953642384106	0.0637880794701987	0.0931390728476822	11.9139072847682	-89.5721854304636	-0.585960264900661				0.613827814569536	-0.0172715231788079	-0.58394701986755	1.68741721854305	136.226490066225	5.67973509933775				0.416529801324503	-0.448529801324503	-0.629721854304636	10.8829139072848	71.8635761589404	13.9443708609272				0.772026490066225	-0.0125033112582781	-0.0100662251655629	-55.4882119205298	-41.3880794701987	1.34251655629139				0.543788079470199	-0.126834437086093	-0.788238410596027	-75.2996026490066	126.43761589404	-20.914701986755			
96	2260	0.759841059602649	0.0347549668874172	-0.519523178807947	-16.7666225165563	137.335364238411	23.7350993377483				0.688953642384106	-0.160211920529801	0.0611390728476822	16.9539072847682	-69.6921854304636	-0.30596026490066				0.549827814569536	0.0147284768211921	-0.56794701986755	-8.39258278145695	136.506490066225	1.75973509933775				0.432529801324503	-0.432529801324503	-0.549721854304636	12.8429139072848	67.6635761589404	24.5843708609272				0.740026490066225	-0.0445033112582781	0.0539337748344371	-46.8082119205298	-31.8680794701987	1.62251655629139				0.527788079470199	-0.0468344370860927	-0.772238410596026	-51.7796026490066	107.67761589404	-23.154701986755			
97	2280	0.695841059602649	0.0987549668874172	-0.439523178807947	-16.7666225165563	132.575364238411	24.5750993377483				0.656953642384106	-0.128211920529801	-0.00286092715231785	5.47390728476821	-38.0521854304636	-3.38596026490066				0.597827814569536	0.0147284768211921	-0.48794701986755	-11.752582781457	144.906490066225	-0.76026490066225				0.480529801324503	-0.288529801324503	-0.501721854304636	16.4829139072848	53.3835761589404	18.9843708609272				0.740026490066225	-0.0765033112582781	0.0699337748344371	-41.4882119205298	-34.1080794701987	4.14251655629139				0.415788079470199	0.0171655629139073	-0.788238410596027	-50.0996026490066	88.3576158940397	-23.714701986755			
98	2300	0.647841059602649	0.114754966887417	-0.423523178807947	-8.36662251655629	127.815364238411	27.6550993377483				0.608953642384106	0.0637880794701987	0.0771390728476822	-7.96609271523179	-16.4921854304636	-10.1059602649007				0.613827814569536	0.0147284768211921	-0.50394701986755	-11.472582781457	144.626490066225	-4.12026490066225				0.544529801324503	-0.256529801324503	-0.469721854304636	3.32291390728477	34.3435761589404	13.3843708609272				0.708026490066225	0.0194966887417219	0.0219337748344371	-47.9282119205298	-41.3880794701987	7.50251655629139				0.367788079470199	0.0491655629139073	-0.756238410596026	-43.6596026490066	78.2776158940397	-17.274701986755			
99	2320	0.695841059602649	0.0987549668874172	-0.407523178807947	5.63337748344371	127.535364238411	23.4550993377483				0.640953642384106	0.0957880794701987	-0.0188609271523178	4.07390728476821	-31.0521854304636	-19.0659602649007				0.613827814569536	0.0307284768211921	-0.47194701986755	-2.51258278145695	143.506490066225	-10.5602649006623				0.576529801324503	-0.256529801324503	-0.437721854304636	10.6029139072848	19.5035761589404	12.2643708609272				0.628026490066225	0.0994966887417219	0.00593377483443711	-39.2482119205298	-43.3480794701987	8.90251655629139				0.335788079470199	0.0491655629139073	-0.692238410596026	-47.8596026490066	67.3576158940397	-8.87470198675497			
100	2340	0.695841059602649	0.114754966887417	-0.375523178807947	9.83337748344371	126.695364238411	15.3350993377483				0.656953642384106	0.0477880794701987	0.0451390728476822	-9.92609271523179	-40.2921854304636	-6.74596026490066				0.629827814569536	0.0467284768211921	-0.40794701986755	-8.39258278145695	142.386490066225	-10.2802649006622				0.560529801324503	-0.320529801324503	-0.437721854304636	-3.95708609271523	0.1835761589404	12.5443708609272				0.580026490066225	0.0994966887417219	0.0219337748344371	-26.9282119205298	-32.4280794701987	7.78251655629139				0.367788079470199	0.113165562913907	-0.692238410596026	-45.6196026490066	48.3176158940397	-5.23470198675497			
101	2360	0.615841059602649	0.114754966887417	-0.391523178807947	8.43337748344371	125.575364238411	16.4550993377483				0.656953642384106	0.0157880794701987	0.0291390728476822	-13.2860927152318	-24.0521854304636	5.01403973509934				0.565827814569536	-0.0652715231788079	-0.37594701986755	-12.872582781457	134.266490066225	-8.32026490066225				0.544529801324503	-0.304529801324503	-0.437721854304636	-16.2770860927152	-16.3364238410596	9.46437086092715				0.612026490066225	0.0514966887417219	0.0219337748344371	-16.5682119205298	-28.5080794701987	8.34251655629139				0.399788079470199	0.0971655629139073	-0.628238410596026	-31.6196026490066	31.5176158940397	-2.15470198675497			
102	2380	0.599841059602649	0.0987549668874172	-0.375523178807947	18.2333774834437	119.975364238411	13.9350993377483				0.512953642384106	0.0957880794701987	0.0131390728476822	-2.64609271523179	-26.0121854304636	8.93403973509934				0.613827814569536	-0.0652715231788079	-0.34394701986755	-12.312582781457	134.266490066225	-13.3602649006623				0.480529801324503	-0.256529801324503	-0.389721854304636	-24.6770860927152	-19.1364238410596	10.0243708609272				0.612026490066225	0.0834966887417219	0.00593377483443711	-16.2882119205298	-30.7480794701987	7.22251655629139				0.367788079470199	0.113165562913907	-0.596238410596026	-19.8596026490066	12.1976158940397	2.88529801324503			
103	2400	0.727841059602649	0.114754966887417	-0.343523178807947	16.8333774834437	111.575364238411	11.9750993377483				0.464953642384106	0.159788079470199	-0.00286092715231785	10.5139072847682	-28.8121854304636	3.89403973509934				0.645827814569536	-0.0972715231788079	-0.35994701986755	-2.23258278145695	134.266490066225	-10.0002649006623				0.432529801324503	-0.208529801324503	-0.373721854304636	-23.8370860927152	-27.2564238410596	10.3043708609272				0.564026490066225	0.0514966887417219	0.00593377483443711	-10.9682119205298	-30.1880794701987	6.10251655629139				0.351788079470199	0.0811655629139073	-0.548238410596027	-20.4196026490066	-3.48238410596027	2.88529801324503			
104	2420	0.727841059602649	0.0827549668874172	-0.375523178807947	15.4333774834437	102.615364238411	9.73509933774834				0.544953642384106	0.0797880794701987	0.0451390728476822	6.31390728476821	-32.4521854304636	-3.10596026490066				0.629827814569536	-0.0812715231788079	-0.39194701986755	-5.03258278145695	116.346490066225	-4.96026490066225				0.352529801324503	-0.144529801324503	-0.293721854304636	-12.9170860927152	-25.0164238410596	10.8643708609272				0.564026490066225	0.0194966887417219	0.0699337748344371	-5.3682119205298	-25.9880794701987	5.26251655629139				0.335788079470199	0.0171655629139073	-0.468238410596026	-17.6196026490066	-8.24238410596027	3.44529801324503			
105	2440	0.791841059602649	0.0187549668874172	-0.343523178807947	22.4333774834437	99.2553642384106	8.89509933774834				0.672953642384106	0.0477880794701987	0.0611390728476822	-5.72609271523179	-26.5721854304636	0.25403973509934				0.805827814569536	-0.0972715231788079	-0.35994701986755	-20.152582781457	101.786490066225	4.55973509933775				0.336529801324503	-0.192529801324503	-0.325721854304636	3.60291390728477	-16.6164238410596	11.9843708609272				0.612026490066225	0.00349668874172187	0.0699337748344371	-0.888211920529802	-28.2280794701987	5.26251655629139				0.399788079470199	-0.0148344370860927	-0.468238410596026	-17.0596026490066	-13.2823841059603	5.40529801324503			
106	2460	0.871841059602649	-0.0292450331125828	-0.343523178807947	20.4733774834437	84.4153642384106	12.2550993377483				0.736953642384106	-0.000211920529801304	0.0611390728476822	-9.36609271523179	-9.49218543046358	2.21403973509934				0.805827814569536	-0.129271523178808	-0.42394701986755	-26.592582781457	86.9464900662252	10.4397350993378				0.432529801324503	-0.240529801324503	-0.341721854304636	14.8029139072848	-9.0564238410596	15.3443708609272				0.692026490066225	-0.0125033112582781	0.0379337748344371	-5.9282119205298	-31.0280794701987	3.58251655629139				0.479788079470199	0.0171655629139073	-0.532238410596027	-6.97960264900662	-16.9223841059603	5.40529801324503			
107	2480	0.839841059602649	-0.0932450331125828	-0.359523178807947	5.63337748344371	78.2553642384106	15.8950993377483				0.784953642384106	0.0477880794701987	0.0771390728476822	-0.686092715231788	0.587814569536424	-5.34596026490066				0.837827814569536	-0.113271523178808	-0.43994701986755	-23.512582781457	71.2664900662252	15.4797350993378				0.480529801324503	-0.288529801324503	-0.437721854304636	25.1629139072848	-4.8564238410596	17.8643708609272				0.756026490066225	0.00349668874172187	0.0379337748344371	-4.8082119205298	-32.4280794701987	4.42251655629139				0.495788079470199	0.0491655629139073	-0.516238410596026	2.54039735099338	-15.8023841059603	2.04529801324503			
108	2500	0.775841059602649	-0.0132450331125828	-0.327523178807947	-6.12662251655629	75.1753642384106	20.6550993377483				0.720953642384106	0.0317880794701987	0.0291390728476822	-1.80609271523179	-7.25218543046358	-3.94596026490066				0.885827814569536	-0.0972715231788079	-0.42394701986755	-20.432582781457	54.4664900662252	19.6797350993378				0.512529801324503	-0.336529801324503	-0.469721854304636	21.8029139072848	1.0235761589404	19.2643708609272				0.788026490066225	-0.0125033112582781	0.0539337748344371	3.0317880794702	-29.0680794701987	4.70251655629139				0.527788079470199	0.0811655629139073	-0.580238410596026	-2.21960264900662	-7.68238410596027	-6.35470198675497			
109	2520	0.871841059602649	-0.0292450331125828	-0.263523178807947	7.03337748344371	73.7753642384106	15.0550993377483				0.864953642384106	-0.000211920529801304	0.0611390728476822	-12.4460927152318	-6.97218543046358	-5.34596026490066				0.933827814569536	-0.0492715231788079	-0.39194701986755	-25.192582781457	48.0264900662252	24.4397350993378				0.560529801324503	-0.384529801324503	-0.485721854304636	21.5229139072848	3.8235761589404	18.9843708609272				0.836026490066225	-0.0125033112582781	0.0539337748344371	0.231788079470198	-25.9880794701987	4.98251655629139				0.575788079470199	0.0171655629139073	-0.612238410596026	0.860397350993377	-4.88238410596027	-7.47470198675497			
110	2540	0.999841059602649	-0.0772450331125828	-0.247523178807947	3.11337748344371	64.5353642384106	11.6950993377483				0.992953642384106	-0.000211920529801304	0.0931390728476822	-22.8060927152318	-0.532185430463576	-3.94596026490066				0.933827814569536	-0.00127152317880793	-0.34394701986755	-38.072582781457	37.1064900662252	26.1197350993378				0.592529801324503	-0.400529801324503	-0.533721854304636	32.7229139072848	10.5435761589404	19.5443708609272				0.884026490066225	-0.0445033112582781	0.0539337748344371	-4.8082119205298	-22.0680794701987	3.86251655629139				0.575788079470199	-0.0628344370860927	-0.596238410596026	4.50039735099338	-4.60238410596027	-6.35470198675497			
111	2560	0.935841059602649	-0.0612450331125828	-0.167523178807947	-2.20662251655629	60.8953642384106	9.45509933774835				0.944953642384106	-0.0322119205298013	0.109139072847682	-27.2860927152318	11.5078145695364	4.73403973509934				0.949827814569536	0.0467284768211921	-0.31194701986755	-33.312582781457	26.7464900662252	22.1997350993378				0.608529801324503	-0.464529801324503	-0.597721854304636	25.4429139072848	13.0635761589404	21.5043708609272				0.916026490066225	-0.0285033112582781	0.0699337748344371	-4.8082119205298	-20.3880794701987	2.18251655629139				0.591788079470199	-0.0148344370860927	-0.596238410596026	-10.8996026490066	3.23761589403974	-7.75470198675497			
112	2580	0.919841059602649	-0.0452450331125828	-0.151523178807947	3.39337748344371	56.1353642384106	6.93509933774835				0.944953642384106	-0.0482119205298013	0.125139072847682	-19.1660927152318	12.3478145695364	5.85403973509934				0.917827814569536	0.0627284768211921	-0.31194701986755	-20.992582781457	20.0264900662252	14.9197350993378				0.640529801324503	-0.432529801324503	-0.613721854304636	18.1629139072848	8.5835761589404	20.9443708609272				0.916026490066225	0.00349668874172187	0.0379337748344371	-5.3682119205298	-20.9480794701987	3.30251655629139				0.639788079470199	0.0171655629139073	-0.676238410596026	-26.2996026490066	8.55761589403974	-11.954701986755			
113	2600	0.919841059602649	-0.0772450331125828	-0.087523178807947	9.83337748344371	58.0953642384106	5.53509933774834				0.944953642384106	-0.000211920529801304	0.0771390728476822	-23.9260927152318	-8.65218543046358	1.65403973509934				0.949827814569536	0.0307284768211921	-0.26394701986755	-17.352582781457	14.9864900662252	8.47973509933775				0.640529801324503	-0.432529801324503	-0.581721854304636	3.60291390728477	4.1035761589404	17.0243708609272				0.900026490066225	0.00349668874172187	-0.0100662251655629	-3.9682119205298	-21.2280794701987	6.10251655629139				0.671788079470199	-0.0148344370860927	-0.660238410596027	-22.3796026490066	7.71761589403974	-7.47470198675497			
114	2620	0.983841059602649	-0.125245033112583	-0.071523178807947	7.31337748344371	60.3353642384106	2.73509933774834				0.976953642384106	0.0157880794701987	0.0291390728476822	-25.3260927152318	-2.21218543046358	1.37403973509934				0.933827814569536	0.0307284768211921	-0.24794701986755	-11.752582781457	14.4264900662252	3.99973509933775				0.592529801324503	-0.416529801324503	-0.565721854304636	-2.27708609271523	-1.2164238410596	15.6243708609272				0.932026490066225	0.00349668874172187	0.00593377483443711	-5.3682119205298	-18.1480794701987	7.22251655629139				0.671788079470199	-0.0148344370860927	-0.660238410596027	-17.6196026490066	4.63761589403974	0.0852980132450323			
115	2640	0.983841059602649	-0.125245033112583	-0.023523178807947	8.15337748344371	58.0953642384106	1.33509933774834				1.02495364238411	-0.000211920529801304	0.109139072847682	-21.4060927152318	-3.33218543046358	2.49403973509934				0.901827814569536	-0.00127152317880793	-0.21594701986755	-5.31258278145695	11.0664900662252	0.35973509933775				0.560529801324503	-0.448529801324503	-0.597721854304636	2.20291390728477	-0.6564238410596	19.2643708609272				0.980026490066225	-0.0125033112582781	-0.0100662251655629	-4.2482119205298	-17.0280794701987	8.34251655629139				0.687788079470199	0.0171655629139073	-0.676238410596026	-20.6996026490066	3.79761589403974	2.32529801324503			
116	2660	0.951841059602649	-0.0612450331125828	0.00847682119205304	5.07337748344371	56.6953642384106	0.775099337748344				0.960953642384106	0.0157880794701987	0.0451390728476822	-12.7260927152318	-8.37218543046358	6.41403973509934				0.933827814569536	-0.0492715231788079	-0.18394701986755	-1.95258278145695	10.5064900662252	-1.04026490066225				0.560529801324503	-0.464529801324503	-0.597721854304636	-2.55708609271523	-0.6564238410596	18.4243708609272				0.948026490066225	-0.0125033112582781	-0.0420662251655629	-11.8082119205298	-17.8680794701987	9.18251655629139				0.703788079470199	0.0651655629139073	-0.724238410596026	-19.5796026490066	-2.92238410596027	-0.754701986754968			
117	2680	0.919841059602649	-0.0292450331125828	0.024476821192053	3.95337748344371	51.9353642384106	2.17509933774834				0.896953642384106	0.0317880794701987	0.0451390728476822	-13.2860927152318	-3.05218543046358	2.21403973509934				0.933827814569536	-0.0812715231788079	-0.16794701986755	4.48741721854305	10.5064900662252	-1.32026490066225				0.560529801324503	-0.464529801324503	-0.597721854304636	-12.3570860927152	-1.7764238410596	14.5043708609272				0.900026490066225	-0.0285033112582781	-0.0420662251655629	-13.4882119205298	-14.5080794701987	9.18251655629139				0.671788079470199	0.0331655629139073	-0.724238410596026	-13.1396026490066	-8.80238410596027	4.00529801324503			
118	2700	0.951841059602649	-0.0132450331125828	-0.00752317880794696	1.99337748344371	47.7353642384106	-0.344900662251656				0.912953642384106	0.0637880794701987	0.0451390728476822	-12.1660927152318	-5.85218543046358	0.81403973509934				0.917827814569536	-0.0812715231788079	-0.16794701986755	5.88741721854305	1.82649006622517	-0.76026490066225				0.528529801324503	-0.448529801324503	-0.581721854304636	-11.2370860927152	-0.0964238410596001	13.6643708609272				0.900026490066225	0.00349668874172187	-0.0580662251655629	-17.4082119205298	-10.8680794701987	10.8625165562914				0.639788079470199	0.0331655629139073	-0.708238410596026	-5.29960264900662	-7.96238410596027	10.165298013245			
119	2720	0.983841059602649	0.00275496688741723	-0.00752317880794696	4.23337748344371	42.6953642384106	-4.26490066225166				0.944953642384106	0.0637880794701987	-0.00286092715231785	-2.64609271523179	-8.37218543046358	-1.98596026490066				0.965827814569536	-0.0652715231788079	-0.18394701986755	7.84741721854305	0.706490066225167	-1.04026490066225				0.512529801324503	-0.448529801324503	-0.565721854304636	-2.27708609271523	4.3835761589404	17.8643708609272				0.916026490066225	-0.0125033112582781	-0.0580662251655629	-14.8882119205298	-7.22807947019868	10.3025165562914				0.607788079470199	0.0811655629139073	-0.708238410596026	-8.65960264900662	-6.56238410596027	10.445298013245			
120	2740	0.999841059602649	-0.0612450331125828	-0.039523178807947	4.23337748344371	33.1753642384106	-2.30490066225166				0.976953642384106	0.0637880794701987	0.0131390728476822	-2.64609271523179	-6.97218543046358	-3.38596026490066				0.965827814569536	-0.0652715231788079	-0.18394701986755	9.24741721854305	0.146490066225167	0.91973509933775				0.544529801324503	-0.448529801324503	-0.565721854304636	3.60291390728477	7.1835761589404	17.0243708609272				0.916026490066225	-0.0285033112582781	-0.0580662251655629	-16.5682119205298	-5.26807947019868	9.46251655629139				0.607788079470199	0.0971655629139073	-0.708238410596026	-5.57960264900662	-7.40238410596027	9.32529801324503			
121	2760	0.967841059602649	-0.0612450331125828	-0.055523178807947	-1.64662251655629	24.7753642384106	0.495099337748344				0.992953642384106	0.0637880794701987	0.0131390728476822	-4.60609271523179	-7.25218543046358	-1.42596026490066				0.949827814569536	-0.0652715231788079	-0.19994701986755	7.28741721854305	1.26649006622517	4.55973509933775				0.592529801324503	-0.448529801324503	-0.597721854304636	-1.71708609271523	7.7435761589404	11.1443708609272				0.932026490066225	-0.0125033112582781	-0.0900662251655629	-19.3682119205298	-5.82807947019868	9.18251655629139				0.575788079470199	0.0811655629139073	-0.692238410596026	0.580397350993377	-7.68238410596027	8.20529801324503			
122	2780	0.967841059602649	-0.0772450331125828	-0.071523178807947	1.71337748344371	19.7353642384106	-0.904900662251656				0.976953642384106	0.0637880794701987	0.0131390728476822	-1.24609271523179	-10.0521854304636	-1.70596026490066				0.981827814569536	-0.0652715231788079	-0.21594701986755	3.64741721854305	1.26649006622517	5.11973509933775				0.608529801324503	-0.480529801324503	-0.565721854304636	-1.71708609271523	11.6635761589404	7.78437086092715				0.932026490066225	0.00349668874172187	-0.0740662251655629	-17.1282119205298	-2.74807947019868	7.22251655629139				0.575788079470199	0.0811655629139073	-0.708238410596026	1.42039735099338	-5.16238410596027	7.36529801324503			
123	2800	1.01584105960265	-0.0932450331125828	-0.087523178807947	3.67337748344371	13.0153642384106	-1.46490066225166				0.992953642384106	0.0477880794701987	0.0611390728476822	-4.60609271523179	-8.09218543046358	-2.54596026490066				0.965827814569536	-0.0492715231788079	-0.21594701986755	5.60741721854305	-1.25350993377483	3.99973509933775				0.608529801324503	-0.480529801324503	-0.597721854304636	5.84291390728477	13.6235761589404	6.66437086092715				0.964026490066225	-0.0125033112582781	-0.0740662251655629	-13.7682119205298	-1.06807947019868	3.86251655629139				0.575788079470199	0.0971655629139073	-0.724238410596026	-1.37960264900662	-1.24238410596026	4.56529801324503			
124	2820	0.983841059602649	-0.0932450331125828	-0.055523178807947	-3.60662251655629	4.8953642384106	0.215099337748344				0.944953642384106	0.0317880794701987	0.0931390728476822	-6.28609271523179	-5.85218543046358	-1.70596026490066				0.917827814569536	-0.0332715231788079	-0.19994701986755	1.96741721854305	0.426490066225167	2.87973509933775				0.672529801324503	-0.512529801324503	-0.629721854304636	9.76291390728477	14.1835761589404	5.26437086092715				0.964026490066225	-0.0285033112582781	-0.0900662251655629	-13.2082119205298	-1.34807947019868	2.18251655629139				0.559788079470199	0.113165562913907	-0.740238410596026	-0.819602649006623	0.717615894039735	-1.87470198675497			
125	2840	0.983841059602649	-0.0772450331125828	-0.119523178807947	-5.00662251655629	1.2553642384106	0.775099337748344				0.944953642384106	0.0157880794701987	0.0611390728476822	-1.80609271523179	-6.69218543046358	-0.86596026490066				0.917827814569536	-0.0332715231788079	-0.19994701986755	-5.31258278145695	0.146490066225167	1.19973509933775				0.672529801324503	-0.544529801324503	-0.613721854304636	1.64291390728477	9.4235761589404	2.18437086092715				0.948026490066225	-0.0445033112582781	-0.0740662251655629	-11.5282119205298	0.891920529801325	0.222516556291392				0.575788079470199	0.145165562913907	-0.724238410596026	-4.45960264900662	4.35761589403974	-9.99470198675497			
126	2860	0.983841059602649	-0.0612450331125828	-0.039523178807947	-6.40662251655629	-0.144635761589404	-0.0649006622516557				0.992953642384106	0.0637880794701987	-0.00286092715231785	-1.80609271523179	-8.37218543046358	0.25403973509934				0.933827814569536	-0.0332715231788079	-0.23194701986755	-5.87258278145695	-0.693509933774834	-0.48026490066225				0.672529801324503	-0.528529801324503	-0.581721854304636	-9.83708609271523	2.1435761589404	-2.01562913907285				0.932026490066225	-0.0445033112582781	-0.0740662251655629	-8.7282119205298	2.29192052980133	-2.01748344370861				0.575788079470199	0.0811655629139073	-0.724238410596026	-2.21960264900662	7.43761589403974	-11.674701986755			
127	2880	0.983841059602649	-0.0612450331125828	-0.023523178807947	-8.92662251655629	-1.8246357615894	-1.46490066225166				1.00895364238411	0.0477880794701987	-0.00286092715231785	-5.72609271523179	-10.3321854304636	5.57403973509934				0.949827814569536	-0.0172715231788079	-0.24794701986755	-5.87258278145695	-1.53350993377483	-0.20026490066225				0.624529801324503	-0.496529801324503	-0.581721854304636	-14.0370860927152	-1.2164238410596	-3.97562913907285				0.948026490066225	-0.0445033112582781	-0.0740662251655629	-9.2882119205298	4.53192052980133	-3.13748344370861				0.591788079470199	0.0331655629139073	-0.708238410596026	-0.539602649006623	6.59761589403974	-9.15470198675497			
128	2900	0.983841059602649	-0.0452450331125828	0.00847682119205304	-12.8466225165563	-1.8246357615894	-2.30490066225166				1.00895364238411	0.0637880794701987	-0.0348609271523178	-6.84609271523179	-5.57218543046358	5.29403973509934				0.949827814569536	-0.0172715231788079	-0.26394701986755	-10.632582781457	-1.53350993377483	0.35973509933775				0.592529801324503	-0.480529801324503	-0.581721854304636	-12.9170860927152	-2.8964238410596	-5.37562913907285				0.964026490066225	-0.0445033112582781	-0.0740662251655629	-7.3282119205298	5.09192052980133	-4.25748344370861				0.591788079470199	0.0331655629139073	-0.724238410596026	-6.13960264900662	3.79761589403974	-9.99470198675497			
129	2920	0.967841059602649	0.00275496688741723	0.024476821192053	-12.0066225165563	-0.704635761589404	-1.18490066225166				0.976953642384106	0.0477880794701987	-0.00286092715231785	-6.00609271523179	-5.85218543046358	1.65403973509934				0.933827814569536	-0.0172715231788079	-0.29594701986755	-8.67258278145695	-2.37350993377483	1.19973509933775				0.608529801324503	-0.448529801324503	-0.581721854304636	-10.3970860927152	-5.9764238410596	-6.77562913907285				0.964026490066225	-0.0445033112582781	-0.0740662251655629	-9.8482119205298	3.41192052980132	-5.65748344370861				0.607788079470199	0.0651655629139073	-0.740238410596026	-10.8996026490066	4.07761589403974	-13.914701986755			
130	2940	0.983841059602649	0.00275496688741723	0.024476821192053	-4.44662251655629	-0.424635761589404	-2.30490066225166				0.944953642384106	0.0797880794701987	-0.0348609271523178	-1.80609271523179	-10.3321854304636	-1.98596026490066				0.917827814569536	-0.0332715231788079	-0.27994701986755	-9.79258278145695	-2.65350993377483	2.03973509933775				0.608529801324503	-0.464529801324503	-0.565721854304636	-6.47708609271523	-6.5364238410596	-7.89562913907285				0.964026490066225	-0.0125033112582781	-0.0740662251655629	-9.0082119205298	1.17192052980133	-6.21748344370861				0.639788079470199	0.113165562913907	-0.756238410596026	-3.61960264900662	1.83761589403974	-16.434701986755			
131	2960	0.983841059602649	-0.0132450331125828	0.00847682119205304	-3.32662251655629	-3.5046357615894	-2.30490066225166				0.976953642384106	0.0957880794701987	-0.0508609271523178	3.23390728476821	-11.1721854304636	-2.82596026490066				0.917827814569536	-0.00127152317880793	-0.29594701986755	-11.472582781457	-5.45350993377483	3.99973509933775				0.608529801324503	-0.480529801324503	-0.581721854304636	-4.51708609271523	-5.6964238410596	-9.29562913907285				0.964026490066225	0.00349668874172187	-0.0900662251655629	-7.6082119205298	2.29192052980133	-7.33748344370861				0.623788079470199	0.113165562913907	-0.756238410596026	6.46039735099338	-0.402384105960265	-13.914701986755			
132	3100	0	0	0	0	0	0				0.992953642384106	0.0797880794701987	-0.0668609271523178	11.9139072847682	-3.05218543046358	-5.06596026490066				0.917827814569536	-0.0172715231788079	-0.31194701986755	8.96741721854305	-3.77350993377483	0.35973509933775				0	0	0	0	0	0				0.948026490066225	0.00349668874172187	-0.106066225165563	9.1917880794702	-1.90807947019868	-4.81748344370861				0.607788079470199	0.145165562913907	-0.756238410596026	3.66039735099338	1.55761589403974	-10.554701986755			
133	3120	0.967841059602649	-0.0292450331125828	-0.00752317880794696	3.67337748344371	-2.6646357615894	1.61509933774834				0.992953642384106	0.0797880794701987	-0.0988609271523179	18.6339072847682	-6.97218543046358	-5.62596026490066				0.917827814569536	-0.0332715231788079	-0.29594701986755	6.16741721854305	-6.29350993377483	0.91973509933775				0.544529801324503	-0.432529801324503	-0.629721854304636	5.84291390728477	-5.1364238410596	-11.8156291390728				0.948026490066225	0.0354966887417219	-0.0900662251655629	4.7117880794702	1.73192052980133	-4.81748344370861				0.607788079470199	0.145165562913907	-0.740238410596026	4.50039735099338	0.997615894039735	-11.394701986755			
134	3140	0.983841059602649	-0.0292450331125828	-0.023523178807947	5.07337748344371	-2.6646357615894	-0.344900662251656				0.992953642384106	0.0637880794701987	-0.0988609271523179	12.4739072847682	-5.85218543046358	-5.06596026490066				0.917827814569536	-0.0332715231788079	-0.27994701986755	2.24741721854305	-5.73350993377484	0.91973509933775				0.560529801324503	-0.448529801324503	-0.645721854304636	8.08291390728477	-3.1764238410596	-9.57562913907285				0.948026490066225	0.0194966887417219	-0.106066225165563	8.3517880794702	3.13192052980133	-4.81748344370861				0.607788079470199	0.161165562913907	-0.724238410596026	3.66039735099338	1.27761589403974	-11.674701986755			
135	3160	0.967841059602649	-0.0292450331125828	-0.039523178807947	5.07337748344371	-2.9446357615894	-0.904900662251656				1.02495364238411	0.0477880794701987	-0.0668609271523178	7.71390728476821	-2.49218543046358	-1.14596026490066				0.933827814569536	-0.00127152317880793	-0.27994701986755	0.287417218543046	-4.89350993377483	0.35973509933775				0.544529801324503	-0.480529801324503	-0.645721854304636	5.56291390728477	-2.3364238410596	-9.01562913907285				0.980026490066225	0.00349668874172187	-0.106066225165563	7.5117880794702	3.13192052980133	-5.09748344370861				0.607788079470199	0.129165562913907	-0.724238410596026	6.46039735099338	-0.122384105960265	-12.234701986755			
136	3180	0.967841059602649	-0.0452450331125828	-0.055523178807947	7.31337748344371	-2.9446357615894	-0.0649006622516557				1.00895364238411	0.0317880794701987	-0.0508609271523178	6.59390728476821	-2.77218543046358	-1.42596026490066				0.933827814569536	-0.0172715231788079	-0.27994701986755	2.52741721854305	-2.93350993377483	-0.48026490066225				0.544529801324503	-0.464529801324503	-0.645721854304636	3.32291390728477	-1.2164238410596	-9.29562913907285				0.980026490066225	0.00349668874172187	-0.0740662251655629	6.6717880794702	3.41192052980132	-4.53748344370861				0.639788079470199	0.113165562913907	-0.724238410596026	4.22039735099338	1.27761589403974	-11.954701986755			
137	3200	0.951841059602649	0.0187549668874172	-0.055523178807947	-2.20662251655629	0.135364238410596	-1.18490066225166				0.960953642384106	0.0797880794701987	-0.130860927152318	6.59390728476821	-5.01218543046358	-4.22596026490066				0.917827814569536	-0.0172715231788079	-0.29594701986755	6.72741721854305	-3.49350993377483	-1.04026490066225				0.512529801324503	-0.384529801324503	-0.709721854304636	0.522913907284768	-2.8964238410596	-1.73562913907285				0.964026490066225	0.0994966887417219	-0.0100662251655629	1.6317880794702	1.17192052980133	-2.01748344370861				0.591788079470199	0.193165562913907	-0.740238410596026	2.54039735099338	-1.80238410596026	-4.11470198675497			
138	3220	0.983841059602649	0.0507549668874172	-0.119523178807947	3.95337748344371	-0.984635761589404	-1.18490066225166				0.976953642384106	0.175788079470199	-0.00286092715231785	1.55390728476821	3.94781456953642	1.09403973509934				0.901827814569536	0.0467284768211921	-0.27994701986755	3.08741721854305	-0.133509933774833	0.35973509933775				0.560529801324503	-0.336529801324503	-0.661721854304636	1.36291390728477	4.9435761589404	3.02437086092715				0.948026490066225	0.0674966887417219	0.0859337748344371	-0.0482119205298018	3.41192052980132	1.06251655629139				0.607788079470199	0.0171655629139073	-0.756238410596026	2.54039735099338	0.437615894039735	1.48529801324503			
139	3240	0.967841059602649	-0.0612450331125828	-0.071523178807947	3.67337748344371	-2.6646357615894	-1.46490066225166				1.00895364238411	0.0797880794701987	-0.0828609271523179	6.87390728476821	-6.13218543046358	-1.42596026490066				0.917827814569536	-0.0492715231788079	-0.27994701986755	3.36741721854305	-3.21350993377483	0.91973509933775				0.576529801324503	-0.448529801324503	-0.645721854304636	3.32291390728477	-0.0964238410596001	-5.37562913907285				0.980026490066225	0.00349668874172187	-0.0900662251655629	0.511788079470198	-1.34807947019868	-4.81748344370861				0.623788079470199	0.129165562913907	-0.724238410596026	-2.21960264900662	-1.52238410596026	-9.71470198675497			
140	3260	0.967841059602649	-0.0452450331125828	-0.087523178807947	-0.246622516556291	-4.0646357615894	-1.18490066225166				1.00895364238411	0.0637880794701987	-0.114860927152318	2.95390728476821	-1.93218543046358	-0.585960264900661				0.933827814569536	-0.0652715231788079	-0.27994701986755	0.847417218543046	-2.65350993377483	0.91973509933775				0.560529801324503	-0.464529801324503	-0.645721854304636	3.32291390728477	-1.4964238410596	-7.05562913907285				0.964026490066225	0.00349668874172187	-0.0900662251655629	-1.4482119205298	-3.02807947019868	-5.93748344370861				0.623788079470199	0.113165562913907	-0.724238410596026	-2.21960264900662	-2.08238410596027	-8.59470198675497			
141	3280	0.967841059602649	-0.0612450331125828	-0.071523178807947	-2.76662251655629	-2.6646357615894	-0.624900662251656				0.992953642384106	0.0477880794701987	-0.0508609271523178	-3.76609271523179	0.0278145695364242	-1.14596026490066				0.901827814569536	-0.0652715231788079	-0.29594701986755	-1.67258278145695	-2.37350993377483	0.63973509933775				0.544529801324503	-0.448529801324503	-0.645721854304636	-1.15708609271523	-2.0564238410596	-7.33562913907285				0.964026490066225	0.00349668874172187	-0.0900662251655629	-4.2482119205298	-3.86807947019868	-4.53748344370861				0.607788079470199	0.113165562913907	-0.724238410596026	-2.49960264900662	-4.04238410596027	-7.75470198675497			
142	3300	0.967841059602649	-0.0772450331125828	-0.071523178807947	-1.92662251655629	-0.144635761589404	-1.46490066225166				0.960953642384106	0.0477880794701987	-0.146860927152318	-3.48609271523179	-2.21218543046358	-1.98596026490066				0.917827814569536	-0.0332715231788079	-0.29594701986755	-5.03258278145695	-2.65350993377483	1.47973509933775				0.544529801324503	-0.448529801324503	-0.645721854304636	-3.39708609271523	-3.1764238410596	-6.77562913907285				0.948026490066225	0.0194966887417219	-0.106066225165563	-5.3682119205298	-3.86807947019868	-4.53748344370861				0.607788079470199	0.129165562913907	-0.724238410596026	-5.57960264900662	-4.60238410596027	-6.07470198675497			
143	3320	0.967841059602649	-0.0612450331125828	-0.055523178807947	-3.88662251655629	0.415364238410596	-1.74490066225166				0.992953642384106	0.0637880794701987	-0.0988609271523179	-2.92609271523179	-3.33218543046358	-2.26596026490066				0.917827814569536	-0.0172715231788079	-0.29594701986755	-9.79258278145695	-1.81350993377483	2.03973509933775				0.560529801324503	-0.432529801324503	-0.645721854304636	-3.67708609271523	-4.0164238410596	-4.53562913907285				0.964026490066225	0.0194966887417219	-0.0900662251655629	-5.9282119205298	-2.74807947019868	-5.37748344370861				0.623788079470199	0.145165562913907	-0.740238410596026	-5.85960264900662	-4.04238410596027	-5.23470198675497			
