No	Time	12-AccX	12-AccY	12-AccZ	12-GyroX	12-GyroY	12-GyroZ	13-AccX	13-AccY	13-AccZ	13-GyroX	13-GyroY	13-GyroZ	14-AccX	14-AccY	14-AccZ	14-GyroX	14-GyroY	14-GyroZ	15-AccX	15-AccY	15-AccZ	15-GyroX	15-GyroY	15-GyroZ	16-AccX	16-AccY	16-AccZ	16-GyroX	16-GyroY	16-GyroZ	17-AccX	17-AccY	17-AccZ	17-GyroX	17-GyroY	17-GyroZ
0	80	0	0	0	0	0	0				0	0	0	0	0	0				0	0	0	0	0	0				0	0	0	0	0	0				0	0	0	0	0	0				0.367788079470199	-0.206834437086093	-0.852238410596026	0.0203973509933773	-1.24238410596026	-0.754701986754968			
1	100	0	0	0	0	0	0				0	0	0	0	0	0				0	0	0	0	0	0				0.368529801324503	-0.144529801324503	-0.869721854304636	0.522913907284768	-0.3764238410596	-0.335629139072848				0.948026490066225	0.115496688741722	0.165933774834437	1.0717880794702	-0.788079470198675	0.502516556291392				0.367788079470199	-0.206834437086093	-0.852238410596026	1.14039735099338	-0.962384105960265	-1.03470198675497			
2	120	-0.216158940397351	0.114754966887417	-0.951523178807947	0.313377483443709	-0.144635761589404	-1.18490066225166				0	0	0	0	0	0				-0.250172185430464	-0.161271523178808	-0.87194701986755	0.567417218543046	0.426490066225167	-0.20026490066225				0.384529801324503	-0.128529801324503	-0.885721854304636	2.48291390728477	1.0235761589404	-0.335629139072848				0.948026490066225	0.0994966887417219	0.165933774834437	1.0717880794702	0.331920529801325	0.502516556291392				0.351788079470199	-0.206834437086093	-0.852238410596026	0.860397350993377	-0.682384105960265	-1.31470198675497			
3	140	-0.232158940397351	0.114754966887417	-0.935523178807947	0.313377483443709	0.135364238410596	-0.904900662251656				0.928953642384106	0.0637880794701987	0.381139072847682	0.713907284768212	-1.65218543046358	0.25403973509934				-0.250172185430464	-0.161271523178808	-0.87194701986755	0.287417218543046	0.706490066225167	-0.20026490066225				0.368529801324503	-0.144529801324503	-0.885721854304636	1.36291390728477	-0.0964238410596001	-0.0556291390728476				0.948026490066225	0.115496688741722	0.165933774834437	1.6317880794702	0.0519205298013249	0.222516556291392				0.367788079470199	-0.190834437086093	-0.852238410596026	0.300397350993377	0.997615894039735	-1.03470198675497			
4	160	-0.216158940397351	0.114754966887417	-0.935523178807947	-0.806622516556291	0.415364238410596	-1.46490066225166				0.944953642384106	0.0637880794701987	0.381139072847682	0.713907284768212	-0.252185430463576	0.81403973509934				-0.250172185430464	-0.161271523178808	-0.87194701986755	0.287417218543046	-0.133509933774833	-0.20026490066225				0.384529801324503	-0.144529801324503	-0.885721854304636	-0.877086092715232	-0.6564238410596	0.504370860927152				0.948026490066225	0.115496688741722	0.165933774834437	1.6317880794702	-1.06807947019868	0.222516556291392				0.367788079470199	-0.190834437086093	-0.852238410596026	1.14039735099338	-0.122384105960265	-0.754701986754968			
5	180	-0.216158940397351	0.114754966887417	-0.935523178807947	0.313377483443709	0.415364238410596	-1.18490066225166				0.928953642384106	0.0637880794701987	0.397139072847682	1.27390728476821	-1.09218543046358	0.25403973509934				-0.234172185430464	-0.161271523178808	-0.87194701986755	1.40741721854305	0.426490066225167	-0.20026490066225				0.384529801324503	-0.128529801324503	-0.901721854304636	-0.597086092715232	-0.3764238410596	-0.335629139072848				0.948026490066225	0.115496688741722	0.181933774834437	2.1917880794702	-0.508079470198675	1.34251655629139				0.367788079470199	-0.206834437086093	-0.852238410596026	0.580397350993377	-0.402384105960265	-1.03470198675497			
6	200	-0.216158940397351	0.130754966887417	-0.935523178807947	-0.526622516556291	0.135364238410596	-1.18490066225166				0.928953642384106	0.0637880794701987	0.397139072847682	1.83390728476821	0.0278145695364242	0.53403973509934				-0.234172185430464	-0.161271523178808	-0.88794701986755	0.567417218543046	0.706490066225167	0.35973509933775				0.384529801324503	-0.128529801324503	-0.885721854304636	-0.0370860927152318	-0.6564238410596	-0.895629139072848				0.948026490066225	0.115496688741722	0.149933774834437	0.231788079470198	-0.228079470198675	0.222516556291392				0.351788079470199	-0.206834437086093	-0.852238410596026	0.300397350993377	-0.682384105960265	-1.87470198675497			
7	220	-0.216158940397351	0.114754966887417	-0.935523178807947	0.0333774834437086	0.695364238410596	-1.46490066225166				0.928953642384106	0.0637880794701987	0.397139072847682	2.39390728476821	-1.93218543046358	1.65403973509934				-0.250172185430464	-0.161271523178808	-0.88794701986755	1.12741721854305	-0.693509933774834	-0.76026490066225				0.384529801324503	-0.128529801324503	-0.885721854304636	2.76291390728477	0.1835761589404	-1.17562913907285				0.948026490066225	0.131496688741722	0.181933774834437	1.3517880794702	2.57192052980133	-0.617483443708608				0.367788079470199	-0.190834437086093	-0.852238410596026	0.300397350993377	-0.682384105960265	-1.59470198675497			
8	240	-0.216158940397351	0.130754966887417	-0.935523178807947	0.313377483443709	0.135364238410596	-0.904900662251656				0.928953642384106	0.0637880794701987	0.365139072847682	0.713907284768212	-0.812185430463576	1.37403973509934				-0.250172185430464	-0.161271523178808	-0.87194701986755	0.567417218543046	0.146490066225167	0.0797350993377501				0.384529801324503	-0.128529801324503	-0.869721854304636	2.76291390728477	0.4635761589404	-1.45562913907285				0.948026490066225	0.115496688741722	0.181933774834437	1.0717880794702	0.891920529801325	-0.617483443708608				0.383788079470199	-0.206834437086093	-0.852238410596026	1.98039735099338	-0.402384105960265	-1.59470198675497			
9	260	-0.216158940397351	0.114754966887417	-0.935523178807947	0.0333774834437086	0.135364238410596	-0.624900662251656				0.944953642384106	0.0637880794701987	0.413139072847682	0.153907284768212	-0.812185430463576	1.93403973509934				-0.250172185430464	-0.161271523178808	-0.87194701986755	0.567417218543046	0.146490066225167	0.35973509933775				0.368529801324503	-0.128529801324503	-0.885721854304636	0.242913907284768	-0.3764238410596	-0.335629139072848				0.948026490066225	0.115496688741722	0.165933774834437	-0.328211920529802	0.891920529801325	-0.0574834437086077				0.351788079470199	-0.206834437086093	-0.852238410596026	2.26039735099338	-0.962384105960265	-2.43470198675497			
10	280	-0.216158940397351	0.114754966887417	-0.951523178807947	-0.526622516556291	0.415364238410596	-0.904900662251656				0.960953642384106	0.0477880794701987	0.381139072847682	1.83390728476821	-4.17218543046358	0.53403973509934				-0.250172185430464	-0.161271523178808	-0.88794701986755	1.40741721854305	0.146490066225167	-0.20026490066225				0.384529801324503	-0.144529801324503	-0.885721854304636	-1.15708609271523	-0.0964238410596001	-2.29562913907285				0.964026490066225	0.0994966887417219	0.197933774834437	3.8717880794702	1.17192052980133	0.502516556291392				0.383788079470199	-0.190834437086093	-0.868238410596026	0.300397350993377	-0.402384105960265	-2.15470198675497			
11	300	-0.216158940397351	0.114754966887417	-0.951523178807947	-1.08662251655629	0.415364238410596	-1.18490066225166				0.944953642384106	0.0637880794701987	0.381139072847682	2.67390728476821	-4.17218543046358	0.81403973509934				-0.250172185430464	-0.161271523178808	-0.88794701986755	0.847417218543046	0.986490066225167	-0.48026490066225				0.384529801324503	-0.128529801324503	-0.885721854304636	0.242913907284768	0.4635761589404	-2.01562913907285				0.980026490066225	0.115496688741722	0.181933774834437	1.3517880794702	1.17192052980133	0.502516556291392				0.383788079470199	-0.206834437086093	-0.868238410596026	0.860397350993377	-0.122384105960265	-2.43470198675497			
12	320	-0.216158940397351	0.114754966887417	-0.935523178807947	0.313377483443709	0.695364238410596	-0.904900662251656				0.944953642384106	0.0637880794701987	0.381139072847682	2.67390728476821	-3.89218543046358	1.65403973509934				-0.250172185430464	-0.161271523178808	-0.87194701986755	-0.272582781456954	-0.133509933774833	-0.48026490066225				0.384529801324503	-0.128529801324503	-0.885721854304636	2.20291390728477	1.3035761589404	-0.615629139072848				0.964026490066225	0.131496688741722	0.181933774834437	1.6317880794702	0.331920529801325	-0.617483443708608				0.383788079470199	-0.206834437086093	-0.868238410596026	1.98039735099338	-0.122384105960265	-2.43470198675497			
13	340	-0.232158940397351	0.114754966887417	-0.935523178807947	0.313377483443709	0.415364238410596	-1.46490066225166				0.928953642384106	0.0637880794701987	0.381139072847682	1.83390728476821	-3.61218543046358	1.65403973509934				-0.250172185430464	-0.161271523178808	-0.87194701986755	0.00741721854304636	0.706490066225167	-0.76026490066225				0.400529801324503	-0.160529801324503	-0.885721854304636	1.64291390728477	-0.6564238410596	-0.335629139072848				0.948026490066225	0.115496688741722	0.181933774834437	2.1917880794702	0.0519205298013249	0.222516556291392				0.367788079470199	-0.206834437086093	-0.852238410596026	0.860397350993377	0.437615894039735	-1.87470198675497			
14	360	-0.216158940397351	0.114754966887417	-0.935523178807947	-0.246622516556291	0.695364238410596	-1.18490066225166				0.944953642384106	0.0637880794701987	0.365139072847682	1.27390728476821	-3.61218543046358	1.09403973509934				-0.250172185430464	-0.161271523178808	-0.88794701986755	0.287417218543046	-0.133509933774833	-0.20026490066225				0.384529801324503	-0.144529801324503	-0.885721854304636	-0.317086092715232	-0.6564238410596	-0.615629139072848				0.948026490066225	0.115496688741722	0.181933774834437	1.6317880794702	0.331920529801325	0.222516556291392				0.383788079470199	-0.206834437086093	-0.852238410596026	0.860397350993377	-1.24238410596026	-1.03470198675497			
15	380	-0.216158940397351	0.114754966887417	-0.935523178807947	0.593377483443709	0.135364238410596	-0.904900662251656				0.928953642384106	0.0477880794701987	0.381139072847682	1.27390728476821	-4.45218543046358	1.09403973509934				-0.250172185430464	-0.161271523178808	-0.87194701986755	1.40741721854305	1.54649006622517	-0.20026490066225				0.384529801324503	-0.144529801324503	-0.885721854304636	-1.43708609271523	-1.2164238410596	-0.615629139072848				0.948026490066225	0.0994966887417219	0.181933774834437	1.9117880794702	1.45192052980132	0.222516556291392				0.367788079470199	-0.206834437086093	-0.852238410596026	1.14039735099338	-0.962384105960265	-0.754701986754968			
16	400	-0.216158940397351	0.114754966887417	-0.935523178807947	-0.246622516556291	0.135364238410596	-0.904900662251656				0.928953642384106	0.0477880794701987	0.365139072847682	3.51390728476821	-5.57218543046358	0.81403973509934				-0.234172185430464	-0.145271523178808	-0.87194701986755	0.287417218543046	0.706490066225167	-0.48026490066225				0.368529801324503	-0.128529801324503	-0.869721854304636	0.522913907284768	-0.6564238410596	-0.615629139072848				0.964026490066225	0.115496688741722	0.181933774834437	-0.328211920529802	0.611920529801325	-0.0574834437086077				0.383788079470199	-0.206834437086093	-0.852238410596026	0.580397350993377	-0.122384105960265	-1.03470198675497			
17	420	-0.216158940397351	0.114754966887417	-0.951523178807947	0.0333774834437086	0.135364238410596	-1.18490066225166				0.944953642384106	0.0637880794701987	0.365139072847682	3.51390728476821	-5.29218543046358	0.81403973509934				-0.250172185430464	-0.161271523178808	-0.87194701986755	0.847417218543046	-0.133509933774833	-0.48026490066225				0.368529801324503	-0.128529801324503	-0.869721854304636	1.92291390728477	-0.0964238410596001	-0.895629139072848				0.948026490066225	0.115496688741722	0.181933774834437	-0.328211920529802	0.331920529801325	0.222516556291392				0.367788079470199	-0.190834437086093	-0.852238410596026	1.42039735099338	-0.402384105960265	-1.59470198675497			
18	440	-0.232158940397351	0.130754966887417	-0.951523178807947	0.0333774834437086	0.695364238410596	-0.0649006622516557				0.928953642384106	0.0637880794701987	0.349139072847682	2.67390728476821	-2.77218543046358	0.81403973509934				-0.250172185430464	-0.161271523178808	-0.88794701986755	-0.552582781456954	-0.413509933774833	-0.48026490066225				0.384529801324503	-0.144529801324503	-0.885721854304636	1.92291390728477	-0.3764238410596	-1.17562913907285				0.948026490066225	0.115496688741722	0.165933774834437	0.511788079470198	-1.34807947019868	-0.0574834437086077				0.367788079470199	-0.206834437086093	-0.852238410596026	1.98039735099338	-0.682384105960265	-2.15470198675497			
19	460	-0.216158940397351	0.114754966887417	-0.935523178807947	0.313377483443709	0.415364238410596	-0.904900662251656				0.928953642384106	0.0637880794701987	0.349139072847682	0.713907284768212	0.307814569536424	0.53403973509934				-0.234172185430464	-0.161271523178808	-0.88794701986755	0.567417218543046	-0.133509933774833	-0.48026490066225				0.384529801324503	-0.144529801324503	-0.885721854304636	1.08291390728477	0.4635761589404	-0.615629139072848				0.932026490066225	0.131496688741722	0.197933774834437	1.9117880794702	0.891920529801325	0.222516556291392				0.367788079470199	-0.206834437086093	-0.852238410596026	1.70039735099338	-1.24238410596026	-1.03470198675497			
20	480	-0.216158940397351	0.114754966887417	-0.935523178807947	-0.526622516556291	0.135364238410596	-1.46490066225166				0.944953642384106	0.0637880794701987	0.381139072847682	0.993907284768212	-0.532185430463576	0.53403973509934				-0.250172185430464	-0.145271523178808	-0.87194701986755	1.40741721854305	-0.413509933774833	-0.48026490066225				0.384529801324503	-0.128529801324503	-0.885721854304636	2.48291390728477	1.0235761589404	-0.335629139072848				0.964026490066225	0.131496688741722	0.197933774834437	0.791788079470198	1.45192052980132	-0.0574834437086077				0.351788079470199	-0.206834437086093	-0.852238410596026	-0.259602649006623	-0.122384105960265	-1.59470198675497			
21	500	-0.232158940397351	0.130754966887417	-0.951523178807947	-0.526622516556291	0.135364238410596	-0.904900662251656				0.944953642384106	0.0477880794701987	0.381139072847682	1.27390728476821	-2.77218543046358	0.25403973509934				-0.250172185430464	-0.161271523178808	-0.88794701986755	1.40741721854305	0.146490066225167	-0.20026490066225				0.384529801324503	-0.128529801324503	-0.885721854304636	1.36291390728477	0.4635761589404	-0.895629139072848				0.948026490066225	0.115496688741722	0.165933774834437	0.791788079470198	0.0519205298013249	0.222516556291392				0.367788079470199	-0.206834437086093	-0.852238410596026	1.70039735099338	0.157615894039735	-2.15470198675497			
22	520	-0.216158940397351	0.114754966887417	-0.951523178807947	-0.246622516556291	-0.704635761589404	-1.18490066225166				0.944953642384106	0.0637880794701987	0.365139072847682	2.11390728476821	-2.77218543046358	0.25403973509934				-0.250172185430464	-0.161271523178808	-0.87194701986755	0.567417218543046	-0.133509933774833	-0.76026490066225				0.384529801324503	-0.144529801324503	-0.885721854304636	1.92291390728477	-0.0964238410596001	-0.335629139072848				0.948026490066225	0.115496688741722	0.181933774834437	2.7517880794702	0.0519205298013249	0.502516556291392				0.367788079470199	-0.222834437086093	-0.852238410596026	0.580397350993377	0.157615894039735	-1.87470198675497			
23	540	-0.232158940397351	0.130754966887417	-0.951523178807947	-0.246622516556291	-0.144635761589404	-1.46490066225166				0.944953642384106	0.0637880794701987	0.365139072847682	1.27390728476821	-1.65218543046358	0.25403973509934				-0.250172185430464	-0.161271523178808	-0.87194701986755	0.567417218543046	0.986490066225167	-0.48026490066225				0.384529801324503	-0.144529801324503	-0.885721854304636	1.36291390728477	-0.9364238410596	0.784370860927152				0.964026490066225	0.115496688741722	0.181933774834437	0.511788079470198	-0.508079470198675	0.782516556291392				0.367788079470199	-0.206834437086093	-0.852238410596026	1.42039735099338	-0.962384105960265	-2.15470198675497			
24	560	-0.232158940397351	0.0987549668874172	-0.935523178807947	0.313377483443709	0.695364238410596	-1.18490066225166				0.944953642384106	0.0637880794701987	0.365139072847682	0.993907284768212	0.0278145695364242	0.53403973509934				-0.250172185430464	-0.161271523178808	-0.87194701986755	0.287417218543046	0.706490066225167	-0.20026490066225				0.384529801324503	-0.144529801324503	-0.885721854304636	1.08291390728477	-0.6564238410596	-0.335629139072848				0.948026490066225	0.115496688741722	0.181933774834437	1.0717880794702	0.0519205298013249	0.502516556291392				0.367788079470199	-0.206834437086093	-0.852238410596026	0.580397350993377	-1.24238410596026	-1.31470198675497			
25	580	-0.232158940397351	0.114754966887417	-0.935523178807947	-0.246622516556291	0.135364238410596	-1.18490066225166				0.944953642384106	0.0637880794701987	0.381139072847682	0.993907284768212	-1.09218543046358	0.81403973509934				-0.250172185430464	-0.161271523178808	-0.88794701986755	0.567417218543046	0.426490066225167	0.0797350993377501				0.384529801324503	-0.128529801324503	-0.885721854304636	0.522913907284768	-0.9364238410596	-1.17562913907285				0.948026490066225	0.115496688741722	0.181933774834437	0.511788079470198	-0.228079470198675	-0.0574834437086077				0.367788079470199	-0.206834437086093	-0.868238410596026	0.580397350993377	-0.682384105960265	-1.03470198675497			
26	600	-0.216158940397351	0.114754966887417	-0.935523178807947	-0.526622516556291	0.135364238410596	-1.18490066225166				0.944953642384106	0.0637880794701987	0.381139072847682	2.67390728476821	-3.89218543046358	1.09403973509934				-0.250172185430464	-0.161271523178808	-0.87194701986755	0.847417218543046	0.706490066225167	-0.20026490066225				0.384529801324503	-0.128529801324503	-0.869721854304636	0.242913907284768	0.1835761589404	-1.73562913907285				0.964026490066225	0.115496688741722	0.181933774834437	-0.328211920529802	-0.228079470198675	-0.0574834437086077				0.367788079470199	-0.206834437086093	-0.852238410596026	1.70039735099338	0.157615894039735	-1.31470198675497			
27	620	-0.232158940397351	0.114754966887417	-0.935523178807947	0.313377483443709	0.135364238410596	-0.904900662251656				0.944953642384106	0.0637880794701987	0.365139072847682	3.51390728476821	-4.17218543046358	1.37403973509934				-0.250172185430464	-0.145271523178808	-0.88794701986755	0.847417218543046	0.146490066225167	-0.76026490066225				0.384529801324503	-0.128529801324503	-0.885721854304636	1.36291390728477	-0.6564238410596	-0.615629139072848				0.948026490066225	0.115496688741722	0.197933774834437	1.6317880794702	0.331920529801325	1.06251655629139				0.367788079470199	-0.206834437086093	-0.852238410596026	0.300397350993377	0.437615894039735	-1.03470198675497			
28	640	-0.216158940397351	0.114754966887417	-0.951523178807947	1.15337748344371	0.135364238410596	-0.624900662251656				0.928953642384106	0.0477880794701987	0.349139072847682	2.67390728476821	-2.49218543046358	1.09403973509934				-0.250172185430464	-0.161271523178808	-0.87194701986755	0.847417218543046	0.426490066225167	0.0797350993377501				0.384529801324503	-0.128529801324503	-0.885721854304636	1.64291390728477	0.1835761589404	-0.615629139072848				0.948026490066225	0.115496688741722	0.181933774834437	0.511788079470198	-1.06807947019868	0.502516556291392				0.367788079470199	-0.206834437086093	-0.852238410596026	0.300397350993377	-0.402384105960265	-0.194701986754968			
29	660	-0.216158940397351	0.114754966887417	-0.935523178807947	0.313377483443709	0.415364238410596	-1.18490066225166				0.944953642384106	0.0637880794701987	0.349139072847682	2.95390728476821	-2.49218543046358	1.37403973509934				-0.250172185430464	-0.161271523178808	-0.87194701986755	0.847417218543046	1.26649006622517	-0.76026490066225				0.384529801324503	-0.144529801324503	-0.869721854304636	1.92291390728477	1.0235761589404	-0.615629139072848				0.948026490066225	0.131496688741722	0.197933774834437	1.0717880794702	-1.06807947019868	0.502516556291392				0.383788079470199	-0.206834437086093	-0.868238410596026	0.0203973509933773	-0.122384105960265	-1.03470198675497			
30	680	-0.232158940397351	0.114754966887417	-0.935523178807947	-0.246622516556291	0.415364238410596	-0.904900662251656				0.944953642384106	0.0477880794701987	0.365139072847682	2.67390728476821	-2.49218543046358	1.37403973509934				-0.234172185430464	-0.161271523178808	-0.88794701986755	1.40741721854305	0.986490066225167	-0.48026490066225				0.384529801324503	-0.144529801324503	-0.885721854304636	2.48291390728477	1.0235761589404	-0.895629139072848				0.948026490066225	0.115496688741722	0.181933774834437	1.0717880794702	-0.788079470198675	0.222516556291392				0.383788079470199	-0.206834437086093	-0.852238410596026	1.14039735099338	-0.122384105960265	-0.474701986754968			
31	700	-0.216158940397351	0.114754966887417	-0.935523178807947	0.313377483443709	-0.144635761589404	-1.46490066225166				0.928953642384106	0.0637880794701987	0.349139072847682	2.95390728476821	-3.05218543046358	1.65403973509934				-0.234172185430464	-0.161271523178808	-0.85594701986755	0.287417218543046	-0.133509933774833	-0.76026490066225				0.368529801324503	-0.128529801324503	-0.869721854304636	1.08291390728477	0.7435761589404	-1.45562913907285				0.948026490066225	0.115496688741722	0.181933774834437	0.511788079470198	-0.508079470198675	0.502516556291392				0.367788079470199	-0.206834437086093	-0.852238410596026	1.42039735099338	0.157615894039735	-1.03470198675497			
32	720	-0.216158940397351	0.114754966887417	-0.951523178807947	0.0333774834437086	0.415364238410596	-1.18490066225166				0.928953642384106	0.0477880794701987	0.365139072847682	1.83390728476821	-1.93218543046358	1.37403973509934				-0.250172185430464	-0.161271523178808	-0.87194701986755	0.847417218543046	-1.25350993377483	-0.76026490066225				0.384529801324503	-0.144529801324503	-0.885721854304636	1.08291390728477	0.4635761589404	-1.73562913907285				0.948026490066225	0.0994966887417219	0.181933774834437	0.231788079470198	-0.228079470198675	1.34251655629139				0.367788079470199	-0.206834437086093	-0.852238410596026	0.0203973509933773	0.717615894039735	-0.474701986754968			
33	740	-0.216158940397351	0.114754966887417	-0.935523178807947	-0.246622516556291	-0.144635761589404	-0.904900662251656				0.928953642384106	0.0637880794701987	0.365139072847682	1.55390728476821	0.0278145695364242	1.93403973509934				-0.250172185430464	-0.161271523178808	-0.87194701986755	1.12741721854305	-0.133509933774833	-0.48026490066225				0.368529801324503	-0.128529801324503	-0.869721854304636	2.20291390728477	0.4635761589404	-1.17562913907285				0.932026490066225	0.115496688741722	0.181933774834437	0.231788079470198	-1.34807947019868	0.502516556291392				0.367788079470199	-0.206834437086093	-0.852238410596026	0.860397350993377	-0.122384105960265	0.0852980132450323			
34	760	-0.216158940397351	0.114754966887417	-0.935523178807947	1.15337748344371	0.135364238410596	-1.46490066225166				0.944953642384106	0.0637880794701987	0.365139072847682	0.433907284768212	1.42781456953642	2.49403973509934				-0.234172185430464	-0.161271523178808	-0.88794701986755	0.567417218543046	0.706490066225167	-0.48026490066225				0.368529801324503	-0.144529801324503	-0.869721854304636	2.48291390728477	1.3035761589404	-1.45562913907285				0.932026490066225	0.115496688741722	0.197933774834437	1.3517880794702	-0.508079470198675	1.34251655629139				0.383788079470199	-0.206834437086093	-0.852238410596026	1.14039735099338	-0.402384105960265	0.645298013245032			
35	780	-0.216158940397351	0.114754966887417	-0.935523178807947	0.0333774834437086	-0.424635761589404	-0.904900662251656				0.944953642384106	0.0477880794701987	0.365139072847682	-0.406092715231788	0.307814569536424	1.09403973509934				-0.234172185430464	-0.177271523178808	-0.87194701986755	0.567417218543046	0.146490066225167	-1.04026490066225				0.384529801324503	-0.144529801324503	-0.885721854304636	3.32291390728477	1.3035761589404	-0.895629139072848				0.964026490066225	0.0994966887417219	0.165933774834437	-0.888211920529802	-0.788079470198675	1.62251655629139				0.367788079470199	-0.222834437086093	-0.852238410596026	2.54039735099338	-1.24238410596026	0.365298013245032			
36	800	-0.216158940397351	0.114754966887417	-0.935523178807947	-0.246622516556291	-0.144635761589404	-0.904900662251656				0.928953642384106	0.0477880794701987	0.349139072847682	-0.126092715231788	0.867814569536424	1.37403973509934				-0.234172185430464	-0.161271523178808	-0.87194701986755	0.847417218543046	-0.973509933774833	-1.32026490066225				0.384529801324503	-0.160529801324503	-0.869721854304636	3.88291390728477	-0.3764238410596	-0.335629139072848				0.948026490066225	0.115496688741722	0.165933774834437	-0.328211920529802	2.57192052980133	-0.337483443708608				0.367788079470199	-0.222834437086093	-0.852238410596026	1.98039735099338	-0.682384105960265	1.76529801324503			
37	820	-0.216158940397351	0.114754966887417	-0.951523178807947	0.0333774834437086	-0.424635761589404	-0.624900662251656				0.928953642384106	0.0637880794701987	0.349139072847682	-1.52609271523179	3.10781456953642	1.93403973509934				-0.234172185430464	-0.161271523178808	-0.87194701986755	1.12741721854305	0.146490066225167	-0.48026490066225				0.368529801324503	-0.160529801324503	-0.901721854304636	5.28291390728477	-0.0964238410596001	-0.895629139072848				0.932026490066225	0.115496688741722	0.213933774834437	-1.1682119205298	2.85192052980133	-0.617483443708608				0.383788079470199	-0.222834437086093	-0.852238410596026	2.82039735099338	-1.80238410596026	2.88529801324503			
38	840	-0.216158940397351	0.114754966887417	-0.935523178807947	0.313377483443709	-0.704635761589404	-0.904900662251656				0.944953642384106	0.0637880794701987	0.397139072847682	-1.80609271523179	3.38781456953642	1.65403973509934				-0.234172185430464	-0.145271523178808	-0.88794701986755	0.847417218543046	-0.413509933774833	-0.48026490066225				0.352529801324503	-0.144529801324503	-0.885721854304636	4.16291390728477	-0.0964238410596001	0.784370860927152				0.948026490066225	0.0994966887417219	0.165933774834437	-5.6482119205298	3.69192052980133	-0.897483443708608				0.367788079470199	-0.222834437086093	-0.820238410596026	2.54039735099338	-5.16238410596027	3.44529801324503			
39	860	-0.216158940397351	0.114754966887417	-0.951523178807947	-0.526622516556291	-0.704635761589404	-0.624900662251656				0.960953642384106	0.0477880794701987	0.349139072847682	2.67390728476821	2.26781456953642	3.05403973509934				-0.250172185430464	-0.161271523178808	-0.90394701986755	-0.272582781456954	0.426490066225167	-0.48026490066225				0.368529801324503	-0.160529801324503	-0.869721854304636	10.0429139072848	-6.8164238410596	-0.335629139072848				0.948026490066225	0.0994966887417219	0.181933774834437	-0.328211920529802	2.57192052980133	0.782516556291392				0.367788079470199	-0.222834437086093	-0.884238410596026	-0.539602649006623	-4.04238410596027	4.00529801324503			
40	880	-0.216158940397351	0.114754966887417	-0.951523178807947	1.15337748344371	0.135364238410596	-0.624900662251656				0.976953642384106	0.0957880794701987	0.333139072847682	3.79390728476821	4.22781456953642	4.17403973509934				-0.250172185430464	-0.161271523178808	-0.88794701986755	1.12741721854305	-0.413509933774833	-1.60026490066225				0.352529801324503	-0.144529801324503	-0.917721854304636	7.80291390728477	-12.6964238410596	-0.335629139072848				0.964026490066225	0.115496688741722	0.165933774834437	-4.2482119205298	6.49192052980132	0.222516556291392				0.351788079470199	-0.222834437086093	-0.948238410596026	2.26039735099338	-1.52238410596026	5.96529801324503			
41	900	-0.216158940397351	0.130754966887417	-0.951523178807947	0.593377483443709	-0.704635761589404	-1.18490066225166				0.944953642384106	0.0637880794701987	0.333139072847682	9.67390728476821	3.94781456953642	8.09403973509934				-0.250172185430464	-0.145271523178808	-0.88794701986755	0.00741721854304636	0.146490066225167	-1.88026490066225				0.368529801324503	-0.176529801324503	-0.949721854304636	2.20291390728477	-7.0964238410596	-0.0556291390728476				0.964026490066225	0.131496688741722	0.165933774834437	-6.7682119205298	7.33192052980133	0.782516556291392				0.367788079470199	-0.206834437086093	-0.916238410596027	7.02039735099338	1.27761589403974	8.76529801324503			
42	920	-0.216158940397351	0.130754966887417	-0.935523178807947	-0.806622516556291	-0.984635761589404	-0.0649006622516557				0.960953642384106	0.0797880794701987	0.349139072847682	10.5139072847682	-1.09218543046358	8.37403973509934				-0.234172185430464	-0.145271523178808	-0.88794701986755	0.287417218543046	0.426490066225167	-2.16026490066225				0.352529801324503	-0.176529801324503	-0.917721854304636	1.36291390728477	-7.9364238410596	-2.01562913907285				0.964026490066225	0.115496688741722	0.133933774834437	-2.2882119205298	12.6519205298013	0.222516556291392				0.351788079470199	-0.254834437086093	-0.900238410596026	11.2203973509934	-10.7623841059603	15.485298013245			
43	940	0	0	0	0	0	0				0.992953642384106	0.0957880794701987	0.317139072847682	9.67390728476821	-10.3321854304636	6.69403973509934				0	0	0	0	0	0				0.336529801324503	-0.176529801324503	-0.949721854304636	-0.597086092715232	-10.4564238410596	-3.41562913907285				0.980026490066225	0.115496688741722	0.149933774834437	-3.1282119205298	12.9319205298013	-0.0574834437086077				0.335788079470199	-0.286834437086093	-0.932238410596026	3.10039735099338	-14.9623841059603	19.965298013245			
44	1060	-0.280158940397351	0.0987549668874172	-0.935523178807947	-7.80662251655629	1.2553642384106	2.73509933774834				1.04095364238411	0.0317880794701987	0.0771390728476822	18.9139072847682	-52.3321854304636	17.0540397350993				-0.314172185430464	-0.113271523178808	-0.85594701986755	10.367417218543	-0.413509933774833	-6.64026490066225				0	0	0	0	0	0				1.04402649006623	0.0674966887417219	-0.0260662251655629	-9.0082119205298	13.4919205298013	1.90251655629139				0.0957880794701987	-0.222834437086093	-1.04423841059603	9.54039735099338	-9.92238410596027	68.125298013245			
45	1080	-0.360158940397351	0.0827549668874172	-0.935523178807947	-11.1666225165563	3.2153642384106	4.69509933774834				0.944953642384106	0.0317880794701987	0.0611390728476822	-1.24609271523179	-27.9721854304636	9.21403973509934				-0.346172185430464	-0.145271523178808	-0.87194701986755	14.007417218543	-3.21350993377483	-5.52026490066225				0.160529801324503	-0.128529801324503	-1.04572185430464	-32.7970860927152	-40.4164238410596	-49.3356291390729				1.06002649006623	0.0354966887417219	-0.0100662251655629	-2.0082119205298	14.3319205298013	1.62251655629139				0.0637880794701987	-0.270834437086093	-0.980238410596026	26.0603973509934	-21.6823841059603	74.845298013245			
46	1100	-0.392158940397351	0.0827549668874172	-0.919523178807947	-12.2866225165563	5.7353642384106	5.53509933774834				0.960953642384106	0.0477880794701987	0.0611390728476822	-12.7260927152318	-10.8921854304636	4.17403973509934				-0.362172185430464	-0.209271523178808	-0.87194701986755	15.407417218543	-0.413509933774833	-5.52026490066225				0.144529801324503	-0.112529801324503	-1.04572185430464	-35.0370860927152	-46.8564238410596	-52.1356291390729				1.09202649006623	0.00349668874172187	0.00593377483443711	-0.328211920529802	9.85192052980133	2.74251655629139				0.0157880794701987	-0.302834437086093	-0.948238410596026	33.6203973509934	-15.2423841059603	81.845298013245			
47	1120	-0.296158940397351	0.0987549668874172	-0.919523178807947	-13.4066225165563	3.2153642384106	8.05509933774835				0.944953642384106	0.0797880794701987	0.0291390728476822	2.39390728476821	-7.25218543046358	8.65403973509934				-0.346172185430464	-0.193271523178808	-0.85594701986755	13.727417218543	-0.133509933774833	-4.68026490066225				0.0965298013245033	-0.176529801324503	-0.997721854304636	-30.5570860927152	-46.5764238410596	-57.7356291390729				1.04402649006623	-0.0125033112582781	0.00593377483443711	-4.2482119205298	4.25192052980133	4.42251655629139				0.0157880794701987	-0.254834437086093	-0.932238410596026	25.2203973509934	-3.48238410596027	87.445298013245			
48	1140	-0.264158940397351	0.130754966887417	-0.887523178807947	-24.3266225165563	11.0553642384106	10.8550993377483				1.00895364238411	0.0637880794701987	-0.0188609271523178	8.83390728476821	4.78781456953642	10.3340397350993				-0.314172185430464	-0.177271523178808	-0.87194701986755	16.247417218543	-0.133509933774833	-4.40026490066225				0.0645298013245033	-0.144529801324503	-0.933721854304636	-28.3170860927152	-48.2564238410596	-56.8956291390729				1.01202649006623	0.0354966887417219	-0.0420662251655629	-7.6082119205298	2.29192052980133	3.58251655629139				0.0317880794701987	-0.222834437086093	-0.900238410596026	20.4603973509934	3.79761589403974	91.925298013245			
49	1160	-0.344158940397351	0.146754966887417	-0.935523178807947	-38.3266225165563	-3.2246357615894	12.8150993377483				0.960953642384106	0.0637880794701987	0.0131390728476822	-0.126092715231788	15.7078145695364	8.09403973509934				-0.314172185430464	-0.193271523178808	-0.85594701986755	17.3674172185431	4.06649006622517	-3.84026490066225				0.0645298013245033	-0.144529801324503	-0.949721854304636	-16.2770860927152	-43.2164238410596	-47.6556291390729				1.04402649006623	0.0194966887417219	-0.0100662251655629	-2.8482119205298	2.01192052980133	0.502516556291392				0.0157880794701987	-0.190834437086093	-0.900238410596026	15.9803973509934	10.7976158940397	90.8052980132451			
50	1180	-0.280158940397351	0.114754966887417	-1.03152317880795	-24.6066225165563	6.8553642384106	11.4150993377483				0.864953642384106	0.0797880794701987	0.0771390728476822	3.51390728476821	20.1878145695364	13.6940397350993				-0.282172185430464	-0.209271523178808	-0.87194701986755	19.0474172185431	4.62649006622517	-2.44026490066225				0.112529801324503	-0.208529801324503	-0.949721854304636	-4.51708609271523	-32.5764238410596	-37.0156291390729				0.996026490066225	0.0834966887417219	0.0379337748344371	-7.0482119205298	-4.14807947019868	-2.01748344370861				0.0317880794701987	-0.158834437086093	-0.948238410596026	19.6203973509934	17.2376158940397	85.485298013245			
51	1200	-0.264158940397351	0.130754966887417	-1.07952317880795	-31.8866225165563	13.0153642384106	13.0950993377483				0.896953642384106	0.0477880794701987	0.141139072847682	9.95390728476821	39.2278145695364	21.5340397350993				-0.282172185430464	-0.177271523178808	-0.88794701986755	27.727417218543	6.86649006622517	-1.04026490066225				0.208529801324503	-0.160529801324503	-0.933721854304636	-4.79708609271523	-26.1364238410596	-27.4956291390729				0.916026490066225	0.131496688741722	0.0539337748344371	-7.6082119205298	-9.74807947019868	2.46251655629139				0.0157880794701987	-0.126834437086093	-0.948238410596026	25.7803973509934	10.5176158940397	79.605298013245			
52	1220	-0.248158940397351	0.162754966887417	-0.903523178807947	-33.8466225165563	11.3353642384106	14.2150993377483				0.912953642384106	-0.0642119205298013	0.285139072847682	0.153907284768212	49.3078145695364	26.5740397350993				-0.250172185430464	-0.225271523178808	-0.83994701986755	22.407417218543	6.86649006622517	-2.44026490066225				0.224529801324503	-0.0325298013245033	-0.933721854304636	-5.91708609271523	-24.7364238410596	-20.2156291390728				0.916026490066225	0.147496688741722	0.0379337748344371	-0.608211920529802	-5.82807947019868	4.70251655629139				-0.0322119205298013	-0.190834437086093	-0.884238410596026	21.5803973509934	10.5176158940397	74.845298013245			
53	1240	-0.280158940397351	0.194754966887417	-0.903523178807947	-36.3666225165563	13.5753642384106	13.6550993377483				0.864953642384106	0.0157880794701987	0.269139072847682	-7.68609271523179	55.4678145695364	14.8140397350993				-0.298172185430464	-0.289271523178808	-0.88794701986755	17.927417218543	2.10649006622517	-4.12026490066225				0.240529801324503	-0.0325298013245033	-0.965721854304636	7.80291390728477	-26.1364238410596	-19.3756291390728				0.948026490066225	0.115496688741722	0.101933774834437	13.1117880794702	0.331920529801325	7.22251655629139				-0.0162119205298013	-0.222834437086093	-0.900238410596026	4.50039735099338	19.1976158940397	75.685298013245			
54	1260	-0.280158940397351	0.194754966887417	-0.951523178807947	-31.0466225165563	16.9353642384106	14.2150993377483				0.864953642384106	0.0637880794701987	0.333139072847682	1.27390728476821	74.5078145695364	17.0540397350993				-0.314172185430464	-0.241271523178808	-0.93594701986755	21.0074172185431	1.54649006622517	-6.64026490066225				0.320529801324503	-0.112529801324503	-0.997721854304636	7.24291390728477	-27.2564238410596	-30.8556291390729				0.932026490066225	0.0834966887417219	0.133933774834437	20.6717880794702	-6.10807947019868	9.46251655629139				0.0317880794701987	-0.206834437086093	-0.852238410596026	9.82039735099338	24.5176158940397	73.165298013245			
55	1280	-0.248158940397351	0.226754966887417	-1.01552317880795	-33.0066225165563	19.4553642384106	17.0150993377483				0.928953642384106	0.0477880794701987	0.349139072847682	14.7139072847682	87.9478145695364	19.0140397350993				-0.330172185430464	-0.241271523178808	-0.93594701986755	18.487417218543	7.14649006622517	-4.96026490066225				0.0165298013245033	-0.224529801324503	-0.949721854304636	-22.7170860927152	-35.0964238410596	-39.2556291390729				0.884026490066225	0.0194966887417219	0.0219337748344371	22.9117880794702	-1.06807947019868	6.10251655629139				0.0637880794701987	-0.238834437086093	-0.852238410596026	10.1003973509934	25.0776158940397	70.645298013245			
56	1300	-0.264158940397351	0.178754966887417	-1.03152317880795	-37.4866225165563	24.7753642384106	17.8550993377483				0.976953642384106	-0.128211920529801	0.429139072847682	6.87390728476821	94.1078145695364	27.4140397350993				-0.282172185430464	-0.273271523178808	-0.91994701986755	20.447417218543	14.1464900662252	-2.44026490066225				-0.0474701986754967	-0.0805298013245033	-0.805721854304636	-51.8370860927152	-35.6564238410596	-41.7756291390729				0.964026490066225	-0.0125033112582781	0.0859337748344371	24.5917880794702	22.7319205298013	-6.21748344370861				0.239788079470199	-0.302834437086093	-0.964238410596026	19.0603973509934	15.8376158940397	65.045298013245			
57	1320	-0.248158940397351	0.258754966887417	-1.06352317880795	-52.6066225165563	41.2953642384106	22.3350993377483				0.944953642384106	-0.0962119205298013	0.509139072847682	-11.6060927152318	88.5078145695364	23.7740397350993				-0.266172185430464	-0.289271523178808	-0.87194701986755	6.72741721854305	16.1064900662252	-2.16026490066225				-0.0634701986754967	0.0314701986754967	-0.917721854304636	-2.27708609271523	-18.8564238410596	-25.8156291390729				1.04402649006623	0.0994966887417219	0.245933774834437	25.9917880794702	28.0519205298013	-12.6574834437086				0.271788079470199	-0.446834437086093	-0.964238410596026	35.5803973509934	8.27761589403974	68.405298013245			
58	1340	-0.232158940397351	0.370754966887417	-0.903523178807947	-34.4066225165563	42.1353642384106	29.8950993377483				1.05695364238411	0.0157880794701987	0.573139072847682	-12.1660927152318	102.507814569536	13.9740397350993				-0.362172185430464	-0.209271523178808	-0.98394701986755	19.607417218543	19.4664900662252	-4.12026490066225				0.240529801324503	0.0154701986754967	-0.949721854304636	20.4029139072848	6.0635761589404	-1.17562913907285				0.900026490066225	0.195496688741722	0.437933774834437	54.2717880794702	24.6919205298013	1.90251655629139				0.239788079470199	-0.638834437086093	-1.04423841059603	31.1003973509934	2.11761589403974	68.405298013245			
59	1360	-0.264158940397351	0.322754966887417	-0.903523178807947	-24.6066225165563	42.1353642384106	35.2150993377483				1.02495364238411	-0.0322119205298013	0.605139072847682	-2.08609271523179	87.3878145695364	10.3340397350993				-0.426172185430464	-0.177271523178808	-0.93594701986755	34.1674172185431	26.1864900662252	-5.52026490066225				0.272529801324503	0.0154701986754967	-1.06172185430464	44.4829139072848	38.2635761589404	10.0243708609272				0.996026490066225	0.147496688741722	0.405933774834437	29.6317880794702	28.3319205298013	9.18251655629139				0.303788079470199	-0.670834437086093	-1.01223841059603	-5.85960264900662	0.437615894039735	77.365298013245			
60	1380	-0.312158940397351	0.354754966887417	-0.967523178807947	-36.0866225165563	48.2953642384106	36.8950993377483				1.20095364238411	0.0317880794701987	0.733139072847682	9.39390728476821	67.5078145695364	2.21403973509934				-0.426172185430464	-0.289271523178808	-0.91994701986755	17.647417218543	33.4664900662252	-1.32026490066225				0.432529801324503	0.0314701986754967	-1.20572185430464	50.6429139072848	23.9835761589404	8.90437086092715				1.20402649006623	0.0194966887417219	0.453933774834437	68.5517880794702	41.4919205298013	11.9825165562914				0.367788079470199	-0.638834437086093	-0.996238410596026	-41.6996026490066	0.997615894039735	74.845298013245			
61	1400	-0.408158940397351	0.418754966887417	-0.983523178807947	-34.4066225165563	50.8153642384106	36.0550993377484				1.26495364238411	-0.288211920529801	0.813139072847682	39.6339072847682	48.1878145695364	-1.70596026490066				-0.474172185430464	-0.465271523178808	-0.95194701986755	-3.07258278145695	42.1464900662252	-1.88026490066225				0.448529801324503	-0.176529801324503	-1.22172185430464	33.5629139072848	21.4635761589404	4.70437086092715				1.15602649006623	-0.0765033112582781	0.613933774834437	57.3517880794702	30.5719205298013	10.5825165562914				0.447788079470199	-0.606834437086093	-0.916238410596027	-21.8196026490066	-1.80238410596026	42.645298013245			
62	1420	-0.344158940397351	0.546754966887417	-0.935523178807947	-24.6066225165563	55.8553642384106	34.9350993377483				1.08895364238411	-0.144211920529801	1.02113907284768	13.8739072847682	43.1478145695364	-11.2259602649007				-0.378172185430464	-0.385271523178808	-0.99994701986755	-5.03258278145695	52.2264900662252	-10.0002649006623				0.400529801324503	-0.128529801324503	-1.26972185430464	-31.3970860927152	7.1835761589404	-7.89562913907285				1.14002649006623	-0.0125033112582781	0.613933774834437	2.4717880794702	32.8119205298013	-4.81748344370861				0.271788079470199	-0.590834437086093	-0.836238410596026	26.9003973509934	-9.64238410596027	7.36529801324503			
63	1440	-0.056158940397351	0.466754966887417	-0.919523178807947	-3.88662251655629	61.4553642384106	32.4150993377484				1.15295364238411	0.0957880794701987	0.829139072847682	-7.96609271523179	21.8678145695364	-15.9859602649007				-0.186172185430464	-0.225271523178808	-0.98394701986755	-20.992582781457	59.7864900662252	-12.5202649006623				0.256529801324503	0.111470198675497	-1.23772185430464	-49.0370860927152	16.9835761589404	-9.01562913907285				1.23602649006623	0.227496688741722	0.597933774834437	-6.7682119205298	33.9319205298013	-8.73748344370861				0.207788079470199	-0.670834437086093	-0.804238410596027	45.6603973509934	-5.44238410596027	-14.474701986755			
64	1460	-0.024158940397351	0.466754966887417	-1.01552317880795	0.873377483443709	62.5753642384106	28.7750993377483				1.26495364238411	0.143788079470199	0.621139072847682	0.993907284768212	-8.93218543046358	-14.0259602649007				-0.234172185430464	-0.193271523178808	-1.01594701986755	-25.192582781457	62.0264900662252	-16.7202649006623				0.336529801324503	0.191470198675497	-1.17372185430464	-17.1170860927152	41.3435761589404	0.784370860927152				1.25202649006623	0.275496688741722	0.549933774834437	-2.8482119205298	21.6119205298013	-7.05748344370861				0.303788079470199	-0.766834437086093	-0.788238410596027	40.6203973509934	17.7976158940397	-21.194701986755			
65	1480	0.135841059602649	0.466754966887417	-1.04752317880795	1.99337748344371	72.6553642384106	26.2550993377483				1.13695364238411	0.143788079470199	0.733139072847682	28.1539072847682	-2.77218543046358	-8.14596026490066				-0.186172185430464	-0.0812715231788079	-1.06394701986755	-2.23258278145695	71.5464900662252	-22.3202649006623				0.384529801324503	0.0634701986754967	-1.20572185430464	11.4429139072848	61.5035761589404	8.34437086092715				1.25202649006623	0.211496688741722	0.501933774834437	-5.3682119205298	18.2519205298013	-8.73748344370861				0.351788079470199	-0.846834437086093	-0.836238410596026	43.1403973509934	44.1176158940397	-23.714701986755			
66	1500	0.151841059602649	0.482754966887417	-1.04752317880795	4.23337748344371	84.1353642384106	22.0550993377483				1.08895364238411	0.0797880794701987	0.861139072847682	55.3139072847682	-2.77218543046358	-0.0259602649006601				-0.0421721854304636	-0.289271523178808	-1.06394701986755	8.12741721854305	82.1864900662252	-24.8402649006623				0.336529801324503	-0.0325298013245033	-1.23772185430464	16.7629139072848	68.5035761589404	12.5443708609272				1.25202649006623	0.227496688741722	0.373933774834437	-7.3282119205298	20.4919205298013	-12.3774834437086				0.335788079470199	-0.686834437086093	-1.01223841059603	20.7403973509934	52.7976158940397	-30.154701986755			
67	1520	0.103841059602649	0.498754966887417	-1.03152317880795	16.8333774834437	99.2553642384106	19.5350993377483				1.10495364238411	0.0157880794701987	0.781139072847682	21.9939072847682	-1.37218543046358	-6.74596026490066				0.0698278145695364	-0.337271523178808	-1.01594701986755	-1.67258278145695	90.8664900662252	-30.7202649006623				0.368529801324503	-0.0325298013245033	-1.28572185430464	11.7229139072848	75.7835761589404	17.8643708609272				1.25202649006623	0.227496688741722	0.405933774834437	4.4317880794702	22.1719205298013	-13.2174834437086				0.255788079470199	-0.542834437086093	-1.14023841059603	17.3803973509934	51.3976158940397	-29.874701986755			
68	1540	0.055841059602649	0.434754966887417	-0.919523178807947	24.3933774834437	112.695364238411	17.0150993377483				1.16895364238411	0.0957880794701987	0.813139072847682	12.4739072847682	-14.8121854304636	-8.70596026490066				0.0538278145695364	-0.385271523178808	-1.03194701986755	3.92741721854305	98.7064900662252	-32.1202649006623				0.368529801324503	0.0154701986754967	-1.26972185430464	1.36291390728477	84.4635761589404	15.3443708609272				1.22002649006623	0.259496688741722	0.453933774834437	3.5917880794702	21.0519205298013	-15.1774834437086				0.287788079470199	-0.526834437086093	-1.07623841059603	14.8603973509934	56.9976158940397	-25.394701986755			
69	1560	0.071841059602649	0.322754966887417	-1.12752317880795	31.1133774834437	119.975364238411	21.4950993377483				1.24895364238411	0.143788079470199	0.669139072847682	15.8339072847682	-10.3321854304636	-9.26596026490066				0.0698278145695364	-0.353271523178808	-1.01594701986755	1.68741721854305	107.666490066225	-27.3602649006623				0.432529801324503	0.0954701986754967	-1.18972185430464	0.522913907284768	88.1035761589404	12.5443708609272				1.26802649006623	0.275496688741722	0.437933774834437	4.4317880794702	21.8919205298013	-17.1374834437086				0.383788079470199	-0.574834437086093	-0.996238410596026	9.26039735099338	65.3976158940397	-24.554701986755			
70	1580	0.119841059602649	0.290754966887417	-1.12752317880795	32.5133774834437	125.855364238411	26.8150993377483				1.34495364238411	0.0637880794701987	0.733139072847682	25.6339072847682	5.90781456953642	-7.86596026490066				0.0378278145695364	-0.289271523178808	-1.04794701986755	-2.51258278145695	114.666490066225	-24.5602649006623				0.496529801324503	0.0954701986754967	-1.17372185430464	17.0429139072848	93.7035761589404	14.5043708609272				1.30002649006623	0.243496688741722	0.485933774834437	11.4317880794702	23.0119205298013	-17.9774834437086				0.479788079470199	-0.638834437086093	-0.964238410596026	10.9403973509934	79.9576158940397	-34.914701986755			
71	1600	0.247841059602649	0.322754966887417	-1.01552317880795	24.1133774834437	130.055364238411	28.2150993377483				1.28095364238411	-0.0162119205298013	0.749139072847682	25.9139072847682	-6.69218543046358	0.81403973509934				0.0378278145695364	-0.241271523178808	-0.98394701986755	-7.55258278145695	123.346490066225	-24.5602649006623				0.592529801324503	0.0474701986754967	-1.15772185430464	33.8429139072848	100.98357615894	18.4243708609272				1.31602649006623	0.243496688741722	0.517933774834437	10.5917880794702	21.3319205298013	-13.4974834437086				0.607788079470199	-0.622834437086093	-1.02823841059603	13.7403973509934	91.7176158940397	-47.234701986755			
72	1620	0.151841059602649	0.354754966887417	-0.967523178807947	31.3933774834437	132.015364238411	31.5750993377483				1.21695364238411	-0.0482119205298013	0.701139072847682	20.5939072847682	-31.0521854304636	1.37403973509934				0.0698278145695364	-0.289271523178808	-0.99994701986755	-10.632582781457	128.386490066225	-27.3602649006623				0.752529801324503	-0.0325298013245033	-1.15772185430464	46.1629139072848	104.62357615894	21.2243708609272				1.33202649006623	0.227496688741722	0.469933774834437	18.1517880794702	19.3719205298013	-5.93748344370861				0.671788079470199	-0.686834437086093	-1.07623841059603	37.8203973509934	93.9576158940397	-54.794701986755			
73	1640	0.151841059602649	0.210754966887417	-0.887523178807947	45.3933774834437	140.135364238411	36.8950993377483				1.23295364238411	0.0477880794701987	0.461139072847682	14.4339072847682	-43.3721854304636	-0.585960264900661				0.117827814569536	-0.241271523178808	-0.96794701986755	-23.512582781457	136.506490066225	-29.0402649006623				0.768529801324503	-0.160529801324503	-1.14172185430464	47.0029139072848	105.18357615894	25.9843708609272				1.30002649006623	0.163496688741722	0.501933774834437	20.6717880794702	6.21192052980133	-0.337483443708608				0.735788079470199	-0.766834437086093	-0.996238410596026	40.6203973509934	101.23761589404	-59.274701986755			
74	1660	0.295841059602649	0.0827549668874172	-0.983523178807947	43.1533774834437	149.935364238411	40.5350993377483				1.31295364238411	0.0957880794701987	0.413139072847682	20.3139072847682	-40.2921854304636	-3.38596026490066				0.117827814569536	-0.209271523178808	-0.91994701986755	-26.032582781457	144.626490066225	-31.2802649006623				0.640529801324503	-0.0485298013245033	-1.02972185430464	34.6829139072848	103.22357615894	23.4643708609272				1.23602649006623	0.211496688741722	0.517933774834437	10.3117880794702	-5.26807947019868	1.34251655629139				0.735788079470199	-0.862834437086093	-0.868238410596026	19.6203973509934	97.8776158940397	-62.914701986755			
75	1680	0.375841059602649	0.130754966887417	-0.839523178807947	46.2333774834437	153.575364238411	37.4550993377484				1.31295364238411	0.0477880794701987	0.525139072847682	19.7539072847682	-41.6921854304636	-0.86596026490066				0.181827814569536	-0.177271523178808	-0.88794701986755	-24.632582781457	149.386490066225	-30.4402649006623				0.592529801324503	0.0154701986754967	-1.01372185430464	45.3229139072848	101.82357615894	25.1443708609272				1.23602649006623	0.179496688741722	0.517933774834437	2.7517880794702	-14.5080794701987	3.02251655629139				0.687788079470199	-0.814834437086093	-0.724238410596026	-1.37960264900662	90.8776158940397	-65.714701986755			
76	1700	0.439841059602649	0.194754966887417	-0.759523178807947	34.4733774834437	160.575364238411	32.6950993377484				1.20095364238411	-0.0322119205298013	0.541139072847682	10.5139072847682	-66.6121854304636	1.37403973509934				0.293827814569536	-0.177271523178808	-0.87194701986755	-19.872582781457	155.826490066225	-30.1602649006623				0.720529801324503	-0.112529801324503	-0.965721854304636	42.2429139072848	93.1435761589404	21.7843708609272				1.18802649006623	0.195496688741722	0.421933774834437	-13.2082119205298	-22.6280794701987	3.30251655629139				0.687788079470199	-0.670834437086093	-0.740238410596026	-32.1796026490066	88.6376158940397	-62.354701986755			
77	1720	0.439841059602649	0.242754966887417	-0.743523178807947	36.9933774834437	169.255364238411	31.2950993377483				1.00895364238411	-0.0162119205298013	0.413139072847682	1.55390728476821	-94.3321854304636	3.61403973509934				0.325827814569536	-0.273271523178808	-0.74394701986755	-29.392582781457	157.506490066225	-25.6802649006623				0.736529801324503	-0.224529801324503	-0.901721854304636	35.2429139072848	88.3835761589404	24.5843708609272				1.09202649006623	0.163496688741722	0.341933774834437	-15.1682119205298	-32.7080794701987	8.34251655629139				0.687788079470199	-0.558834437086093	-0.708238410596026	-38.0596026490066	100.67761589404	-56.754701986755			
78	1740	0.503841059602649	0.146754966887417	-0.647523178807947	52.9533774834437	171.215364238411	28.2150993377483				1.00895364238411	0.0477880794701987	0.285139072847682	6.59390728476821	-80.3321854304636	7.25403973509934				0.437827814569536	-0.241271523178808	-0.67994701986755	-42.552582781457	162.266490066225	-18.6802649006623				0.624529801324503	-0.192529801324503	-0.805721854304636	49.8029139072848	86.1435761589404	23.7443708609272				0.932026490066225	0.131496688741722	0.261933774834437	-24.4082119205298	-42.2280794701987	12.5425165562914				0.607788079470199	-0.414834437086093	-0.596238410596026	-40.2996026490066	118.59761589404	-52.274701986755			
79	1760	0.599841059602649	0.114754966887417	-0.567523178807947	47.0733774834437	175.415364238411	21.4950993377483				0.960953642384106	0.0797880794701987	0.413139072847682	20.3139072847682	-49.8121854304636	10.8940397350993				0.485827814569536	-0.193271523178808	-0.58394701986755	-45.632582781457	165.066490066225	-12.5202649006623				0.448529801324503	-0.0805298013245033	-0.693721854304636	71.3629139072848	67.3835761589404	13.1043708609272				0.804026490066225	0.147496688741722	0.149933774834437	-16.5682119205298	-37.4680794701987	12.8225165562914				0.463788079470199	-0.206834437086093	-0.548238410596027	-42.8196026490066	118.59761589404	-56.194701986755			
80	1780	0.711841059602649	0.0667549668874172	-0.487523178807947	42.0333774834437	177.655364238411	14.2150993377483				0.640953642384106	-0.0642119205298013	0.205139072847682	15.8339072847682	-109.172185430464	1.37403973509934				0.453827814569536	-0.0492715231788079	-0.48794701986755	-35.272582781457	169.266490066225	-10.2802649006622				0.400529801324503	-0.176529801324503	-0.517721854304636	67.1629139072848	61.5035761589404	1.90437086092715				0.724026490066225	0.0354966887417219	0.117933774834437	-12.6482119205298	-26.5480794701987	10.3025165562914				0.351788079470199	-0.0308344370860927	-0.468238410596026	-28.5396026490066	118.03761589404	-62.914701986755			
81	1800	0.711841059602649	0.0827549668874172	-0.455523178807947	33.0733774834437	182.135364238411	9.73509933774834				0.288953642384106	0.0957880794701987	-0.114860927152318	4.07390728476821	-107.772185430464	-4.50596026490066				0.485827814569536	0.0627284768211921	-0.32794701986755	-29.392582781457	174.026490066225	-9.16026490066225				0.400529801324503	-0.224529801324503	-0.501721854304636	40.5629139072848	46.3835761589404	-3.41562913907285				0.612026490066225	-0.0285033112582781	0.117933774834437	-19.6482119205298	-25.9880794701987	6.94251655629139				0.239788079470199	-0.0148344370860927	-0.436238410596026	-26.0196026490066	126.71761589404	-72.154701986755			
82	1820	0.695841059602649	0.0187549668874172	-0.295523178807947	37.2733774834437	190.255364238411	6.93509933774835				0.544953642384106	0.0637880794701987	0.0131390728476822	-8.24609271523179	-32.4521854304636	5.29403973509934				0.597827814569536	0.0787284768211921	-0.34394701986755	-19.312582781457	174.026490066225	-10.8402649006623				0.256529801324503	-0.160529801324503	-0.357721854304636	26.2829139072848	39.3835761589404	-5.65562913907285				0.436026490066225	0.0834966887417219	0.0379337748344371	-49.3282119205298	-44.4680794701987	4.14251655629139				0.271788079470199	-0.0468344370860927	-0.468238410596026	-43.3796026490066	129.23761589404	-84.754701986755			
83	1840	0.663841059602649	-0.0772450331125828	-0.311523178807947	35.3133774834437	190.815364238411	4.41509933774834				0.624953642384106	0.0477880794701987	0.125139072847682	1.27390728476821	-40.8521854304636	4.45403973509934				0.773827814569536	-0.0172715231788079	-0.37594701986755	-11.472582781457	167.866490066225	-9.44026490066225				0.224529801324503	-0.0325298013245033	-0.261721854304636	22.6429139072848	16.9835761589404	-3.97562913907285				0.436026490066225	0.0674966887417219	-0.0260662251655629	-27.7682119205298	-39.1480794701987	4.98251655629139				0.255788079470199	-0.110834437086093	-0.500238410596026	-51.4996026490066	118.03761589404	-93.154701986755			
84	1860	0.631841059602649	-0.0612450331125828	-0.295523178807947	41.7533774834437	179.055364238411	10.0150993377483				0.336953642384106	0.0477880794701987	0.0771390728476822	4.07390728476821	-50.9321854304636	5.85403973509934				0.741827814569536	-0.0492715231788079	-0.29594701986755	-9.23258278145695	169.826490066225	-10.2802649006622				0.368529801324503	-0.000529801324503289	-0.533721854304636	10.0429139072848	-12.4164238410596	-8.45562913907285				0.516026490066225	0.00349668874172187	0.0859337748344371	-5.9282119205298	-32.7080794701987	4.14251655629139				0.351788079470199	-0.142834437086093	-0.516238410596026	-53.7396026490066	90.5976158940397	-88.674701986755			
85	1880	0.743841059602649	-0.0932450331125828	-0.279523178807947	37.8333774834437	175.415364238411	20.0950993377483				0.336953642384106	0.0637880794701987	0.0611390728476822	4.63390728476821	-45.0521854304636	2.49403973509934				0.757827814569536	-0.145271523178808	-0.34394701986755	-21.832582781457	161.146490066225	-3.84026490066225				0.496529801324503	-0.176529801324503	-0.517721854304636	74.7229139072848	4.9435761589404	3.02437086092715				0.516026490066225	0.0194966887417219	0.101933774834437	-16.0082119205298	-46.1480794701987	2.46251655629139				0.463788079470199	-0.110834437086093	-0.628238410596026	-66.6196026490066	71.8376158940397	-74.114701986755			
86	1900	0.855841059602649	-0.109245033112583	-0.279523178807947	26.3533774834437	168.975364238411	25.9750993377483				0.480953642384106	0.0477880794701987	0.157139072847682	-12.7260927152318	-22.0921854304636	0.25403973509934				0.709827814569536	-0.129271523178808	-0.34394701986755	-25.472582781457	150.506490066225	3.15973509933775				0.432529801324503	-0.224529801324503	-0.389721854304636	48.1229139072848	-18.8564238410596	3.30437086092715				0.484026490066225	0.0674966887417219	0.0699337748344371	-11.2482119205298	-54.2680794701987	6.66251655629139				0.607788079470199	-0.222834437086093	-0.756238410596026	-35.8196026490066	19.7576158940397	-56.194701986755			
87	1920	0.871841059602649	-0.141245033112583	-0.263523178807947	8.15337748344371	162.815364238411	32.9750993377484				0.608953642384106	0.0157880794701987	0.317139072847682	-10.7660927152318	-5.01218543046358	-0.0259602649006601				0.757827814569536	-0.129271523178808	-0.32794701986755	-31.352582781457	135.386490066225	8.19973509933775				0.368529801324503	-0.144529801324503	-0.341721854304636	22.3629139072848	-30.6164238410596	-4.81562913907285				0.532026490066225	0.0354966887417219	0.133933774834437	-4.2482119205298	-43.3480794701987	7.50251655629139				0.719788079470199	-0.382834437086093	-0.708238410596026	7.58039735099338	-48.8423841059603	-29.034701986755			
88	1940	0	0	0	0	0	0				0.656953642384106	0.0477880794701987	0.349139072847682	-2.92609271523179	-20.6921854304636	-6.74596026490066				0	0	0	0	0	0				0.304529801324503	-0.160529801324503	-0.373721854304636	51.7629139072848	-22.2164238410596	-8.17562913907285				0.548026490066225	0.0994966887417219	0.133933774834437	-5.0882119205298	-33.8280794701987	8.34251655629139				0.607788079470199	-0.334834437086093	-0.468238410596026	18.2203973509934	-94.7623841059603	0.925298013245032			
89	1960	0	0	0	0	0	0				0	0	0	0	0	0				0	0	0	0	0	0				0.496529801324503	-0.0485298013245033	-0.373721854304636	44.2029139072848	-19.4164238410596	-7.89562913907285				0	0	0	0	0	0				0	0	0	0	0	0			
90	2020	0	0	0	0	0	0				0	0	0	0	0	0				0.933827814569536	0.0307284768211921	-0.21594701986755	-20.432582781457	94.7864900662252	3.43973509933775				0	0	0	0	0	0				0	0	0	0	0	0				0	0	0	0	0	0			
91	2040	0.967841059602649	0.162754966887417	0.072476821192053	-9.76662251655629	84.6953642384106	14.2150993377483				0.688953642384106	-0.0482119205298013	0.109139072847682	25.6339072847682	-27.4121854304636	3.05403973509934				0.837827814569536	-0.0172715231788079	-0.37594701986755	4.20741721854305	81.6264900662252	9.03973509933775				0	0	0	0	0	0				0	0	0	0	0	0				0.447788079470199	-0.110834437086093	-0.372238410596026	17.6603973509934	-24.2023841059603	-39.954701986755			
92	2060	0.903841059602649	0.146754966887417	0.168476821192053	23.8333774834437	75.4553642384106	8.05509933774835				0.704953642384106	0.0637880794701987	0.237139072847682	16.1139072847682	10.3878145695364	3.61403973509934				0.773827814569536	-0.0812715231788079	-0.11994701986755	30.5274172185431	76.3064900662252	9.87973509933775				0.832529801324503	-0.368529801324503	-0.549721854304636	37.4829139072848	-24.4564238410596	-5.93562913907285				0.836026490066225	0.00349668874172187	0.245933774834437	27.3917880794702	2.01192052980133	-4.53748344370861				0.607788079470199	-0.174834437086093	-0.532238410596027	26.9003973509934	-4.32238410596027	-34.914701986755			
93	2080	1.01584105960265	0.00275496688741723	0.200476821192053	40.3533774834437	62.8553642384106	4.97509933774835				0.800953642384106	0.0797880794701987	0.477139072847682	23.9539072847682	33.9078145695364	1.93403973509934				0.885827814569536	-0.0332715231788079	0.0400529801324504	36.4074172185431	66.5064900662252	6.51973509933775				0.752529801324503	-0.384529801324503	-0.549721854304636	19.2829139072848	-27.2564238410596	-16.5756291390728				0.900026490066225	0.0514966887417219	0.197933774834437	17.8717880794702	-8.06807947019868	-4.81748344370861				0.655788079470199	-0.366834437086093	-0.596238410596026	53.7803973509934	-9.92238410596027	-34.634701986755			
94	2100	0.967841059602649	-0.0452450331125828	0.200476821192053	48.7533774834437	51.3753642384106	5.53509933774834				0.736953642384106	0.0477880794701987	0.333139072847682	32.0739072847682	14.3078145695364	-3.38596026490066				0.933827814569536	0.0307284768211921	-0.00794701986754963	52.3674172185431	50.2664900662252	-7.48026490066225				0.640529801324503	-0.240529801324503	-0.469721854304636	3.60291390728477	-32.5764238410596	-14.0556291390728				0.820026490066225	0.0834966887417219	0.245933774834437	22.9117880794702	-13.1080794701987	-8.73748344370861				0.703788079470199	-0.542834437086093	-0.436238410596026	50.4203973509934	-23.9223841059603	-25.954701986755			
95	2120	0.951841059602649	0.00275496688741723	0.264476821192053	35.3133774834437	36.2553642384106	2.45509933774835				0.752953642384106	-0.000211920529801304	0.301139072847682	33.7539072847682	22.7078145695364	-5.90596026490066				0.965827814569536	0.0467284768211921	-0.0399470198675496	62.4474172185431	39.6264900662252	-14.4802649006623				0.656529801324503	-0.192529801324503	-0.453721854304636	4.72291390728477	-44.8964238410596	-9.85562913907285				0.836026490066225	0.115496688741722	0.277933774834437	21.5117880794702	-10.5880794701987	-5.65748344370861				0.799788079470199	-0.398834437086093	-0.564238410596026	-27.1396026490066	-23.6423841059603	-1.31470198675497			
96	2140	0.935841059602649	-0.0452450331125828	0.152476821192053	44.8333774834437	26.1753642384106	-1.74490066225166				0.864953642384106	-0.0322119205298013	0.557139072847682	46.0739072847682	34.7478145695364	-3.38596026490066				1.02982781456954	-0.0492715231788079	0.0400529801324504	73.0874172185431	31.7864900662252	-11.6802649006622				0.576529801324503	-0.160529801324503	-0.437721854304636	9.48291390728477	-43.2164238410596	2.18437086092715				0.804026490066225	0.0514966887417219	0.309933774834437	30.7517880794702	-12.2680794701987	1.34251655629139				0.735788079470199	-0.238834437086093	-0.692238410596026	1.14039735099338	-50.2423841059603	9.60529801324503			
97	2160	0.903841059602649	-0.0932450331125828	0.232476821192053	54.0733774834437	26.7353642384106	-1.18490066225166				0.912953642384106	-0.000211920529801304	0.461139072847682	38.5139072847682	21.3078145695364	-1.14596026490066				0.933827814569536	-0.193271523178808	0.13605298013245	71.967417218543	29.8264900662252	-7.48026490066225				0.592529801324503	-0.192529801324503	-0.533721854304636	32.4429139072848	-28.3764238410596	3.86437086092715				0.852026490066225	0.0834966887417219	0.309933774834437	17.0317880794702	-10.3080794701987	-2.85748344370861				0.607788079470199	-0.206834437086093	-0.532238410596027	30.5403973509934	-57.2423841059603	5.12529801324503			
98	2180	0.903841059602649	-0.125245033112583	0.168476821192053	37.8333774834437	27.8553642384106	0.775099337748344				0.848953642384106	-0.0322119205298013	0.461139072847682	26.1939072847682	20.1878145695364	-3.94596026490066				0.949827814569536	-0.273271523178808	0.12005298013245	54.8874172185431	35.1464900662252	-5.52026490066225				0.768529801324503	-0.320529801324503	-0.693721854304636	53.1629139072848	-15.7764238410596	0.504370860927152				0.884026490066225	0.0834966887417219	0.229933774834437	32.1517880794702	4.53192052980133	-7.33748344370861				0.655788079470199	-0.158834437086093	-0.452238410596026	-3.61960264900662	-50.8023841059603	-6.07470198675497			
99	2200	0.919841059602649	-0.157245033112583	0.216476821192053	32.5133774834437	29.8153642384106	1.33509933774834				0.944953642384106	0.0477880794701987	0.413139072847682	13.0339072847682	18.7878145695364	-4.22596026490066				1.01382781456954	-0.321271523178808	0.0880529801324504	34.1674172185431	29.8264900662252	-1.60026490066225				0.896529801324503	-0.496529801324503	-0.661721854304636	20.1229139072848	-30.3364238410596	-11.5356291390728				0.948026490066225	0.0994966887417219	0.245933774834437	19.2717880794702	0.0519205298013249	-9.29748344370861				0.671788079470199	-0.126834437086093	-0.564238410596026	-0.539602649006623	-53.8823841059603	-19.514701986755			
100	2220	0.967841059602649	-0.0772450331125828	0.264476821192053	17.1133774834437	31.7753642384106	-2.86490066225166				0.864953642384106	0.0317880794701987	0.445139072847682	20.0339072847682	27.7478145695364	4.17403973509934				0.981827814569536	-0.337271523178808	0.13605298013245	9.52741721854305	23.6664900662252	2.31973509933775				0.672529801324503	-0.384529801324503	-0.565721854304636	-17.6770860927152	-33.4164238410596	-20.4956291390729				0.868026490066225	0.115496688741722	0.197933774834437	29.9117880794702	0.611920529801325	-11.8174834437086				0.575788079470199	-0.110834437086093	-0.500238410596026	33.0603973509934	-41.2823841059603	-34.074701986755			
101	2240	0.983841059602649	0.00275496688741723	0.216476821192053	12.9133774834437	27.8553642384106	-3.98490066225166				0.848953642384106	-0.000211920529801304	0.397139072847682	21.9939072847682	29.4278145695364	9.49403973509934				0.949827814569536	-0.241271523178808	0.13605298013245	-3.63258278145695	28.7064900662252	0.35973509933775				0.432529801324503	-0.144529801324503	-0.517721854304636	-24.1170860927152	-26.1364238410596	-26.9356291390729				0.820026490066225	0.131496688741722	0.277933774834437	31.8717880794702	8.17192052980133	-12.9374834437086				0.543788079470199	-0.222834437086093	-0.404238410596026	30.2603973509934	-4.04238410596027	-40.794701986755			
102	2260	0.983841059602649	0.0187549668874172	0.248476821192053	19.6333774834437	21.4153642384106	-2.58490066225166				0.832953642384106	0.0157880794701987	0.493139072847682	20.0339072847682	33.9078145695364	4.73403973509934				0.965827814569536	-0.113271523178808	0.12005298013245	-15.672582781457	26.1864900662252	-0.48026490066225				0.464529801324503	-0.0805298013245033	-0.533721854304636	0.242913907284768	-9.6164238410596	-29.7356291390729				0.836026490066225	0.0834966887417219	0.197933774834437	32.1517880794702	10.6919205298013	-12.3774834437086				0.751788079470199	-0.238834437086093	-0.548238410596027	46.7803973509934	-6.28238410596027	-37.434701986755			
103	2280	0.967841059602649	0.00275496688741723	0.280476821192053	30.8333774834437	11.8953642384106	-4.54490066225166				0.912953642384106	0.0157880794701987	0.605139072847682	11.3539072847682	24.6678145695364	-1.42596026490066				0.965827814569536	-0.0172715231788079	0.12005298013245	-12.592582781457	20.3064900662252	0.63973509933775				0.672529801324503	-0.192529801324503	-0.709721854304636	21.5229139072848	-8.7764238410596	-38.6956291390729				0.980026490066225	0.115496688741722	0.277933774834437	19.8317880794702	13.4919205298013	-11.8174834437086				0.799788079470199	-0.414834437086093	-0.644238410596026	58.5403973509934	-13.8423841059603	-28.754701986755			
104	2300	0.967841059602649	-0.0452450331125828	0.264476821192053	31.3933774834437	0.695364238410596	-4.82490066225166				0.896953642384106	0.111788079470199	0.445139072847682	7.71390728476821	9.26781456953642	-4.22596026490066				0.981827814569536	-0.0172715231788079	0.12005298013245	-5.31258278145695	19.1864900662252	-0.48026490066225				0.576529801324503	-0.336529801324503	-0.741721854304636	24.0429139072848	-5.1364238410596	-43.7356291390728				0.916026490066225	0.147496688741722	0.213933774834437	18.7117880794702	12.9319205298013	-10.6974834437086				0.847788079470199	-0.478834437086093	-0.596238410596026	-24.8996026490066	16.9576158940397	-15.874701986755			
105	2320	0.935841059602649	-0.109245033112583	0.248476821192053	27.4733774834437	-3.5046357615894	-4.26490066225166				0.912953642384106	0.0477880794701987	0.445139072847682	16.9539072847682	22.4278145695364	-1.70596026490066				1.02982781456954	-0.0812715231788079	0.18405298013245	5.32741721854305	10.7864900662252	-0.76026490066225				0.624529801324503	-0.240529801324503	-0.677721854304636	-2.83708609271523	-9.8964238410596	-41.7756291390729				0.852026490066225	0.243496688741722	0.277933774834437	9.4717880794702	21.3319205298013	-7.61748344370861				0.815788079470199	-0.366834437086093	-0.740238410596026	38.6603973509934	-28.9623841059603	4.28529801324503			
106	2340	0.935841059602649	-0.157245033112583	0.248476821192053	21.5933774834437	-5.1846357615894	-7.06490066225166				0.896953642384106	-0.000211920529801304	0.477139072847682	23.1139072847682	9.54781456953642	-6.46596026490066				0.981827814569536	-0.161271523178808	0.13605298013245	22.127417218543	7.42649006622517	-3.56026490066225				0.704529801324503	-0.144529801324503	-0.661721854304636	-8.99708609271523	-17.4564238410596	-25.8156291390729				0.932026490066225	0.211496688741722	0.373933774834437	13.6717880794702	29.4519205298013	-5.65748344370861				0.687788079470199	-0.238834437086093	-0.484238410596026	22.1403973509934	-37.3623841059603	21.365298013245			
107	2360	0.903841059602649	-0.0772450331125828	0.248476821192053	9.27337748344371	-6.8646357615894	-7.62490066225166				0.928953642384106	0.0477880794701987	0.509139072847682	11.3539072847682	8.98781456953643	-7.02596026490066				0.981827814569536	-0.161271523178808	0.15205298013245	27.1674172185431	8.54649006622517	-4.68026490066225				0.624529801324503	-0.224529801324503	-0.725721854304636	1.36291390728477	-17.7364238410596	-12.3756291390728				0.932026490066225	0.163496688741722	0.389933774834437	5.5517880794702	4.81192052980133	-7.05748344370861				0.671788079470199	-0.222834437086093	-0.468238410596026	13.1803973509934	-50.8023841059603	20.525298013245			
108	2380	0.903841059602649	-0.0772450331125828	0.312476821192053	5.91337748344371	2.6553642384106	-5.66490066225166				0.912953642384106	0.0477880794701987	0.461139072847682	-6.28609271523179	2.54781456953642	-6.74596026490066				0.981827814569536	-0.177271523178808	0.10405298013245	8.96741721854305	8.82649006622517	-4.40026490066225				0.544529801324503	-0.272529801324503	-0.709721854304636	-7.59708609271523	-4.5764238410596	-11.2556291390728				0.916026490066225	0.195496688741722	0.245933774834437	-1.7282119205298	1.45192052980132	-8.73748344370861				0.783788079470199	-0.334834437086093	-0.436238410596026	-12.8596026490066	-25.8823841059603	3.44529801324503			
109	2400	0.903841059602649	-0.0932450331125828	0.264476821192053	-8.08662251655629	4.3353642384106	-5.66490066225166				0.896953642384106	0.0797880794701987	0.349139072847682	-9.92609271523179	2.26781456953642	-3.66596026490066				1.01382781456954	-0.225271523178808	0.10405298013245	-6.99258278145695	3.78649006622517	-3.00026490066225				0.608529801324503	-0.208529801324503	-0.725721854304636	-12.0770860927152	-6.2564238410596	-9.29562913907285				0.900026490066225	0.211496688741722	0.261933774834437	2.7517880794702	11.8119205298013	-7.05748344370861				0.847788079470199	-0.238834437086093	-0.548238410596027	-45.0596026490066	2.67761589403974	-4.11470198675497			
110	2420	0.983841059602649	-0.0292450331125828	0.264476821192053	-19.5666225165563	6.2953642384106	-5.38490066225166				0.960953642384106	0.0317880794701987	0.525139072847682	-7.68609271523179	13.1878145695364	-2.82596026490066				1.01382781456954	-0.145271523178808	0.10405298013245	-10.072582781457	2.10649006622517	-1.60026490066225				0.592529801324503	-0.192529801324503	-0.725721854304636	-15.1570860927152	-15.4964238410596	-3.41562913907285				0.948026490066225	0.179496688741722	0.325933774834437	-2.0082119205298	16.0119205298013	-4.53748344370861				0.735788079470199	-0.0148344370860927	-0.644238410596026	-4.17960264900662	-5.44238410596027	-3.27470198675497			
111	2440	1.01584105960265	0.0347549668874172	0.200476821192053	-15.9266225165563	5.4553642384106	-5.66490066225166				0.944953642384106	0.127788079470199	0.605139072847682	-8.80609271523179	1.98781456953642	-4.50596026490066				0.997827814569536	-0.0972715231788079	0.12005298013245	-13.992582781457	-0.413509933774833	-0.48026490066225				0.624529801324503	-0.208529801324503	-0.709721854304636	-15.1570860927152	-7.6564238410596	1.62437086092715				0.964026490066225	0.211496688741722	0.325933774834437	-6.2082119205298	9.01192052980133	-4.81748344370861				0.639788079470199	-0.222834437086093	-0.564238410596026	71.4203973509934	-18.6023841059603	-5.23470198675497			
112	2460	0.999841059602649	0.0507549668874172	0.184476821192053	-9.20662251655629	2.3753642384106	-2.86490066225166				0.928953642384106	0.159788079470199	0.413139072847682	-2.64609271523179	-4.17218543046358	-3.94596026490066				1.01382781456954	-0.0492715231788079	0.0880529801324504	-12.872582781457	-0.413509933774833	2.03973509933775				0.608529801324503	-0.176529801324503	-0.725721854304636	-6.75708609271523	2.1435761589404	3.02437086092715				0.916026490066225	0.211496688741722	0.261933774834437	-6.7682119205298	7.05192052980133	-3.41748344370861				0.719788079470199	-0.462834437086093	-0.532238410596027	17.9403973509934	8.83761589403974	-10.834701986755			
113	2480	0.983841059602649	0.0187549668874172	0.232476821192053	-8.64662251655629	-1.8246357615894	-3.42490066225166				0.928953642384106	0.0957880794701987	0.349139072847682	-2.36609271523179	0.0278145695364242	-2.54596026490066				1.01382781456954	-0.0172715231788079	0.0720529801324504	-5.87258278145695	-2.37350993377483	2.59973509933775				0.672529801324503	-0.160529801324503	-0.725721854304636	-15.4370860927152	-4.5764238410596	3.30437086092715				0.948026490066225	0.243496688741722	0.261933774834437	-10.1282119205298	10.9719205298013	-4.53748344370861				0.735788079470199	-0.302834437086093	-0.660238410596027	-13.9796026490066	12.7576158940397	0.365298013245032			
114	2500	0.967841059602649	0.0187549668874172	0.248476821192053	-6.40662251655629	-4.9046357615894	-4.82490066225166				0.928953642384106	0.0957880794701987	0.477139072847682	-3.48609271523179	3.38781456953642	-5.34596026490066				0.965827814569536	-0.0332715231788079	0.0400529801324504	-2.79258278145695	-5.45350993377483	1.47973509933775				0.656529801324503	-0.192529801324503	-0.741721854304636	-24.1170860927152	-12.4164238410596	8.06437086092715				0.964026490066225	0.227496688741722	0.309933774834437	-10.4082119205298	11.8119205298013	-2.85748344370861				0.687788079470199	-0.254834437086093	-0.628238410596026	10.9403973509934	-6.28238410596027	14.645298013245			
115	2520	0.951841059602649	-0.0132450331125828	0.232476821192053	-4.72662251655629	-4.9046357615894	-2.86490066225166				0.912953642384106	0.0957880794701987	0.461139072847682	-2.92609271523179	-6.41218543046358	-3.38596026490066				0.933827814569536	-0.0652715231788079	0.0240529801324504	4.76741721854305	-6.57350993377483	-1.32026490066225				0.592529801324503	-0.192529801324503	-0.709721854304636	-17.3970860927152	-2.3364238410596	9.18437086092715				0.948026490066225	0.211496688741722	0.277933774834437	-14.8882119205298	3.41192052980132	-3.13748344370861				0.719788079470199	-0.334834437086093	-0.564238410596026	-4.73960264900662	-1.80238410596026	14.925298013245			
116	2540	0.935841059602649	-0.0132450331125828	0.216476821192053	-6.96662251655629	-1.8246357615894	-5.38490066225166				0.912953642384106	0.0957880794701987	0.381139072847682	-11.3260927152318	-4.17218543046358	-2.54596026490066				0.949827814569536	-0.0812715231788079	0.0240529801324504	6.16741721854305	-3.49350993377483	-3.56026490066225				0.624529801324503	-0.224529801324503	-0.709721854304636	-11.7970860927152	6.3435761589404	8.90437086092715				0.932026490066225	0.227496688741722	0.245933774834437	-15.7282119205298	3.13192052980133	-3.41748344370861				0.719788079470199	-0.270834437086093	-0.644238410596026	-24.0596026490066	13.8776158940397	13.245298013245			
117	2560	0.967841059602649	0.00275496688741723	0.232476821192053	-9.20662251655629	0.135364238410596	-6.50490066225166				0.928953642384106	0.111788079470199	0.429139072847682	-11.3260927152318	-2.49218543046358	-3.66596026490066				0.965827814569536	-0.0652715231788079	0.0240529801324504	3.92741721854305	-5.73350993377484	-4.40026490066225				0.608529801324503	-0.176529801324503	-0.709721854304636	-16.5570860927152	-0.0964238410596001	11.1443708609272				0.916026490066225	0.163496688741722	0.277933774834437	-10.4082119205298	8.73192052980133	-0.0574834437086077				0.655788079470199	-0.126834437086093	-0.692238410596026	-8.65960264900662	5.47761589403974	14.365298013245			
118	2580	0.983841059602649	0.0507549668874172	0.200476821192053	-5.84662251655629	-3.5046357615894	-6.50490066225166				0.960953642384106	0.0637880794701987	0.381139072847682	-3.76609271523179	-7.25218543046358	-2.82596026490066				0.997827814569536	-0.0652715231788079	0.0240529801324504	7.28741721854305	-4.33350993377483	-4.12026490066225				0.640529801324503	-0.208529801324503	-0.709721854304636	-15.1570860927152	-2.6164238410596	13.9443708609272				0.948026490066225	0.163496688741722	0.277933774834437	-14.0482119205298	4.53192052980133	0.782516556291392				0.639788079470199	-0.238834437086093	-0.580238410596026	18.5003973509934	0.437615894039735	9.88529801324503			
119	2600	0.983841059602649	-0.0132450331125828	0.200476821192053	6.75337748344371	-3.7846357615894	-4.54490066225166				0.928953642384106	0.127788079470199	0.365139072847682	0.153907284768212	-5.57218543046358	-2.82596026490066				0.997827814569536	-0.0972715231788079	0.0240529801324504	5.04741721854305	-4.05350993377483	-4.68026490066225				0.672529801324503	-0.240529801324503	-0.693721854304636	-14.3170860927152	1.3035761589404	11.7043708609272				0.964026490066225	0.147496688741722	0.277933774834437	-11.5282119205298	1.73192052980133	-0.617483443708608				0.671788079470199	-0.334834437086093	-0.628238410596026	-7.25960264900662	19.4776158940397	2.04529801324503			
120	2620	0.967841059602649	-0.0612450331125828	0.216476821192053	7.03337748344371	-4.9046357615894	-2.30490066225166				0.944953642384106	0.0797880794701987	0.397139072847682	2.11390728476821	-5.29218543046358	-1.98596026490066				1.02982781456954	-0.113271523178808	0.0400529801324504	2.24741721854305	-5.45350993377483	-4.68026490066225				0.672529801324503	-0.192529801324503	-0.677721854304636	-10.6770860927152	5.2235761589404	10.0243708609272				0.948026490066225	0.211496688741722	0.229933774834437	-15.1682119205298	0.0519205298013249	-0.337483443708608				0.687788079470199	-0.238834437086093	-0.772238410596026	-6.69960264900662	23.9576158940397	-2.15470198675497			
121	2640	0.983841059602649	-0.0132450331125828	0.184476821192053	-6.68662251655629	-5.7446357615894	-3.70490066225166				0.976953642384106	0.0477880794701987	0.301139072847682	2.39390728476821	-10.3321854304636	-1.42596026490066				1.02982781456954	-0.0972715231788079	0.0400529801324504	6.44741721854305	-5.45350993377483	-4.12026490066225				0.656529801324503	-0.112529801324503	-0.709721854304636	-8.71708609271523	-4.0164238410596	13.6643708609272				0.948026490066225	0.195496688741722	0.261933774834437	-9.5682119205298	2.57192052980133	0.782516556291392				0.591788079470199	-0.190834437086093	-0.740238410596026	15.4203973509934	3.51761589403974	4.84529801324503			
122	2660	0.967841059602649	0.00275496688741723	0.168476821192053	-5.84662251655629	-3.2246357615894	-4.26490066225166				0.976953642384106	0.0957880794701987	0.365139072847682	-5.16609271523179	-5.29218543046358	-0.585960264900661				0.965827814569536	-0.113271523178808	0.0400529801324504	11.487417218543	-6.29350993377483	-2.44026490066225				0.624529801324503	-0.240529801324503	-0.773721854304636	-12.3570860927152	-14.9364238410596	16.4643708609272				0.980026490066225	0.179496688741722	0.261933774834437	-7.6082119205298	-4.14807947019868	1.06251655629139				0.575788079470199	-0.286834437086093	-0.660238410596027	13.4603973509934	-6.56238410596027	9.04529801324503			
123	2680	0.935841059602649	-0.0132450331125828	0.136476821192053	0.593377483443709	-0.424635761589404	-3.98490066225166				0.960953642384106	0.0957880794701987	0.429139072847682	-3.48609271523179	-4.73218543046358	1.65403973509934				0.917827814569536	-0.145271523178808	0.00805298013245037	10.367417218543	-6.57350993377483	-3.56026490066225				0.624529801324503	-0.336529801324503	-0.773721854304636	-7.59708609271523	-8.7764238410596	13.6643708609272				0.996026490066225	0.163496688741722	0.229933774834437	-5.3682119205298	-5.82807947019868	0.782516556291392				0.655788079470199	-0.382834437086093	-0.708238410596026	-11.1796026490066	9.11761589403974	8.20529801324503			
124	2700	0.951841059602649	-0.0132450331125828	0.152476821192053	1.43337748344371	3.4953642384106	-2.58490066225166				0.944953642384106	0.0317880794701987	0.365139072847682	-1.24609271523179	-3.33218543046358	-0.0259602649006601				0.949827814569536	-0.0972715231788079	0.00805298013245037	3.08741721854305	-0.693509933774834	-3.56026490066225				0.576529801324503	-0.304529801324503	-0.725721854304636	-5.63708609271523	0.7435761589404	9.74437086092715				0.964026490066225	0.115496688741722	0.213933774834437	-1.4482119205298	-1.34807947019868	-0.617483443708608				0.687788079470199	-0.254834437086093	-0.772238410596026	-21.2596026490066	7.15761589403974	6.24529801324503			
125	2720	0.999841059602649	0.00275496688741723	0.200476821192053	1.15337748344371	4.3353642384106	-3.42490066225166				0.960953642384106	0.0477880794701987	0.333139072847682	-3.20609271523179	-7.25218543046358	-1.14596026490066				0.997827814569536	-0.0652715231788079	-0.00794701986754963	-8.95258278145695	3.22649006622517	-2.16026490066225				0.576529801324503	-0.192529801324503	-0.709721854304636	-12.6370860927152	-7.3764238410596	8.34437086092715				0.916026490066225	0.131496688741722	0.245933774834437	-3.4082119205298	0.891920529801325	-0.337483443708608				0.607788079470199	-0.158834437086093	-0.740238410596026	5.90039735099338	-16.0823841059603	5.40529801324503			
126	2740	0.983841059602649	0.00275496688741723	0.120476821192053	-3.32662251655629	-0.424635761589404	-4.54490066225166				0.928953642384106	0.111788079470199	0.285139072847682	-8.80609271523179	-9.21218543046358	-0.86596026490066				1.01382781456954	-0.0652715231788079	0.00805298013245037	-12.592582781457	2.66649006622517	-2.44026490066225				0.608529801324503	-0.176529801324503	-0.709721854304636	-14.3170860927152	-16.6164238410596	11.7043708609272				0.932026490066225	0.163496688741722	0.229933774834437	-4.2482119205298	-6.38807947019868	1.62251655629139				0.575788079470199	-0.238834437086093	-0.644238410596026	10.1003973509934	-13.2823841059603	-0.194701986754968			
127	2760	0.983841059602649	0.0187549668874172	0.152476821192053	-2.20662251655629	-2.6646357615894	-3.98490066225166				0.928953642384106	0.111788079470199	0.381139072847682	-3.48609271523179	0.0278145695364242	1.09403973509934				0.981827814569536	-0.0652715231788079	0.0400529801324504	-7.55258278145695	-2.37350993377483	-3.56026490066225				0.592529801324503	-0.256529801324503	-0.709721854304636	-3.39708609271523	-11.5764238410596	11.9843708609272				0.932026490066225	0.163496688741722	0.197933774834437	1.3517880794702	-7.78807947019868	2.46251655629139				0.607788079470199	-0.270834437086093	-0.660238410596027	-17.0596026490066	4.35761589403974	-2.71470198675497			
128	2780	0.983841059602649	0.0187549668874172	0.152476821192053	-5.56662251655629	-7.1446357615894	-2.86490066225166				0.944953642384106	0.0797880794701987	0.301139072847682	0.993907284768212	-6.41218543046358	-0.86596026490066				0.997827814569536	-0.0492715231788079	0.0400529801324504	-1.95258278145695	-5.73350993377484	-4.12026490066225				0.512529801324503	-0.288529801324503	-0.725721854304636	-0.317086092715232	-3.1764238410596	5.26437086092715				0.932026490066225	0.115496688741722	0.181933774834437	3.8717880794702	-2.46807947019868	0.222516556291392				0.623788079470199	-0.238834437086093	-0.724238410596026	-8.93960264900662	0.437615894039735	-4.11470198675497			
129	2800	0.967841059602649	0.00275496688741723	0.184476821192053	-6.68662251655629	-7.9846357615894	-2.30490066225166				0.928953642384106	0.0637880794701987	0.349139072847682	-0.686092715231788	-2.49218543046358	-4.22596026490066				0.981827814569536	-0.0492715231788079	0.0240529801324504	1.68741721854305	-7.13350993377484	-5.80026490066225				0.528529801324503	-0.208529801324503	-0.741721854304636	-6.47708609271523	-4.5764238410596	1.34437086092715				0.932026490066225	0.115496688741722	0.213933774834437	-0.608211920529802	-1.34807947019868	0.502516556291392				0.559788079470199	-0.206834437086093	-0.708238410596026	9.82039735099338	-12.7223841059603	-5.23470198675497			
130	2820	0.967841059602649	0.0347549668874172	0.184476821192053	-6.96662251655629	-5.7446357615894	-3.70490066225166				0.944953642384106	0.111788079470199	0.317139072847682	-1.80609271523179	-8.93218543046358	-1.70596026490066				0.949827814569536	-0.0332715231788079	-0.00794701986754963	5.88741721854305	-6.85350993377483	-6.08026490066225				0.560529801324503	-0.192529801324503	-0.725721854304636	-6.19708609271523	-13.2564238410596	3.30437086092715				0.932026490066225	0.163496688741722	0.197933774834437	0.511788079470198	-5.26807947019868	0.782516556291392				0.543788079470199	-0.254834437086093	-0.676238410596026	9.54039735099338	-6.00238410596027	-6.91470198675497			
131	2840	0.967841059602649	0.0507549668874172	0.184476821192053	-3.88662251655629	-4.9046357615894	-4.82490066225166				0.928953642384106	0.0797880794701987	0.301139072847682	2.95390728476821	-1.09218543046358	-1.98596026490066				0.965827814569536	-0.0652715231788079	0.00805298013245037	2.52741721854305	-3.21350993377483	-6.08026490066225				0.560529801324503	-0.240529801324503	-0.741721854304636	-1.43708609271523	-14.9364238410596	4.98437086092715				0.932026490066225	0.147496688741722	0.213933774834437	1.6317880794702	-7.50807947019868	1.06251655629139				0.607788079470199	-0.270834437086093	-0.676238410596026	-2.77960264900662	6.87761589403974	-4.95470198675497			
132	2860	0.951841059602649	0.0187549668874172	0.168476821192053	-1.08662251655629	-4.3446357615894	-4.82490066225166				0.928953642384106	0.0797880794701987	0.333139072847682	0.993907284768212	-2.77218543046358	-2.54596026490066				0.981827814569536	-0.0972715231788079	0.00805298013245037	-3.91258278145695	-0.413509933774833	-4.96026490066225				0.560529801324503	-0.320529801324503	-0.805721854304636	-5.63708609271523	-12.4164238410596	4.70437086092715				0.948026490066225	0.131496688741722	0.181933774834437	0.791788079470198	-6.10807947019868	0.222516556291392				0.623788079470199	-0.238834437086093	-0.724238410596026	-8.65960264900662	0.437615894039735	-1.31470198675497			
133	2880	0.951841059602649	0.00275496688741723	0.184476821192053	-1.64662251655629	-2.1046357615894	-4.54490066225166				0.960953642384106	0.127788079470199	0.333139072847682	0.153907284768212	-4.17218543046358	-2.54596026490066				0.997827814569536	-0.0812715231788079	0.0400529801324504	-4.19258278145695	-1.53350993377483	-3.84026490066225				0.544529801324503	-0.320529801324503	-0.773721854304636	-13.7570860927152	-12.6964238410596	0.784370860927152				0.948026490066225	0.163496688741722	0.181933774834437	-0.0482119205298018	-5.54807947019868	-1.73748344370861				0.575788079470199	-0.222834437086093	-0.724238410596026	8.98039735099338	-9.92238410596027	-0.474701986754968			
134	2900	0.983841059602649	0.0187549668874172	0.184476821192053	-1.36662251655629	-1.8246357615894	-4.26490066225166				0.960953642384106	0.159788079470199	0.269139072847682	-0.406092715231788	-6.41218543046358	-2.82596026490066				0.997827814569536	-0.0812715231788079	0.00805298013245037	-3.07258278145695	-3.21350993377483	-2.44026490066225				0.464529801324503	-0.208529801324503	-0.741721854304636	-11.7970860927152	-9.6164238410596	-0.335629139072848				0.932026490066225	0.179496688741722	0.165933774834437	0.231788079470198	-5.26807947019868	-2.29748344370861				0.559788079470199	-0.190834437086093	-0.676238410596026	8.42039735099338	1.83761589403974	-2.15470198675497			
135	2920	0.983841059602649	0.0507549668874172	0.136476821192053	-4.72662251655629	-1.5446357615894	-5.66490066225166				0.928953642384106	0.111788079470199	0.269139072847682	1.27390728476821	0.307814569536424	-2.82596026490066				0.965827814569536	-0.0332715231788079	-0.00794701986754963	-2.23258278145695	-3.77350993377483	-1.32026490066225				0.496529801324503	-0.224529801324503	-0.773721854304636	-4.23708609271523	-5.4164238410596	-0.335629139072848				0.932026490066225	0.163496688741722	0.165933774834437	0.231788079470198	-6.10807947019868	-1.17748344370861				0.639788079470199	-0.222834437086093	-0.644238410596026	-6.13960264900662	7.71761589403974	-3.27470198675497			
136	2940	0.983841059602649	0.0347549668874172	0.136476821192053	-3.88662251655629	-1.5446357615894	-3.98490066225166				0.944953642384106	0.0957880794701987	0.349139072847682	2.67390728476821	1.42781456953642	-2.54596026490066				0.965827814569536	-0.0332715231788079	-0.0399470198675496	-0.552582781456954	-3.49350993377483	-1.60026490066225				0.480529801324503	-0.272529801324503	-0.821721854304636	-10.1170860927152	-13.8164238410596	-0.895629139072848				0.964026490066225	0.147496688741722	0.165933774834437	-0.608211920529802	-3.02807947019868	-2.85748344370861				0	0	0	0	0	0			
137	2960	0.983841059602649	0.0347549668874172	0.152476821192053	-2.48662251655629	-2.9446357615894	-3.98490066225166				0.976953642384106	0.111788079470199	0.365139072847682	2.11390728476821	-3.05218543046358	-1.70596026490066				0.981827814569536	-0.0332715231788079	-0.0239470198675496	0.847417218543046	-4.61350993377483	-2.16026490066225				0	0	0	0	0	0				0	0	0	0	0	0				0	0	0	0	0	0			
138	3060	0	0	0	0	0	0				0	0	0	0	0	0				0	0	0	0	0	0				0	0	0	0	0	0				0	0	0	0	0	0				0.607788079470199	-0.174834437086093	-0.708238410596026	-4.73960264900662	2.67761589403974	-11.114701986755			
139	3080	0.983841059602649	0.0987549668874172	0.104476821192053	-3.88662251655629	-1.5446357615894	-3.14490066225166				0.960953642384106	0.127788079470199	0.333139072847682	5.19390728476821	1.42781456953642	-2.82596026490066				0.965827814569536	-0.0172715231788079	-0.0559470198675496	0.847417218543046	-2.65350993377483	-0.76026490066225				0.496529801324503	-0.240529801324503	-0.805721854304636	-2.83708609271523	-5.6964238410596	2.46437086092715				0.932026490066225	0.163496688741722	0.133933774834437	-1.1682119205298	-6.38807947019868	-5.37748344370861				0.591788079470199	-0.190834437086093	-0.724238410596026	0.580397350993377	-1.52238410596026	-11.674701986755			
140	3100	0.967841059602649	0.0667549668874172	0.104476821192053	0.313377483443709	-0.984635761589404	-1.18490066225166				0.944953642384106	0.127788079470199	0.269139072847682	0.993907284768212	-5.29218543046358	-4.50596026490066				0.949827814569536	-0.0172715231788079	-0.0559470198675496	-1.67258278145695	-1.81350993377483	-1.04026490066225				0.480529801324503	-0.224529801324503	-0.789721854304636	-8.99708609271523	-10.1764238410596	4.42437086092715				0.932026490066225	0.211496688741722	0.133933774834437	-1.1682119205298	-4.14807947019868	-5.65748344370861				0.575788079470199	-0.238834437086093	-0.724238410596026	3.38039735099338	-5.16238410596027	-7.47470198675497			
141	3120	0.983841059602649	0.00275496688741723	0.136476821192053	2.27337748344371	-1.2646357615894	-1.46490066225166				0.960953642384106	0.111788079470199	0.269139072847682	1.27390728476821	-3.33218543046358	-3.10596026490066				0.981827814569536	-0.0172715231788079	-0.0399470198675496	-1.67258278145695	-0.133509933774833	0.35973509933775				0.432529801324503	-0.208529801324503	-0.821721854304636	-13.7570860927152	-9.0564238410596	7.22437086092715				0.948026490066225	0.163496688741722	0.133933774834437	0.511788079470198	-2.74807947019868	-4.53748344370861				0.607788079470199	-0.238834437086093	-0.740238410596026	-4.73960264900662	-5.72238410596027	-3.55470198675497			
142	3140	0.999841059602649	0.00275496688741723	0.120476821192053	-2.48662251655629	-0.424635761589404	-1.46490066225166				0.960953642384106	0.143788079470199	0.269139072847682	2.11390728476821	-4.45218543046358	-3.38596026490066				0.997827814569536	-0.0332715231788079	-0.0239470198675496	-2.51258278145695	-0.973509933774833	0.0797350993377501				0.448529801324503	-0.224529801324503	-0.837721854304636	-12.0770860927152	-7.3764238410596	4.42437086092715				0.964026490066225	0.163496688741722	0.133933774834437	1.9117880794702	-4.14807947019868	-3.69748344370861				0.623788079470199	-0.222834437086093	-0.724238410596026	-10.3396026490066	-8.24238410596027	-2.99470198675497			
143	3160	0.999841059602649	0.0187549668874172	0.104476821192053	-5.84662251655629	-2.6646357615894	-1.46490066225166				0.992953642384106	0.127788079470199	0.269139072847682	3.51390728476821	-0.532185430463576	-3.66596026490066				0.997827814569536	-0.0332715231788079	-0.0399470198675496	3.64741721854305	-1.81350993377483	-1.04026490066225				0.496529801324503	-0.240529801324503	-0.805721854304636	-6.47708609271523	-5.4164238410596	4.14437086092715				0.964026490066225	0.179496688741722	0.133933774834437	1.0717880794702	-4.70807947019868	-3.97748344370861				0.623788079470199	-0.206834437086093	-0.708238410596026	-6.97960264900662	-7.40238410596027	-4.39470198675497			
144	3180	0.967841059602649	0.0667549668874172	0.104476821192053	-5.84662251655629	-1.2646357615894	-1.74490066225166				0.960953642384106	0.111788079470199	0.301139072847682	3.79390728476821	-0.812185430463576	-3.10596026490066				0.997827814569536	-0.0332715231788079	-0.0399470198675496	4.48741721854305	-1.81350993377483	-1.88026490066225				0.480529801324503	-0.192529801324503	-0.805721854304636	-0.597086092715232	-3.7364238410596	4.70437086092715				0.948026490066225	0.163496688741722	0.133933774834437	0.791788079470198	-4.98807947019868	-5.09748344370861				0.575788079470199	-0.174834437086093	-0.708238410596026	-6.41960264900662	-2.92238410596027	-8.03470198675497			
145	3200	0.983841059602649	0.0507549668874172	0.136476821192053	1.99337748344371	0.695364238410596	-1.18490066225166				0.944953642384106	0.111788079470199	0.285139072847682	1.83390728476821	-2.49218543046358	-3.10596026490066				0.981827814569536	-0.0652715231788079	-0.0559470198675496	0.287417218543046	-0.413509933774833	0.0797350993377501				0.448529801324503	-0.192529801324503	-0.805721854304636	-0.877086092715232	-5.1364238410596	3.58437086092715				0.916026490066225	0.163496688741722	0.149933774834437	1.0717880794702	-5.82807947019868	-4.25748344370861				0.575788079470199	-0.158834437086093	-0.756238410596026	-1.09960264900662	-7.96238410596027	-8.59470198675497			
146	3220	0.983841059602649	0.0347549668874172	0.136476821192053	4.51337748344371	-2.6646357615894	-0.624900662251656				0.944953642384106	0.143788079470199	0.317139072847682	2.39390728476821	2.54781456953642	-3.66596026490066				0.949827814569536	-0.0652715231788079	-0.0239470198675496	-1.11258278145695	1.54649006622517	0.0797350993377501				0.464529801324503	-0.240529801324503	-0.821721854304636	-6.75708609271523	-6.2564238410596	-1.17562913907285				0.932026490066225	0.179496688741722	0.133933774834437	-0.328211920529802	-4.70807947019868	-4.25748344370861				0.575788079470199	-0.190834437086093	-0.740238410596026	5.62039735099338	-12.1623841059603	-6.91470198675497			
147	3240	0.983841059602649	0.0187549668874172	0.120476821192053	7.03337748344371	-2.3846357615894	-1.18490066225166				0.960953642384106	0.159788079470199	0.317139072847682	3.51390728476821	2.54781456953642	-2.54596026490066				0.981827814569536	-0.0652715231788079	-0.0399470198675496	-1.95258278145695	0.146490066225167	1.47973509933775				0.480529801324503	-0.192529801324503	-0.789721854304636	-8.71708609271523	-4.5764238410596	-2.57562913907285				0.964026490066225	0.243496688741722	0.117933774834437	1.0717880794702	-1.34807947019868	-4.53748344370861				0.607788079470199	-0.206834437086093	-0.740238410596026	-1.65960264900662	-5.72238410596027	-4.67470198675497			
148	3260	0.967841059602649	0.0187549668874172	0.136476821192053	3.67337748344371	-2.1046357615894	-0.904900662251656				0.960953642384106	0.143788079470199	0.301139072847682	10.7939072847682	-0.252185430463576	-1.70596026490066				0.981827814569536	-0.0652715231788079	-0.0239470198675496	3.08741721854305	1.82649006622517	1.19973509933775				0.464529801324503	-0.144529801324503	-0.773721854304636	6.68291390728477	2.7035761589404	3.30437086092715				0.964026490066225	0.211496688741722	0.149933774834437	6.3917880794702	-1.90807947019868	-2.01748344370861				0.591788079470199	-0.190834437086093	-0.740238410596026	-3.61960264900662	-0.962384105960265	-2.71470198675497			
149	3280	0.951841059602649	0.0187549668874172	0.136476821192053	3.11337748344371	-2.9446357615894	-2.30490066225166				0.928953642384106	0.0797880794701987	0.253139072847682	8.55390728476821	-1.65218543046358	-1.14596026490066				0.981827814569536	-0.0652715231788079	-0.0399470198675496	0.567417218543046	2.94649006622517	0.91973509933775				0.464529801324503	-0.208529801324503	-0.821721854304636	16.4829139072848	5.2235761589404	2.18437086092715				0.932026490066225	0.163496688741722	0.149933774834437	6.9517880794702	-4.14807947019868	-1.73748344370861				0.591788079470199	-0.174834437086093	-0.724238410596026	-3.33960264900662	-8.24238410596027	-2.15470198675497			
150	3300	0.951841059602649	0.0187549668874172	0.120476821192053	5.91337748344371	-1.8246357615894	-1.74490066225166				0.928953642384106	0.127788079470199	0.285139072847682	2.95390728476821	4.22781456953642	-1.98596026490066				0.965827814569536	-0.0492715231788079	-0.0399470198675496	3.08741721854305	2.66649006622517	0.35973509933775				0.480529801324503	-0.272529801324503	-0.853721854304636	2.48291390728477	0.1835761589404	-3.13562913907285				0.932026490066225	0.163496688741722	0.133933774834437	4.7117880794702	-3.58807947019868	-2.85748344370861				0.591788079470199	-0.190834437086093	-0.708238410596026	0.580397350993377	-10.4823841059603	-4.67470198675497			
151	3320	0.967841059602649	0.00275496688741723	0.136476821192053	4.23337748344371	1.5353642384106	-0.0649006622516557				0.944953642384106	0.127788079470199	0.333139072847682	3.51390728476821	5.06781456953642	-0.0259602649006601				0.965827814569536	-0.0492715231788079	-0.0399470198675496	4.48741721854305	0.986490066225167	-0.20026490066225				0.480529801324503	-0.208529801324503	-0.789721854304636	-10.6770860927152	-6.2564238410596	-2.57562913907285				0.948026490066225	0.227496688741722	0.117933774834437	2.7517880794702	-0.228079470198675	-2.29748344370861				0.607788079470199	-0.206834437086093	-0.724238410596026	-6.41960264900662	-1.24238410596026	-6.07470198675497			
152	3340	0.967841059602649	0.00275496688741723	0.136476821192053	1.99337748344371	1.2553642384106	0.215099337748344				0.976953642384106	0.0957880794701987	0.349139072847682	7.15390728476821	1.14781456953642	-0.86596026490066				0.981827814569536	-0.0652715231788079	-0.00794701986754963	3.08741721854305	0.146490066225167	-1.32026490066225				0.464529801324503	-0.160529801324503	-0.805721854304636	-5.91708609271523	-2.3364238410596	4.42437086092715				0.948026490066225	0.211496688741722	0.165933774834437	8.3517880794702	-0.788079470198675	-1.17748344370861				0.591788079470199	-0.174834437086093	-0.740238410596026	-3.61960264900662	2.11761589403974	-5.79470198675497			
153	3360	0.967841059602649	0.00275496688741723	0.136476821192053	4.79337748344371	-0.144635761589404	0.495099337748344				0.944953642384106	0.0957880794701987	0.301139072847682	5.47390728476821	-3.33218543046358	-1.42596026490066				0.997827814569536	-0.0652715231788079	-0.0239470198675496	0.287417218543046	-0.133509933774833	-0.76026490066225				0.448529801324503	-0.240529801324503	-0.837721854304636	7.24291390728477	4.1035761589404	0.504370860927152				0.916026490066225	0.147496688741722	0.133933774834437	7.2317880794702	-1.90807947019868	-1.45748344370861				0.559788079470199	-0.190834437086093	-0.692238410596026	11.7803973509934	-4.32238410596027	-2.15470198675497			
154	3380	0.967841059602649	-0.0132450331125828	0.136476821192053	0.593377483443709	-1.8246357615894	0.215099337748344				0.912953642384106	0.0957880794701987	0.269139072847682	-0.126092715231788	-1.93218543046358	-1.14596026490066				1.01382781456954	-0.0812715231788079	-0.00794701986754963	-1.39258278145695	-1.25350993377483	-2.16026490066225				0.480529801324503	-0.240529801324503	-0.821721854304636	-0.317086092715232	-3.1764238410596	-5.09562913907285				0.916026490066225	0.163496688741722	0.133933774834437	6.6717880794702	0.891920529801325	-2.29748344370861				0.575788079470199	-0.206834437086093	-0.676238410596026	4.78039735099338	-1.52238410596026	-2.71470198675497			
155	3400	0.967841059602649	0.00275496688741723	0.152476821192053	-2.20662251655629	0.135364238410596	0.775099337748344				0.944953642384106	0.143788079470199	0.349139072847682	-2.08609271523179	5.06781456953642	-0.86596026490066				0.997827814569536	-0.0652715231788079	0.00805298013245037	-2.23258278145695	-2.93350993377483	-1.60026490066225				0.448529801324503	-0.192529801324503	-0.773721854304636	-15.1570860927152	-9.8964238410596	-4.81562913907285				0.932026490066225	0.179496688741722	0.165933774834437	0.511788079470198	2.01192052980133	-2.57748344370861				0.607788079470199	-0.206834437086093	-0.740238410596026	-4.73960264900662	2.67761589403974	-2.15470198675497			
156	3420	0.983841059602649	0.0187549668874172	0.152476821192053	-3.88662251655629	0.415364238410596	0.215099337748344				0.944953642384106	0.127788079470199	0.333139072847682	-1.24609271523179	-2.21218543046358	-0.30596026490066				0.981827814569536	-0.0652715231788079	0.00805298013245037	-1.39258278145695	-2.93350993377483	-0.76026490066225				0.432529801324503	-0.192529801324503	-0.789721854304636	-6.47708609271523	-5.4164238410596	-2.29562913907285				0.964026490066225	0.195496688741722	0.149933774834437	-0.328211920529802	2.29192052980133	-2.01748344370861				0.639788079470199	-0.206834437086093	-0.740238410596026	-0.259602649006623	0.437615894039735	-3.55470198675497			
157	3440	0.983841059602649	0.0347549668874172	0.152476821192053	-6.12662251655629	-0.424635761589404	0.495099337748344				0.944953642384106	0.127788079470199	0.301139072847682	-1.80609271523179	0.307814569536424	-1.14596026490066				0.981827814569536	-0.0492715231788079	0.00805298013245037	-3.07258278145695	-2.37350993377483	-0.76026490066225				0.480529801324503	-0.208529801324503	-0.853721854304636	8.08291390728477	2.7035761589404	-0.895629139072848				0.948026490066225	0.179496688741722	0.149933774834437	1.6317880794702	1.73192052980133	-1.73748344370861				0.607788079470199	-0.190834437086093	-0.740238410596026	5.06039735099338	-3.48238410596027	-4.11470198675497			
158	3460	0.983841059602649	0.0667549668874172	0.152476821192053	-3.32662251655629	0.415364238410596	0.495099337748344				0.928953642384106	0.143788079470199	0.301139072847682	-2.92609271523179	4.50781456953642	-1.14596026490066				0.965827814569536	-0.0492715231788079	0.0240529801324504	-3.07258278145695	-2.65350993377483	0.0797350993377501				0.496529801324503	-0.224529801324503	-0.853721854304636	2.20291390728477	-0.9364238410596	-2.85562913907285				0.948026490066225	0.179496688741722	0.133933774834437	-0.328211920529802	2.85192052980133	-2.01748344370861				0.591788079470199	-0.174834437086093	-0.724238410596026	3.10039735099338	-2.92238410596027	-4.11470198675497			
159	3480	0.983841059602649	0.0507549668874172	0.152476821192053	-1.36662251655629	-0.144635761589404	0.215099337748344				0.944953642384106	0.143788079470199	0.333139072847682	-0.686092715231788	5.90781456953642	-0.585960264900661				0.965827814569536	-0.0332715231788079	0.00805298013245037	0.00741721854304636	-2.09350993377483	0.91973509933775				0.496529801324503	-0.192529801324503	-0.821721854304636	-12.6370860927152	-5.1364238410596	-2.29562913907285				0.948026490066225	0.227496688741722	0.165933774834437	-0.888211920529802	3.41192052980132	-2.57748344370861				0.607788079470199	-0.174834437086093	-0.740238410596026	-0.539602649006623	-2.36238410596027	-4.39470198675497			
160	3500	0.951841059602649	0.0187549668874172	0.168476821192053	-1.08662251655629	0.975364238410596	0.215099337748344				0.944953642384106	0.159788079470199	0.349139072847682	1.27390728476821	4.50781456953642	-0.86596026490066				0.965827814569536	-0.0332715231788079	-0.00794701986754963	0.847417218543046	0.146490066225167	1.47973509933775				0.464529801324503	-0.144529801324503	-0.805721854304636	-10.3970860927152	-4.2964238410596	-1.17562913907285				0.932026490066225	0.211496688741722	0.165933774834437	0.231788079470198	2.57192052980133	-2.01748344370861				0.591788079470199	-0.206834437086093	-0.724238410596026	1.42039735099338	-2.64238410596027	-2.71470198675497			
161	3520	0.967841059602649	0.0187549668874172	0.168476821192053	0.593377483443709	0.415364238410596	-1.18490066225166				0.928953642384106	0.143788079470199	0.317139072847682	0.993907284768212	0.307814569536424	-0.30596026490066				0.997827814569536	-0.0172715231788079	-0.0239470198675496	-0.272582781456954	1.54649006622517	-0.20026490066225				0.464529801324503	-0.160529801324503	-0.837721854304636	2.76291390728477	1.5835761589404	-2.57562913907285				0.932026490066225	0.195496688741722	0.149933774834437	3.3117880794702	3.13192052980133	-1.17748344370861				0.623788079470199	-0.206834437086093	-0.708238410596026	-0.539602649006623	0.717615894039735	-2.71470198675497			
162	3540	1.01584105960265	0.0347549668874172	0.152476821192053	-5.00662251655629	-2.1046357615894	-0.624900662251656				0.928953642384106	0.143788079470199	0.333139072847682	-0.126092715231788	4.50781456953642	-0.0259602649006601				0.981827814569536	-0.0332715231788079	-0.00794701986754963	-2.51258278145695	1.82649006622517	-0.20026490066225				0.496529801324503	-0.224529801324503	-0.853721854304636	-3.95708609271523	-0.6564238410596	-5.37562913907285				0.932026490066225	0.211496688741722	0.181933774834437	3.5917880794702	6.21192052980133	-2.57748344370861				0.623788079470199	-0.174834437086093	-0.708238410596026	7.02039735099338	-2.08238410596027	-2.15470198675497			
163	3560	0.999841059602649	0.0347549668874172	0.152476821192053	-4.44662251655629	-3.7846357615894	-0.904900662251656				0.944953642384106	0.127788079470199	0.365139072847682	1.55390728476821	6.46781456953642	-0.30596026490066				0.997827814569536	-0.0492715231788079	-0.00794701986754963	0.847417218543046	0.986490066225167	-1.04026490066225				0.480529801324503	-0.160529801324503	-0.821721854304636	-10.9570860927152	-8.2164238410596	-3.97562913907285				0.916026490066225	0.227496688741722	0.181933774834437	-0.608211920529802	5.65192052980133	-1.73748344370861				0.591788079470199	-0.190834437086093	-0.692238410596026	8.98039735099338	-7.96238410596027	-0.754701986754968			
164	3580	0.951841059602649	0.0187549668874172	0.168476821192053	-0.526622516556291	-6.0246357615894	0.215099337748344				0.912953642384106	0.159788079470199	0.381139072847682	4.07390728476821	2.26781456953642	-0.0259602649006601				0.997827814569536	-0.0492715231788079	-0.00794701986754963	1.68741721854305	-2.65350993377483	-1.32026490066225				0.480529801324503	-0.144529801324503	-0.789721854304636	-3.95708609271523	-3.1764238410596	-2.57562913907285				0.932026490066225	0.211496688741722	0.197933774834437	3.5917880794702	5.93192052980133	-2.57748344370861				0.607788079470199	-0.222834437086093	-0.692238410596026	2.54039735099338	-3.48238410596027	-1.31470198675497			
165	3600	0.935841059602649	0.0187549668874172	0.168476821192053	-0.246622516556291	-5.1846357615894	0.495099337748344				0.928953642384106	0.143788079470199	0.317139072847682	3.23390728476821	3.94781456953642	0.25403973509934				0.981827814569536	-0.0652715231788079	-0.00794701986754963	1.68741721854305	-4.33350993377483	-1.04026490066225				0.496529801324503	-0.176529801324503	-0.821721854304636	1.92291390728477	-0.9364238410596	-4.25562913907285				0.932026490066225	0.211496688741722	0.181933774834437	3.0317880794702	6.21192052980133	-2.57748344370861				0.655788079470199	-0.222834437086093	-0.724238410596026	-6.13960264900662	0.717615894039735	0.365298013245032			
166	3620	0.983841059602649	0.0187549668874172	0.168476821192053	-3.32662251655629	-5.1846357615894	1.33509933774834				0.928953642384106	0.127788079470199	0.365139072847682	3.23390728476821	4.50781456953642	-1.14596026490066				0.965827814569536	-0.0492715231788079	-0.00794701986754963	0.567417218543046	-5.73350993377484	0.91973509933775				0.496529801324503	-0.144529801324503	-0.789721854304636	-0.317086092715232	-4.2964238410596	-5.65562913907285				0.900026490066225	0.227496688741722	0.213933774834437	5.5517880794702	9.29192052980133	-0.897483443708608				0.655788079470199	-0.190834437086093	-0.692238410596026	2.26039735099338	-6.84238410596027	0.0852980132450323			
167	3640	1.01584105960265	0.0507549668874172	0.184476821192053	-3.32662251655629	-8.26463576158941	2.73509933774834				0.880953642384106	0.143788079470199	0.397139072847682	5.47390728476821	0.307814569536424	-1.14596026490066				0.981827814569536	-0.0652715231788079	-0.00794701986754963	-1.11258278145695	-5.45350993377483	1.19973509933775				0.528529801324503	-0.0965298013245033	-0.773721854304636	-7.03708609271523	-3.1764238410596	-0.0556291390728476				0.932026490066225	0.227496688741722	0.245933774834437	4.4317880794702	5.65192052980133	-0.897483443708608				0.575788079470199	-0.206834437086093	-0.628238410596026	6.74039735099338	-5.44238410596027	-1.31470198675497			
168	3660	0.951841059602649	0.0347549668874172	0.152476821192053	-0.246622516556291	-12.1846357615894	1.89509933774834				0.912953642384106	0.143788079470199	0.445139072847682	2.11390728476821	2.82781456953642	-0.0259602649006601				1.01382781456954	-0.0652715231788079	0.00805298013245037	1.68741721854305	-7.69350993377483	0.0797350993377501				0.480529801324503	-0.160529801324503	-0.773721854304636	-0.0370860927152318	1.0235761589404	-0.335629139072848				0.852026490066225	0.211496688741722	0.245933774834437	5.2717880794702	2.01192052980133	-1.73748344370861				0.591788079470199	-0.222834437086093	-0.628238410596026	-3.61960264900662	3.51761589403974	-0.754701986754968			
169	3680	0.903841059602649	0.00275496688741723	0.216476821192053	6.75337748344371	-10.5046357615894	2.45509933774835				0.912953642384106	0.159788079470199	0.445139072847682	3.79390728476821	0.587814569536424	0.81403973509934				0.997827814569536	-0.0492715231788079	0.0240529801324504	3.08741721854305	-9.93350993377483	-0.48026490066225				0.480529801324503	-0.176529801324503	-0.805721854304636	3.88291390728477	1.5835761589404	-5.09562913907285				0.900026490066225	0.211496688741722	0.245933774834437	2.7517880794702	12.9319205298013	-3.69748344370861				0.607788079470199	-0.238834437086093	-0.692238410596026	3.38039735099338	-0.962384105960265	0.925298013245032			
170	3700	0.935841059602649	-0.0452450331125828	0.232476821192053	5.35337748344371	-1.8246357615894	3.57509933774835				0.912953642384106	0.111788079470199	0.349139072847682	5.19390728476821	-0.812185430463576	-0.585960264900661				0.965827814569536	-0.0492715231788079	0.00805298013245037	3.64741721854305	-10.7735099337748	-0.48026490066225				0.544529801324503	-0.112529801324503	-0.821721854304636	-6.19708609271523	2.9835761589404	-9.85562913907285				0.980026490066225	0.227496688741722	0.213933774834437	-1.1682119205298	14.8919205298013	-4.81748344370861				0.655788079470199	-0.238834437086093	-0.692238410596026	6.18039735099338	-1.52238410596026	1.76529801324503			
171	3720	0.999841059602649	-0.0452450331125828	0.216476821192053	-3.32662251655629	-1.5446357615894	1.33509933774834				0.912953642384106	0.0957880794701987	0.397139072847682	2.39390728476821	5.06781456953642	-0.30596026490066				0	0	0	0	0	0				0.608529801324503	-0.0965298013245033	-0.773721854304636	-7.59708609271523	7.7435761589404	-7.33562913907285				0.948026490066225	0.259496688741722	0.277933774834437	4.9917880794702	10.4119205298013	-2.85748344370861				0.639788079470199	-0.222834437086093	-0.612238410596026	-0.819602649006623	7.99761589403974	2.04529801324503			
172	3740	0	0	0	0	0	0				0	0	0	0	0	0				0	0	0	0	0	0				0.496529801324503	-0.128529801324503	-0.773721854304636	8.36291390728477	4.1035761589404	-3.97562913907285				0.884026490066225	0.195496688741722	0.261933774834437	6.3917880794702	5.65192052980133	-1.17748344370861				0.655788079470199	-0.238834437086093	-0.580238410596026	-2.77960264900662	13.3176158940397	0.925298013245032			
