No	Time	12-AccX	12-AccY	12-AccZ	12-GyroX	12-GyroY	12-GyroZ	13-AccX	13-AccY	13-AccZ	13-GyroX	13-GyroY	13-GyroZ	14-AccX	14-AccY	14-AccZ	14-GyroX	14-GyroY	14-GyroZ	15-AccX	15-AccY	15-AccZ	15-GyroX	15-GyroY	15-GyroZ	16-AccX	16-AccY	16-AccZ	16-GyroX	16-GyroY	16-GyroZ	17-AccX	17-AccY	17-AccZ	17-GyroX	17-GyroY	17-GyroZ
0	120	0	0	0	0	0	0				0.976953642384106	0.175788079470199	0.221139072847682	1.27390728476821	-3.89218543046358	1.37403973509934				-0.202172185430464	-0.113271523178808	-0.88794701986755	11.207417218543	-0.973509933774833	-1.04026490066225				0	0	0	0	0	0				0	0	0	0	0	0				0.623788079470199	0.00116556291390731	-0.724238410596026	0.0203973509933773	3.51761589403974	-3.27470198675497			
1	140	-0.168158940397351	0.162754966887417	-0.951523178807947	0.873377483443709	0.695364238410596	-1.74490066225166				0.960953642384106	0.191788079470199	0.221139072847682	1.27390728476821	-4.45218543046358	0.25403973509934				-0.202172185430464	-0.113271523178808	-0.90394701986755	17.087417218543	-0.973509933774833	-0.20026490066225				0.624529801324503	-0.304529801324503	-0.677721854304636	6.96291390728477	5.2235761589404	0.504370860927152				0.964026490066225	0.0994966887417219	0.101933774834437	-0.0482119205298018	-1.62807947019868	1.34251655629139				0.623788079470199	0.00116556291390731	-0.724238410596026	-0.539602649006623	3.51761589403974	-3.83470198675497			
2	160	-0.136158940397351	0.130754966887417	-0.935523178807947	1.43337748344371	1.5353642384106	-1.18490066225166				0.960953642384106	0.175788079470199	0.221139072847682	-0.126092715231788	-2.77218543046358	1.37403973509934				-0.202172185430464	-0.113271523178808	-0.90394701986755	12.047417218543	-0.693509933774834	0.0797350993377501				0.640529801324503	-0.304529801324503	-0.677721854304636	5.28291390728477	3.8235761589404	-0.0556291390728476				0.964026490066225	0.0994966887417219	0.101933774834437	0.791788079470198	-1.62807947019868	1.34251655629139				0.623788079470199	-0.0148344370860927	-0.724238410596026	0.860397350993377	2.39761589403974	-3.27470198675497			
3	180	-0.136158940397351	0.130754966887417	-0.935523178807947	1.15337748344371	0.135364238410596	-0.904900662251656				0.960953642384106	0.143788079470199	0.221139072847682	-1.24609271523179	-4.17218543046358	1.65403973509934				-0.202172185430464	-0.129271523178808	-0.87194701986755	8.12741721854305	0.146490066225167	0.91973509933775				0.640529801324503	-0.304529801324503	-0.677721854304636	2.48291390728477	1.8635761589404	-0.895629139072848				0.948026490066225	0.0994966887417219	0.117933774834437	2.1917880794702	-1.62807947019868	0.782516556291392				0.623788079470199	-0.0148344370860927	-0.708238410596026	-0.259602649006623	1.27761589403974	-1.59470198675497			
4	200	-0.152158940397351	0.130754966887417	-0.951523178807947	-0.246622516556291	-0.144635761589404	-1.74490066225166				0.944953642384106	0.111788079470199	0.189139072847682	-5.72609271523179	-3.89218543046358	-0.30596026490066				-0.202172185430464	-0.113271523178808	-0.90394701986755	5.60741721854305	0.706490066225167	0.35973509933775				0.640529801324503	-0.304529801324503	-0.677721854304636	1.36291390728477	-1.4964238410596	-0.335629139072848				0.948026490066225	0.0834966887417219	0.101933774834437	1.9117880794702	-2.46807947019868	1.34251655629139				0.639788079470199	-0.0148344370860927	-0.708238410596026	-0.819602649006623	-0.962384105960265	-0.474701986754968			
5	220	-0.152158940397351	0.130754966887417	-0.951523178807947	-0.526622516556291	0.415364238410596	-1.18490066225166				0.960953642384106	0.159788079470199	0.205139072847682	-9.64609271523179	-0.812185430463576	-0.30596026490066				-0.202172185430464	-0.113271523178808	-0.90394701986755	-2.23258278145695	1.82649006622517	0.91973509933775				0.608529801324503	-0.304529801324503	-0.677721854304636	-1.71708609271523	-3.1764238410596	-0.0556291390728476				0.948026490066225	0.0674966887417219	0.101933774834437	0.791788079470198	-2.18807947019868	0.222516556291392				0.623788079470199	-0.0308344370860927	-0.708238410596026	1.42039735099338	-2.92238410596027	1.20529801324503			
6	240	-0.152158940397351	0.130754966887417	-0.951523178807947	-0.526622516556291	-0.984635761589404	-0.904900662251656				0.960953642384106	0.159788079470199	0.205139072847682	-7.96609271523179	-1.93218543046358	1.65403973509934				-0.202172185430464	-0.113271523178808	-0.87194701986755	-11.472582781457	2.66649006622517	0.91973509933775				0.592529801324503	-0.288529801324503	-0.645721854304636	-3.67708609271523	-3.1764238410596	-0.0556291390728476				0.948026490066225	0.0834966887417219	0.117933774834437	-0.0482119205298018	-0.788079470198675	1.34251655629139				0.623788079470199	-0.0308344370860927	-0.708238410596026	-0.539602649006623	-2.08238410596027	1.76529801324503			
7	260	-0.152158940397351	0.130754966887417	-0.951523178807947	-1.36662251655629	0.135364238410596	-0.624900662251656				0.960953642384106	0.143788079470199	0.205139072847682	-5.44609271523179	0.867814569536424	2.21403973509934				-0.202172185430464	-0.113271523178808	-0.87194701986755	-12.032582781457	1.82649006622517	0.91973509933775				0.592529801324503	-0.288529801324503	-0.645721854304636	-1.71708609271523	-2.3364238410596	1.06437086092715				0.948026490066225	0.0674966887417219	0.117933774834437	-0.328211920529802	0.0519205298013249	1.62251655629139				0.639788079470199	-0.0148344370860927	-0.708238410596026	-0.539602649006623	-0.402384105960265	2.88529801324503			
8	280	-0.168158940397351	0.162754966887417	-0.935523178807947	-1.36662251655629	-0.424635761589404	-0.344900662251656				0.960953642384106	0.175788079470199	0.221139072847682	-3.48609271523179	2.54781456953642	1.09403973509934				-0.218172185430464	-0.129271523178808	-0.90394701986755	-10.632582781457	2.94649006622517	0.91973509933775				0.608529801324503	-0.288529801324503	-0.661721854304636	1.08291390728477	0.1835761589404	1.90437086092715				0.964026490066225	0.0834966887417219	0.117933774834437	-1.4482119205298	-0.228079470198675	1.62251655629139				0.655788079470199	-0.0148344370860927	-0.724238410596026	1.42039735099338	-0.122384105960265	2.88529801324503			
9	300	-0.152158940397351	0.162754966887417	-0.951523178807947	0.313377483443709	-0.144635761589404	-0.0649006622516557				0.976953642384106	0.159788079470199	0.189139072847682	-4.04609271523179	5.06781456953642	0.81403973509934				-0.202172185430464	-0.0972715231788079	-0.88794701986755	-16.232582781457	3.50649006622517	3.43973509933775				0.624529801324503	-0.304529801324503	-0.661721854304636	2.20291390728477	2.1435761589404	2.74437086092715				0.964026490066225	0.0674966887417219	0.117933774834437	-2.0082119205298	-1.34807947019868	2.74251655629139				0.655788079470199	-0.0148344370860927	-0.724238410596026	2.26039735099338	-0.122384105960265	2.04529801324503			
10	320	-0.152158940397351	0.162754966887417	-0.967523178807947	0.593377483443709	-0.144635761589404	-0.624900662251656				0.992953642384106	0.175788079470199	0.205139072847682	-4.32609271523179	3.94781456953642	-0.86596026490066				-0.202172185430464	-0.0972715231788079	-0.88794701986755	-14.272582781457	2.94649006622517	3.15973509933775				0.624529801324503	-0.304529801324503	-0.645721854304636	2.48291390728477	2.4235761589404	1.90437086092715				0.948026490066225	0.0834966887417219	0.149933774834437	-0.328211920529802	2.85192052980133	3.58251655629139				0.639788079470199	-0.0308344370860927	-0.740238410596026	1.14039735099338	-1.24238410596026	2.32529801324503			
11	340	-0.136158940397351	0.162754966887417	-0.935523178807947	-0.806622516556291	-0.424635761589404	-0.624900662251656				0.928953642384106	0.159788079470199	0.253139072847682	-1.24609271523179	-0.532185430463576	1.37403973509934				-0.218172185430464	-0.113271523178808	-0.87194701986755	-5.31258278145695	4.06649006622517	2.59973509933775				0.656529801324503	-0.304529801324503	-0.661721854304636	2.48291390728477	4.3835761589404	1.90437086092715				0.964026490066225	0.0834966887417219	0.0859337748344371	-0.0482119205298018	-1.62807947019868	2.74251655629139				0.639788079470199	-0.0148344370860927	-0.724238410596026	-0.539602649006623	-1.24238410596026	1.76529801324503			
12	360	-0.152158940397351	0.146754966887417	-0.935523178807947	0.313377483443709	-0.984635761589404	-2.02490066225166				0.928953642384106	0.191788079470199	0.237139072847682	3.51390728476821	0.867814569536424	3.05403973509934				-0.218172185430464	-0.0972715231788079	-0.88794701986755	-8.95258278145695	1.26649006622517	3.15973509933775				0.640529801324503	-0.288529801324503	-0.645721854304636	1.92291390728477	3.8235761589404	2.74437086092715				0.964026490066225	0.0834966887417219	0.117933774834437	-4.8082119205298	-0.508079470198675	3.02251655629139				0.623788079470199	-0.0148344370860927	-0.724238410596026	0.580397350993377	-0.682384105960265	1.76529801324503			
13	380	-0.136158940397351	0.162754966887417	-0.935523178807947	-0.246622516556291	-0.984635761589404	-1.74490066225166				0.976953642384106	0.159788079470199	0.205139072847682	4.07390728476821	7.30781456953642	3.89403973509934				-0.202172185430464	-0.0972715231788079	-0.88794701986755	-10.072582781457	-0.133509933774833	2.59973509933775				0.624529801324503	-0.288529801324503	-0.661721854304636	3.04291390728477	2.9835761589404	3.86437086092715				0.964026490066225	0.0994966887417219	0.117933774834437	-2.5682119205298	0.611920529801325	2.46251655629139				0.623788079470199	-0.0148344370860927	-0.708238410596026	1.14039735099338	-1.24238410596026	2.60529801324503			
14	400	-0.184158940397351	0.162754966887417	-0.951523178807947	-0.806622516556291	-0.144635761589404	-1.74490066225166				0.992953642384106	0.159788079470199	0.221139072847682	-2.08609271523179	3.10781456953642	-0.585960264900661				-0.202172185430464	-0.0812715231788079	-0.88794701986755	-11.192582781457	-0.693509933774834	3.99973509933775				0.640529801324503	-0.304529801324503	-0.677721854304636	5.00291390728477	2.9835761589404	3.02437086092715				0.980026490066225	0.0674966887417219	0.101933774834437	-0.888211920529802	1.17192052980133	1.62251655629139				0.607788079470199	-0.0308344370860927	-0.708238410596026	-0.819602649006623	-1.80238410596026	2.32529801324503			
15	420	-0.168158940397351	0.162754966887417	-0.951523178807947	1.15337748344371	0.415364238410596	-1.18490066225166				0.960953642384106	0.175788079470199	0.221139072847682	-2.92609271523179	-2.21218543046358	-0.86596026490066				-0.202172185430464	-0.0812715231788079	-0.90394701986755	-8.67258278145695	0.986490066225167	3.99973509933775				0.656529801324503	-0.320529801324503	-0.677721854304636	3.04291390728477	4.1035761589404	1.90437086092715				0.964026490066225	0.0674966887417219	0.117933774834437	-0.328211920529802	-1.62807947019868	1.90251655629139				0.623788079470199	-0.0148344370860927	-0.724238410596026	-2.21960264900662	-1.24238410596026	1.76529801324503			
16	440	-0.152158940397351	0.130754966887417	-0.951523178807947	0.313377483443709	0.415364238410596	-1.18490066225166				0.960953642384106	0.159788079470199	0.221139072847682	-0.126092715231788	1.98781456953642	0.53403973509934				-0.202172185430464	-0.0492715231788079	-0.90394701986755	-8.67258278145695	1.26649006622517	2.59973509933775				0.656529801324503	-0.320529801324503	-0.677721854304636	-0.597086092715232	2.4235761589404	1.90437086092715				0.980026490066225	0.0994966887417219	0.101933774834437	-1.4482119205298	-1.06807947019868	1.06251655629139				0.639788079470199	-0.0148344370860927	-0.740238410596026	-1.93960264900662	0.437615894039735	2.32529801324503			
17	460	-0.152158940397351	0.146754966887417	-0.935523178807947	0.0333774834437086	-0.424635761589404	-1.18490066225166				0.992953642384106	0.159788079470199	0.237139072847682	2.95390728476821	2.54781456953642	1.93403973509934				-0.218172185430464	-0.0652715231788079	-0.90394701986755	-5.87258278145695	2.10649006622517	2.31973509933775				0.640529801324503	-0.320529801324503	-0.677721854304636	0.802913907284768	2.1435761589404	3.02437086092715				0.980026490066225	0.0834966887417219	0.101933774834437	-1.1682119205298	-2.18807947019868	1.34251655629139				0.639788079470199	-0.0148344370860927	-0.724238410596026	-2.49960264900662	0.717615894039735	1.76529801324503			
18	480	-0.168158940397351	0.146754966887417	-0.951523178807947	-0.246622516556291	0.135364238410596	-0.344900662251656				0.976953642384106	0.159788079470199	0.189139072847682	3.51390728476821	-5.29218543046358	1.37403973509934				-0.218172185430464	-0.0492715231788079	-0.88794701986755	-3.91258278145695	1.54649006622517	1.75973509933775				0.640529801324503	-0.304529801324503	-0.693721854304636	1.08291390728477	2.1435761589404	3.02437086092715				0.964026490066225	0.0674966887417219	0.101933774834437	-0.0482119205298018	-2.46807947019868	1.34251655629139				0.639788079470199	-0.0148344370860927	-0.724238410596026	-3.05960264900662	0.717615894039735	0.365298013245032			
19	500	-0.168158940397351	0.146754966887417	-0.951523178807947	1.99337748344371	0.695364238410596	-0.624900662251656				0.960953642384106	0.175788079470199	0.189139072847682	-3.48609271523179	-2.77218543046358	-1.14596026490066				-0.218172185430464	-0.0652715231788079	-0.88794701986755	-1.67258278145695	1.54649006622517	1.47973509933775				0.640529801324503	-0.320529801324503	-0.677721854304636	1.08291390728477	0.1835761589404	2.18437086092715				0.964026490066225	0.0674966887417219	0.0859337748344371	-1.1682119205298	-3.58807947019868	-0.0574834437086077				0.639788079470199	-0.0148344370860927	-0.724238410596026	-2.21960264900662	-0.122384105960265	1.20529801324503			
20	520	-0.152158940397351	0.146754966887417	-0.951523178807947	0.0333774834437086	0.415364238410596	-0.344900662251656				0.944953642384106	0.159788079470199	0.205139072847682	-6.56609271523179	4.50781456953642	-0.30596026490066				-0.218172185430464	-0.0652715231788079	-0.88794701986755	-0.832582781456954	1.26649006622517	1.19973509933775				0.624529801324503	-0.304529801324503	-0.661721854304636	-0.317086092715232	-0.0964238410596001	1.90437086092715				0.964026490066225	0.0834966887417219	0.101933774834437	-1.7282119205298	-2.74807947019868	0.502516556291392				0.639788079470199	-0.0148344370860927	-0.724238410596026	-4.17960264900662	-0.402384105960265	2.04529801324503			
21	540	-0.152158940397351	0.146754966887417	-0.935523178807947	-1.36662251655629	0.135364238410596	0.215099337748344				0.944953642384106	0.143788079470199	0.221139072847682	-4.32609271523179	9.54781456953642	2.21403973509934				-0.202172185430464	-0.0652715231788079	-0.88794701986755	-3.63258278145695	0.426490066225167	0.63973509933775				0.608529801324503	-0.304529801324503	-0.661721854304636	-0.597086092715232	0.7435761589404	2.74437086092715				0.948026490066225	0.0674966887417219	0.101933774834437	-2.2882119205298	-2.18807947019868	0.782516556291392				0.623788079470199	-0.0148344370860927	-0.724238410596026	-3.89960264900662	-0.962384105960265	2.60529801324503			
22	560	-0.152158940397351	0.162754966887417	-0.935523178807947	0.873377483443709	-0.144635761589404	0.215099337748344				1.00895364238411	0.143788079470199	0.205139072847682	-3.76609271523179	4.50781456953642	-0.30596026490066				-0.218172185430464	-0.0492715231788079	-0.88794701986755	-2.51258278145695	0.426490066225167	0.35973509933775				0.608529801324503	-0.320529801324503	-0.661721854304636	-0.317086092715232	0.4635761589404	3.30437086092715				0.964026490066225	0.0674966887417219	0.101933774834437	-3.1282119205298	-2.74807947019868	-0.337483443708608				0.607788079470199	0.00116556291390731	-0.724238410596026	-3.33960264900662	-0.962384105960265	2.04529801324503			
23	580	-0.152158940397351	0.130754966887417	-0.967523178807947	1.43337748344371	0.135364238410596	-0.624900662251656				0.976953642384106	0.191788079470199	0.189139072847682	-6.84609271523179	-10.0521854304636	-3.10596026490066				-0.218172185430464	-0.0652715231788079	-0.90394701986755	0.00741721854304636	-0.413509933774833	0.35973509933775				0.624529801324503	-0.304529801324503	-0.645721854304636	-1.71708609271523	2.1435761589404	4.14437086092715				0.948026490066225	0.0834966887417219	0.0699337748344371	-3.4082119205298	-3.58807947019868	0.502516556291392				0.623788079470199	0.00116556291390731	-0.724238410596026	-3.61960264900662	-0.682384105960265	1.76529801324503			
24	600	-0.136158940397351	0.146754966887417	-0.967523178807947	0.0333774834437086	0.135364238410596	-1.46490066225166				0.928953642384106	0.143788079470199	0.173139072847682	0.153907284768212	-6.13218543046358	4.73403973509934				-0.218172185430464	-0.0652715231788079	-0.88794701986755	-0.272582781456954	-0.133509933774833	-0.48026490066225				0.608529801324503	-0.304529801324503	-0.645721854304636	-0.597086092715232	0.1835761589404	4.42437086092715				0.932026490066225	0.0834966887417219	0.101933774834437	-3.9682119205298	-1.06807947019868	1.06251655629139				0.623788079470199	0.00116556291390731	-0.740238410596026	-1.65960264900662	-1.52238410596026	2.04529801324503			
25	620	-0.152158940397351	0.146754966887417	-0.951523178807947	-1.64662251655629	-0.424635761589404	-2.30490066225166				0.960953642384106	0.111788079470199	0.237139072847682	1.83390728476821	8.14781456953643	5.57403973509934				-0.202172185430464	-0.0812715231788079	-0.85594701986755	3.64741721854305	1.54649006622517	-2.16026490066225				0.624529801324503	-0.304529801324503	-0.645721854304636	0.242913907284768	-0.0964238410596001	4.98437086092715				0.964026490066225	0.0514966887417219	0.101933774834437	-1.4482119205298	-0.508079470198675	1.62251655629139				0.607788079470199	0.00116556291390731	-0.724238410596026	-0.539602649006623	-2.36238410596027	1.76529801324503			
26	640	-0.152158940397351	0.162754966887417	-0.951523178807947	-0.246622516556291	-0.424635761589404	-2.58490066225166				0.976953642384106	0.159788079470199	0.285139072847682	-0.406092715231788	5.06781456953642	-1.14596026490066				-0.202172185430464	-0.0652715231788079	-0.90394701986755	3.64741721854305	0.986490066225167	-1.88026490066225				0.640529801324503	-0.320529801324503	-0.645721854304636	-0.317086092715232	2.4235761589404	4.14437086092715				0.980026490066225	0.0514966887417219	0.101933774834437	-0.328211920529802	-0.508079470198675	1.62251655629139				0.623788079470199	-0.0148344370860927	-0.724238410596026	-1.93960264900662	-1.52238410596026	0.645298013245032			
27	660	-0.136158940397351	0.146754966887417	-0.951523178807947	1.15337748344371	0.695364238410596	-1.74490066225166				0.992953642384106	0.191788079470199	0.253139072847682	-1.52609271523179	-1.93218543046358	-2.54596026490066				-0.186172185430464	-0.0652715231788079	-0.90394701986755	0.847417218543046	-3.77350993377483	-0.48026490066225				0.640529801324503	-0.336529801324503	-0.661721854304636	-0.317086092715232	3.5435761589404	5.26437086092715				0.980026490066225	0.0674966887417219	0.0859337748344371	-2.5682119205298	0.611920529801325	1.06251655629139				0.623788079470199	-0.0148344370860927	-0.740238410596026	-1.09960264900662	-0.962384105960265	-0.474701986754968			
28	680	-0.152158940397351	0.130754966887417	-0.951523178807947	0.593377483443709	0.415364238410596	-1.18490066225166				0.976953642384106	0.159788079470199	0.221139072847682	2.11390728476821	-1.65218543046358	0.53403973509934				-0.202172185430464	-0.0812715231788079	-0.90394701986755	1.12741721854305	-3.49350993377483	0.35973509933775				0.640529801324503	-0.320529801324503	-0.661721854304636	-0.597086092715232	2.7035761589404	5.82437086092715				0.980026490066225	0.0674966887417219	0.0859337748344371	-2.0082119205298	0.611920529801325	1.06251655629139				0.623788079470199	-0.0308344370860927	-0.724238410596026	-0.259602649006623	-0.402384105960265	0.645298013245032			
29	700	-0.136158940397351	0.146754966887417	-0.951523178807947	0.873377483443709	0.415364238410596	-1.18490066225166				0.960953642384106	0.143788079470199	0.205139072847682	5.19390728476821	1.98781456953642	1.37403973509934				-0.202172185430464	-0.0812715231788079	-0.88794701986755	6.16741721854305	-0.973509933774833	-0.48026490066225				0.656529801324503	-0.320529801324503	-0.661721854304636	1.08291390728477	3.5435761589404	5.26437086092715				0.980026490066225	0.0514966887417219	0.101933774834437	-0.888211920529802	-0.508079470198675	1.34251655629139				0.623788079470199	-0.0148344370860927	-0.724238410596026	-0.819602649006623	0.157615894039735	1.48529801324503			
30	720	-0.152158940397351	0.130754966887417	-0.967523178807947	0.873377483443709	0.975364238410596	-1.18490066225166				0.944953642384106	0.127788079470199	0.221139072847682	6.03390728476821	5.34781456953642	2.21403973509934				-0.218172185430464	-0.0972715231788079	-0.87194701986755	13.167417218543	0.986490066225167	-2.16026490066225				0.640529801324503	-0.320529801324503	-0.661721854304636	2.20291390728477	3.5435761589404	5.82437086092715				0.964026490066225	0.0674966887417219	0.101933774834437	-0.0482119205298018	-0.788079470198675	1.34251655629139				0.623788079470199	-0.0148344370860927	-0.708238410596026	-2.49960264900662	-1.24238410596026	1.48529801324503			
31	740	-0.152158940397351	0.146754966887417	-0.935523178807947	0.873377483443709	0.415364238410596	-0.624900662251656				0.960953642384106	0.159788079470199	0.237139072847682	4.63390728476821	1.14781456953642	-1.70596026490066				-0.202172185430464	-0.0492715231788079	-0.93594701986755	5.04741721854305	-1.25350993377483	-0.48026490066225				0.640529801324503	-0.320529801324503	-0.661721854304636	-0.877086092715232	1.5835761589404	4.14437086092715				0.964026490066225	0.0674966887417219	0.101933774834437	0.231788079470198	-0.508079470198675	0.502516556291392				0.623788079470199	-0.0308344370860927	-0.724238410596026	-0.819602649006623	-2.64238410596027	1.48529801324503			
32	760	-0.168158940397351	0.130754966887417	-0.935523178807947	0.0333774834437086	0.135364238410596	-1.18490066225166				0.992953642384106	0.159788079470199	0.237139072847682	-2.64609271523179	-1.09218543046358	-3.10596026490066				-0.218172185430464	-0.0652715231788079	-0.87194701986755	-2.23258278145695	-0.973509933774833	0.91973509933775				0.640529801324503	-0.320529801324503	-0.645721854304636	-4.51708609271523	-2.8964238410596	3.58437086092715				0.980026490066225	0.0674966887417219	0.101933774834437	-1.7282119205298	-1.34807947019868	0.782516556291392				0.639788079470199	-0.0308344370860927	-0.724238410596026	0.580397350993377	-2.36238410596027	1.48529801324503			
33	780	-0.168158940397351	0.130754966887417	-0.935523178807947	-0.806622516556291	0.695364238410596	-1.18490066225166				0.976953642384106	0.127788079470199	0.205139072847682	-2.08609271523179	-2.77218543046358	-0.30596026490066				-0.234172185430464	-0.0972715231788079	-0.83994701986755	1.40741721854305	1.82649006622517	-0.48026490066225				0.624529801324503	-0.320529801324503	-0.661721854304636	-4.23708609271523	-4.2964238410596	3.02437086092715				0.964026490066225	0.0674966887417219	0.101933774834437	-2.5682119205298	-1.90807947019868	0.222516556291392				0.623788079470199	-0.0308344370860927	-0.724238410596026	-1.37960264900662	-1.24238410596026	1.76529801324503			
34	800	-0.168158940397351	0.130754966887417	-0.951523178807947	-0.806622516556291	0.695364238410596	-0.624900662251656				0.912953642384106	0.159788079470199	0.189139072847682	0.153907284768212	-4.17218543046358	-0.86596026490066				-0.202172185430464	-0.0812715231788079	-0.85594701986755	12.607417218543	2.66649006622517	-2.44026490066225				0.624529801324503	-0.304529801324503	-0.661721854304636	-2.55708609271523	-4.2964238410596	2.18437086092715				0.964026490066225	0.0514966887417219	0.117933774834437	-0.608211920529802	-2.18807947019868	-0.617483443708608				0.623788079470199	0.00116556291390731	-0.724238410596026	-2.21960264900662	-1.24238410596026	2.04529801324503			
35	820	-0.168158940397351	0.130754966887417	-0.935523178807947	-2.76662251655629	0.695364238410596	-1.18490066225166				0.976953642384106	0.175788079470199	0.173139072847682	-2.36609271523179	-2.77218543046358	-4.78596026490066				-0.218172185430464	-0.0812715231788079	-0.90394701986755	14.847417218543	-1.53350993377483	-2.16026490066225				0.608529801324503	-0.288529801324503	-0.645721854304636	0.802913907284768	-4.2964238410596	-0.335629139072848				0.948026490066225	0.0674966887417219	0.101933774834437	-0.328211920529802	-3.30807947019868	0.502516556291392				0.623788079470199	0.00116556291390731	-0.724238410596026	-1.93960264900662	-2.08238410596027	0.925298013245032			
36	840	-0.168158940397351	0.146754966887417	-0.935523178807947	-4.16662251655629	0.415364238410596	-0.0649006622516557				1.00895364238411	0.191788079470199	0.189139072847682	-7.12609271523179	-8.09218543046358	-6.74596026490066				-0.218172185430464	-0.0652715231788079	-0.93594701986755	5.04741721854305	-1.53350993377483	0.91973509933775				0.608529801324503	-0.304529801324503	-0.645721854304636	2.48291390728477	-4.0164238410596	-1.45562913907285				0.948026490066225	0.0834966887417219	0.0699337748344371	-0.328211920529802	-2.74807947019868	0.222516556291392				0.607788079470199	0.00116556291390731	-0.724238410596026	-1.37960264900662	-2.92238410596027	0.0852980132450323			
37	860	-0.168158940397351	0.146754966887417	-0.951523178807947	-1.36662251655629	1.5353642384106	1.05509933774834				0.992953642384106	0.191788079470199	0.205139072847682	-6.00609271523179	-8.37218543046358	-4.50596026490066				-0.234172185430464	-0.0812715231788079	-0.88794701986755	4.20741721854305	1.54649006622517	1.75973509933775				0.624529801324503	-0.304529801324503	-0.645721854304636	3.04291390728477	-3.1764238410596	-2.29562913907285				0.964026490066225	0.0834966887417219	0.0859337748344371	-0.888211920529802	-3.58807947019868	-0.0574834437086077				0.607788079470199	0.00116556291390731	-0.740238410596026	1.14039735099338	-2.36238410596027	-1.03470198675497			
38	880	-0.152158940397351	0.146754966887417	-0.935523178807947	-1.36662251655629	2.0953642384106	1.05509933774834				0.912953642384106	0.127788079470199	0.237139072847682	-5.16609271523179	-6.13218543046358	-1.14596026490066				-0.218172185430464	-0.113271523178808	-0.87194701986755	5.32741721854305	2.94649006622517	1.47973509933775				0.608529801324503	-0.320529801324503	-0.661721854304636	5.28291390728477	0.7435761589404	-2.57562913907285				0.964026490066225	0.0674966887417219	0.101933774834437	0.511788079470198	-1.62807947019868	1.34251655629139				0.607788079470199	0.00116556291390731	-0.756238410596026	-0.259602649006623	-1.24238410596026	-1.87470198675497			
39	900	-0.136158940397351	0.130754966887417	-0.935523178807947	-2.48662251655629	0.975364238410596	-0.624900662251656				0.928953642384106	0.159788079470199	0.205139072847682	-1.80609271523179	-6.69218543046358	-0.86596026490066				-0.202172185430464	-0.113271523178808	-0.88794701986755	3.64741721854305	2.10649006622517	0.63973509933775				0.608529801324503	-0.320529801324503	-0.677721854304636	4.44291390728477	3.5435761589404	-2.85562913907285				0.964026490066225	0.0674966887417219	0.0539337748344371	3.0317880794702	-3.02807947019868	1.34251655629139				0.607788079470199	0.00116556291390731	-0.740238410596026	-2.49960264900662	0.157615894039735	-1.31470198675497			
40	920	-0.152158940397351	0.130754966887417	-0.951523178807947	-3.32662251655629	0.415364238410596	-1.18490066225166				0.976953642384106	0.143788079470199	0.205139072847682	-8.52609271523179	-8.93218543046358	-0.86596026490066				-0.186172185430464	-0.113271523178808	-0.85594701986755	1.40741721854305	0.706490066225167	0.35973509933775				0.608529801324503	-0.336529801324503	-0.645721854304636	4.72291390728477	4.3835761589404	-2.29562913907285				0.948026490066225	0.0674966887417219	0.117933774834437	-2.5682119205298	3.69192052980133	1.62251655629139				0.591788079470199	0.0171655629139073	-0.724238410596026	-0.539602649006623	-1.52238410596026	-0.474701986754968			
41	940	-0.168158940397351	0.146754966887417	-0.951523178807947	-4.16662251655629	0.415364238410596	-1.46490066225166				0.976953642384106	0.191788079470199	0.189139072847682	-19.4460927152318	-10.8921854304636	-5.06596026490066				-0.202172185430464	-0.129271523178808	-0.93594701986755	0.00741721854304636	-0.413509933774833	1.19973509933775				0.592529801324503	-0.320529801324503	-0.661721854304636	6.12291390728477	4.1035761589404	-0.0556291390728476				0.964026490066225	0.0514966887417219	0.0699337748344371	-1.1682119205298	1.17192052980133	0.502516556291392				0.607788079470199	0.00116556291390731	-0.724238410596026	1.70039735099338	-2.08238410596027	-1.31470198675497			
42	960	-0.152158940397351	0.146754966887417	-0.951523178807947	-4.16662251655629	0.975364238410596	-1.18490066225166				0.928953642384106	0.191788079470199	0.221139072847682	-15.8060927152318	-6.69218543046358	1.09403973509934				-0.218172185430464	-0.0972715231788079	-0.90394701986755	-6.99258278145695	1.54649006622517	3.71973509933775				0	0	0	0	0	0				0	0	0	0	0	0				0	0	0	0	0	0			
43	1100	-0.152158940397351	0.130754966887417	-0.967523178807947	-2.76662251655629	0.135364238410596	-0.904900662251656				0.944953642384106	0.127788079470199	0.253139072847682	-19.1660927152318	15.9878145695364	-1.70596026490066				-0.186172185430464	-0.0332715231788079	-0.82394701986755	35.007417218543	13.0264900662252	0.35973509933775				0.592529801324503	-0.352529801324503	-0.709721854304636	-13.7570860927152	-8.4964238410596	8.34437086092715				0.948026490066225	0.0674966887417219	0.0859337748344371	-7.8882119205298	5.09192052980133	-4.81748344370861				0.607788079470199	0.0331655629139073	-0.740238410596026	-11.1796026490066	-8.52238410596027	9.32529801324503			
44	1120	-0.200158940397351	0.162754966887417	-0.951523178807947	-1.08662251655629	0.975364238410596	-0.904900662251656				0.960953642384106	0.159788079470199	0.253139072847682	-14.9660927152318	7.30781456953642	-1.70596026490066				-0.154172185430464	-0.0812715231788079	-0.90394701986755	61.0474172185431	10.5064900662252	-6.36026490066225				0.576529801324503	-0.368529801324503	-0.693721854304636	-18.2370860927152	-10.1764238410596	8.06437086092715				0.932026490066225	0.0834966887417219	0.101933774834437	-9.2882119205298	9.57192052980133	-4.81748344370861				0.607788079470199	0.0331655629139073	-0.772238410596026	-6.97960264900662	-8.52238410596027	6.52529801324503			
45	1140	-0.216158940397351	0.194754966887417	-0.967523178807947	3.39337748344371	2.0953642384106	-0.624900662251656				0.960953642384106	0.0637880794701987	0.189139072847682	-13.5660927152318	0.0278145695364242	4.45403973509934				-0.202172185430464	-0.209271523178808	-0.96794701986755	54.6074172185431	10.7864900662252	2.87973509933775				0.544529801324503	-0.352529801324503	-0.677721854304636	-24.1170860927152	-13.2564238410596	6.38437086092715				0.932026490066225	0.0514966887417219	0.0699337748344371	-9.2882119205298	11.5319205298013	-3.13748344370861				0.623788079470199	0.0171655629139073	-0.772238410596026	-1.65960264900662	-7.12238410596027	4.28529801324503			
46	1160	-0.200158940397351	0.146754966887417	-0.951523178807947	8.15337748344371	-0.984635761589404	0.215099337748344				1.07295364238411	0.0957880794701987	0.189139072847682	-19.1660927152318	3.94781456953642	5.01403973509934				-0.282172185430464	-0.177271523178808	-0.93594701986755	30.8074172185431	11.6264900662252	10.9997350993378				0.528529801324503	-0.320529801324503	-0.661721854304636	-25.5170860927152	-14.9364238410596	8.34437086092715				0.948026490066225	0.0514966887417219	0.117933774834437	-9.8482119205298	16.0119205298013	-0.617483443708608				0.575788079470199	-0.0308344370860927	-0.740238410596026	-0.539602649006623	-6.00238410596027	6.24529801324503			
47	1180	-0.120158940397351	0.146754966887417	-0.839523178807947	-14.2466225165563	1.8153642384106	0.495099337748344				1.00895364238411	0.175788079470199	0.237139072847682	-9.64609271523179	7.02781456953642	4.17403973509934				-0.234172185430464	-0.129271523178808	-0.83994701986755	15.407417218543	14.4264900662252	14.6397350993378				0.560529801324503	-0.304529801324503	-0.677721854304636	-17.6770860927152	-12.1364238410596	9.74437086092715				0.996026490066225	0.0514966887417219	0.101933774834437	-11.2482119205298	16.8519205298013	1.06251655629139				0.575788079470199	-0.0468344370860927	-0.740238410596026	-4.45960264900662	-3.20238410596026	11.565298013245			
48	1200	-0.152158940397351	0.0987549668874172	-0.951523178807947	-4.72662251655629	0.695364238410596	-2.02490066225166				0.864953642384106	0.159788079470199	0.301139072847682	6.31390728476821	10.6678145695364	6.41403973509934				-0.154172185430464	-0.129271523178808	-0.90394701986755	11.487417218543	5.74649006622517	14.0797350993378				0.576529801324503	-0.304529801324503	-0.693721854304636	-10.3970860927152	-5.4164238410596	10.5843708609272				0.996026490066225	0.0514966887417219	0.0859337748344371	-10.6882119205298	16.2919205298013	1.34251655629139				0.575788079470199	-0.0788344370860927	-0.772238410596026	-10.3396026490066	-0.962384105960265	20.525298013245			
49	1220	-0.104158940397351	0.146754966887417	-1.01552317880795	-8.64662251655629	1.5353642384106	-1.18490066225166				0.912953642384106	0.0957880794701987	0.253139072847682	8.83390728476821	14.0278145695364	8.65403973509934				-0.138172185430464	-0.113271523178808	-0.96794701986755	18.767417218543	5.74649006622517	10.4397350993378				0.592529801324503	-0.336529801324503	-0.677721854304636	-10.6770860927152	1.5835761589404	8.06437086092715				0.964026490066225	0.0514966887417219	0.101933774834437	-9.5682119205298	14.0519205298013	2.46251655629139				0.591788079470199	-0.0788344370860927	-0.756238410596026	-9.49960264900662	2.39761589403974	27.525298013245			
50	1240	-0.104158940397351	0.178754966887417	-0.935523178807947	-4.16662251655629	2.3753642384106	-2.58490066225166				1.08895364238411	0.111788079470199	0.189139072847682	-14.1260927152318	15.7078145695364	1.09403973509934				-0.170172185430464	-0.0172715231788079	-0.96794701986755	5.60741721854305	6.30649006622517	7.63973509933775				0.560529801324503	-0.320529801324503	-0.661721854304636	-18.2370860927152	2.4235761589404	8.90437086092715				0.964026490066225	0.0674966887417219	0.0859337748344371	-12.3682119205298	12.3719205298013	2.46251655629139				0.575788079470199	-0.0628344370860927	-0.724238410596026	-9.21960264900662	4.07761589403974	35.085298013245			
51	1260	-0.120158940397351	0.178754966887417	-0.983523178807947	-5.56662251655629	1.2553642384106	-0.344900662251656				1.02495364238411	0.175788079470199	0.205139072847682	-27.8460927152318	5.06781456953642	0.81403973509934				-0.218172185430464	-0.0652715231788079	-0.98394701986755	-8.95258278145695	4.06649006622517	6.79973509933775				0.544529801324503	-0.320529801324503	-0.693721854304636	-19.3570860927152	1.8635761589404	10.3043708609272				0.964026490066225	0.0674966887417219	0.117933774834437	-14.8882119205298	13.7719205298013	-0.0574834437086077				0.591788079470199	-0.0148344370860927	-0.756238410596026	-6.41960264900662	0.437615894039735	40.125298013245			
52	1280	-0.152158940397351	0.194754966887417	-0.999523178807947	-0.806622516556291	4.3353642384106	0.495099337748344				1.04095364238411	0.175788079470199	0.317139072847682	-8.24609271523179	10.3878145695364	12.2940397350993				-0.234172185430464	-0.0332715231788079	-0.99994701986755	-25.472582781457	7.70649006622517	5.39973509933775				0.576529801324503	-0.336529801324503	-0.725721854304636	-19.9170860927152	1.8635761589404	14.5043708609272				0.996026490066225	0.0514966887417219	0.181933774834437	-17.9682119205298	15.1719205298013	-0.0574834437086077				0.655788079470199	0.00116556291390731	-0.820238410596026	-2.77960264900662	-3.20238410596026	37.885298013245			
53	1300	-0.120158940397351	0.162754966887417	-0.935523178807947	3.39337748344371	5.1753642384106	1.61509933774834				0.976953642384106	0.0317880794701987	0.413139072847682	34.3139072847682	8.42781456953642	29.9340397350993				-0.218172185430464	-0.0332715231788079	-0.96794701986755	-46.472582781457	11.0664900662252	3.43973509933775				0.640529801324503	-0.368529801324503	-0.741721854304636	-16.2770860927152	4.6635761589404	18.1443708609272				1.01202649006623	0.0514966887417219	0.181933774834437	-16.8482119205298	19.3719205298013	2.46251655629139				0.719788079470199	0.0331655629139073	-0.884238410596026	1.42039735099338	-1.80238410596026	29.765298013245			
54	1320	-0.152158940397351	0.146754966887417	-0.903523178807947	-1.64662251655629	4.0553642384106	0.215099337748344				1.07295364238411	0.143788079470199	0.333139072847682	34.3139072847682	15.9878145695364	14.8140397350993				-0.202172185430464	0.0307284768211921	-0.96794701986755	-62.712582781457	7.42649006622517	-1.04026490066225				0.688529801324503	-0.336529801324503	-0.725721854304636	-16.8370860927152	4.6635761589404	21.2243708609272				1.02802649006623	0.0354966887417219	0.181933774834437	-13.2082119205298	25.2519205298013	6.10251655629139				0.719788079470199	0.0491655629139073	-0.900238410596026	8.14039735099338	-4.32238410596027	19.125298013245			
55	1340	-0.184158940397351	0.178754966887417	-0.919523178807947	-5.56662251655629	4.6153642384106	-1.18490066225166				1.04095364238411	0.207788079470199	0.285139072847682	7.71390728476821	4.78781456953642	-7.58596026490066				-0.218172185430464	0.0787284768211921	-0.99994701986755	-61.592582781457	-0.973509933774833	-6.36026490066225				0.720529801324503	-0.352529801324503	-0.741721854304636	-10.6770860927152	-0.9364238410596	29.3443708609272				1.09202649006623	0.0674966887417219	0.165933774834437	-9.8482119205298	24.1319205298013	4.42251655629139				0.687788079470199	0.0331655629139073	-0.900238410596026	8.98039735099338	-13.5623841059603	8.20529801324503			
56	1360	-0.152158940397351	0.178754966887417	-0.951523178807947	-9.48662251655629	6.0153642384106	1.33509933774834				1.05695364238411	0.255788079470199	0.125139072847682	-20.8460927152318	-16.2121854304636	-14.8659602649007				-0.250172185430464	0.110728476821192	-1.07994701986755	-65.512582781457	-8.25350993377483	-11.4002649006623				0.704529801324503	-0.384529801324503	-0.805721854304636	1.64291390728477	-6.2564238410596	40.5443708609272				1.04402649006623	0.0994966887417219	0.133933774834437	-12.0882119205298	17.1319205298013	2.46251655629139				0.671788079470199	0.00116556291390731	-0.900238410596026	4.50039735099338	-29.5223841059603	0.925298013245032			
57	1380	-0.152158940397351	0.194754966887417	-0.967523178807947	-12.5666225165563	5.7353642384106	4.69509933774834				1.10495364238411	0.239788079470199	0.109139072847682	-16.6460927152318	-22.9321854304636	-11.5059602649007				-0.0741721854304636	0.0627284768211921	-1.06394701986755	-97.152582781457	-48.2935099337748	-8.32026490066225				0.704529801324503	-0.400529801324503	-0.869721854304636	1.08291390728477	-14.3764238410596	46.1443708609272				1.04402649006623	0.0834966887417219	0.133933774834437	-11.2482119205298	11.5319205298013	1.34251655629139				0.575788079470199	-0.0308344370860927	-0.900238410596026	-6.97960264900662	-41.5623841059603	0.0852980132450323			
58	1400	-0.168158940397351	0.178754966887417	-0.967523178807947	-13.4066225165563	4.3353642384106	7.77509933774834				1.24895364238411	0.239788079470199	0.189139072847682	16.6739072847682	-29.0921854304636	3.89403973509934				-0.138172185430464	0.126728476821192	-0.91994701986755	-57.112582781457	-123.053509933775	-31.0002649006623				0.640529801324503	-0.400529801324503	-0.885721854304636	-11.2370860927152	-28.0964238410596	41.9443708609272				1.07602649006623	0.0674966887417219	0.0859337748344371	-3.9682119205298	11.5319205298013	0.222516556291392				0.511788079470199	-0.0308344370860927	-0.884238410596026	-18.1796026490066	-46.6023841059603	2.32529801324503			
59	1420	-0.216158940397351	0.226754966887417	-1.04752317880795	-6.96662251655629	4.6153642384106	10.2950993377483				0.672953642384106	0.0637880794701987	0.205139072847682	17.2339072847682	-19.8521854304636	-0.0259602649006601				-0.106172185430464	0.0307284768211921	-0.80794701986755	-32.192582781457	-119.973509933775	-7.76026490066225				0.592529801324503	-0.400529801324503	-0.869721854304636	-24.3970860927152	-36.4964238410596	34.9443708609272				1.07602649006623	0.115496688741722	0.0539337748344371	-4.2482119205298	12.9319205298013	-1.17748344370861				0.511788079470199	0.0491655629139073	-0.980238410596026	-21.5396026490066	-58.0823841059603	8.20529801324503			
60	1440	-0.184158940397351	0.194754966887417	-1.23952317880795	-13.9666225165563	13.0153642384106	10.2950993377483				0.656953642384106	0.0477880794701987	0.269139072847682	-12.4460927152318	43.9878145695364	8.65403973509934				-0.298172185430464	-0.145271523178808	-0.79194701986755	54.8874172185431	-7.13350993377484	-38.0002649006623				0.624529801324503	-0.416529801324503	-0.869721854304636	-24.3970860927152	-41.5364238410596	35.2243708609272				0.996026490066225	0.115496688741722	0.133933774834437	4.4317880794702	20.4919205298013	-2.01748344370861				0.495788079470199	0.0811655629139073	-1.02823841059603	-11.4596026490066	-72.3623841059603	6.52529801324503			
61	1460	-0.136158940397351	0.178754966887417	-0.887523178807947	-13.6866225165563	19.4553642384106	6.37509933774834				1.10495364238411	0.239788079470199	0.413139072847682	-24.2060927152318	56.5878145695364	12.8540397350993				-0.330172185430464	-0.113271523178808	-1.07994701986755	26.3274172185431	17.2264900662252	-43.6002649006623				0.672529801324503	-0.416529801324503	-0.853721854304636	-23.8370860927152	-43.4964238410596	36.9043708609272				1.02802649006623	0.131496688741722	0.229933774834437	16.1917880794702	15.1719205298013	0.502516556291392				0.463788079470199	0.0811655629139073	-0.980238410596026	0.300397350993377	-79.3623841059603	0.925298013245032			
62	1480	-0.120158940397351	0.210754966887417	-0.855523178807947	-8.64662251655629	18.6153642384106	3.29509933774834				1.34495364238411	0.111788079470199	0.237139072847682	-23.0860927152318	35.3078145695364	18.4540397350993				-0.282172185430464	-0.0492715231788079	-0.91994701986755	28.287417218543	15.5464900662252	-46.6802649006623				0.720529801324503	-0.320529801324503	-0.885721854304636	-36.7170860927152	-44.3364238410596	34.9443708609272				1.23602649006623	0.0994966887417219	0.245933774834437	26.2717880794702	13.4919205298013	-1.45748344370861				0.495788079470199	-0.0468344370860927	-0.964238410596026	10.9403973509934	-76.0023841059603	11.285298013245			
63	1500	-0.360158940397351	0.194754966887417	-1.14352317880795	-11.4466225165563	31.7753642384106	5.81509933774834				1.29695364238411	0.271788079470199	0.109139072847682	-33.7260927152318	10.6678145695364	10.6140397350993				-0.474172185430464	-0.161271523178808	-0.95194701986755	-14.272582781457	28.7064900662252	-42.7602649006623				0.608529801324503	-0.272529801324503	-0.885721854304636	-38.1170860927152	-44.8964238410596	24.8643708609272				1.30002649006623	0.0514966887417219	0.197933774834437	27.3917880794702	1.73192052980133	-5.93748344370861				0.479788079470199	-0.0788344370860927	-0.948238410596026	1.70039735099338	-72.9223841059603	16.325298013245			
64	1520	-0.392158940397351	0.258754966887417	-1.07952317880795	-22.3666225165563	36.8153642384106	7.77509933774834				0.928953642384106	0.303788079470199	0.509139072847682	-53.3260927152318	27.1878145695364	21.8140397350993				-0.490172185430464	-0.0812715231788079	-1.12794701986755	18.2074172185431	34.0264900662252	-38.5602649006623				0.560529801324503	-0.240529801324503	-0.901721854304636	-28.0370860927152	-42.9364238410596	12.5443708609272				1.15602649006623	0.0994966887417219	0.357933774834437	23.4717880794702	1.73192052980133	-6.49748344370861				0.575788079470199	-0.0788344370860927	-0.964238410596026	-11.7396026490066	-50.2423841059603	5.96529801324503			
65	1540	-0.136158940397351	0.322754966887417	-0.983523178807947	3.11337748344371	41.2953642384106	9.73509933774834				1.39295364238411	0.0317880794701987	0.845139072847682	-8.52609271523179	47.9078145695364	40.5740397350993				-0.314172185430464	-0.401271523178808	-0.71194701986755	-10.352582781457	40.4664900662252	-24.8402649006623				0.768529801324503	-0.256529801324503	-0.885721854304636	4.44291390728477	-21.3764238410596	-2.85562913907285				1.09202649006623	0.243496688741722	0.485933774834437	24.3117880794702	11.2519205298013	-7.05748344370861				0.623788079470199	-0.0628344370860927	-0.980238410596026	-7.81960264900662	-38.4823841059603	-3.83470198675497			
66	1560	-0.200158940397351	0.274754966887417	-0.983523178807947	10.1133774834437	46.0553642384106	13.6550993377483				1.44095364238411	0.111788079470199	0.493139072847682	32.3539072847682	-17.0521854304636	12.8540397350993				-0.202172185430464	-0.721271523178808	-0.82394701986755	-21.272582781457	49.4264900662252	3.99973509933775				0.768529801324503	-0.288529801324503	-0.869721854304636	0.522913907284768	1.5835761589404	-13.2156291390728				1.26802649006623	0.0994966887417219	0.389933774834437	33.5517880794702	14.6119205298013	-4.25748344370861				0.607788079470199	-0.0308344370860927	-0.900238410596026	5.62039735099338	-29.5223841059603	-2.71470198675497			
67	1580	-0.264158940397351	0.114754966887417	-1.06352317880795	1.15337748344371	58.9353642384106	15.0550993377483				1.18495364238411	0.159788079470199	0.157139072847682	33.7539072847682	-42.8121854304636	-4.22596026490066				-0.202172185430464	-0.225271523178808	-1.03194701986755	-54.592582781457	57.8264900662252	21.9197350993378				0.560529801324503	-0.224529801324503	-0.805721854304636	-11.2370860927152	8.5835761589404	-20.4956291390729				1.23602649006623	0.0354966887417219	0.309933774834437	27.6717880794702	-2.46807947019868	-5.65748344370861				0.607788079470199	-0.0628344370860927	-0.884238410596026	8.14039735099338	-19.7223841059603	-1.87470198675497			
68	1600	-0.136158940397351	0.194754966887417	-1.01552317880795	-14.2466225165563	61.7353642384106	17.0150993377483				1.10495364238411	-0.0802119205298013	0.445139072847682	-1.52609271523179	-9.77218543046358	17.8940397350993				-0.106172185430464	0.190728476821192	-1.01594701986755	-57.112582781457	67.6264900662252	24.7197350993378				0.480529801324503	-0.192529801324503	-0.805721854304636	-1.71708609271523	13.9035761589404	-18.8156291390729				0.996026490066225	0.163496688741722	0.357933774834437	10.3117880794702	-12.5480794701987	-4.81748344370861				0.671788079470199	-0.110834437086093	-0.964238410596026	3.38039735099338	-15.5223841059603	-13.354701986755			
69	1620	0.071841059602649	0.194754966887417	-0.983523178807947	-11.1666225165563	67.8953642384106	21.2150993377483				1.15295364238411	0.0157880794701987	0.413139072847682	-20.5660927152318	-17.8921854304636	22.0940397350993				-0.154172185430464	0.254728476821192	-0.96794701986755	-15.112582781457	65.3864900662252	14.9197350993378				0.464529801324503	-0.272529801324503	-0.853721854304636	21.2429139072848	22.5835761589404	-9.01562913907285				1.10802649006623	0.0354966887417219	0.309933774834437	11.9917880794702	-5.26807947019868	-0.337483443708608				0.655788079470199	-0.126834437086093	-0.964238410596026	5.34039735099338	-13.0023841059603	-22.034701986755			
70	1640	0.151841059602649	0.130754966887417	-1.01552317880795	-8.92662251655629	67.8953642384106	24.8550993377483				1.05695364238411	0.111788079470199	0.301139072847682	-9.64609271523179	-59.0521854304636	10.3340397350993				-0.138172185430464	0.0467284768211921	-0.96794701986755	22.967417218543	65.3864900662252	21.3597350993378				0.448529801324503	-0.368529801324503	-0.933721854304636	33.5629139072848	22.5835761589404	3.30437086092715				1.10802649006623	0.0354966887417219	0.293933774834437	-1.7282119205298	-11.4280794701987	2.74251655629139				0.607788079470199	-0.110834437086093	-0.932238410596026	-2.49960264900662	-0.122384105960265	-15.594701986755			
71	1660	0.151841059602649	0.162754966887417	-0.983523178807947	-8.64662251655629	70.4153642384106	25.1350993377483				0.976953642384106	-0.000211920529801304	0.237139072847682	7.99390728476821	-55.9721854304636	-1.42596026490066				-0.0741721854304636	-0.0652715231788079	-1.01594701986755	18.487417218543	69.8664900662252	19.1197350993378				0.528529801324503	-0.368529801324503	-0.917721854304636	26.0029139072848	14.4635761589404	6.94437086092715				1.01202649006623	0.115496688741722	0.261933774834437	-12.6482119205298	-12.8280794701987	4.98251655629139				0.543788079470199	-0.0948344370860927	-0.948238410596026	-5.01960264900662	19.4776158940397	-6.91470198675497			
72	1680	0.007841059602649	0.210754966887417	-1.04752317880795	-1.64662251655629	73.4953642384106	25.9750993377483				1.26495364238411	-0.0322119205298013	0.429139072847682	5.19390728476821	3.38781456953642	3.61403973509934				-0.0101721854304636	-0.0332715231788079	-0.98394701986755	-5.87258278145695	76.8664900662252	16.8797350993378				0.656529801324503	-0.432529801324503	-0.869721854304636	10.6029139072848	7.4635761589404	8.06437086092715				1.06002649006623	0.0994966887417219	0.229933774834437	-5.0882119205298	-11.9880794701987	4.14251655629139				0.447788079470199	-0.0948344370860927	-0.884238410596026	-5.29960264900662	19.1976158940397	-0.474701986754968			
73	1700	0.023841059602649	0.226754966887417	-1.06352317880795	-2.76662251655629	74.8953642384106	26.8150993377483				1.28095364238411	0.111788079470199	0.301139072847682	11.6339072847682	-3.05218543046358	16.7740397350993				-0.0741721854304636	0.0627284768211921	-1.01594701986755	-8.67258278145695	79.6664900662252	14.6397350993378				0.688529801324503	-0.448529801324503	-0.869721854304636	4.44291390728477	9.7035761589404	8.90437086092715				1.14002649006623	0.0674966887417219	0.309933774834437	0.511788079470198	-6.94807947019868	4.70251655629139				0.415788079470199	-0.126834437086093	-0.900238410596026	-10.8996026490066	13.8776158940397	0.0852980132450323			
74	1720	0.119841059602649	0.370754966887417	-0.983523178807947	-3.32662251655629	78.2553642384106	24.5750993377483				1.20095364238411	0.239788079470199	0.365139072847682	5.19390728476821	-50.6521854304636	7.81403973509934				-0.0741721854304636	0.0467284768211921	-1.06394701986755	-13.712582781457	83.3064900662252	14.3597350993378				0.672529801324503	-0.336529801324503	-0.869721854304636	3.32291390728477	13.6235761589404	3.86437086092715				1.17202649006623	0.0834966887417219	0.309933774834437	-14.6082119205298	-12.8280794701987	-0.337483443708608				0.463788079470199	-0.126834437086093	-0.996238410596026	-10.3396026490066	13.8776158940397	3.44529801324503			
75	1740	0.183841059602649	0.370754966887417	-0.983523178807947	-10.0466225165563	86.3753642384106	24.8550993377483				1.04095364238411	0.127788079470199	0.173139072847682	30.6739072847682	-106.092185430464	-20.1859602649007				-0.0261721854304636	0.0467284768211921	-0.99994701986755	-7.27258278145696	91.7064900662252	14.0797350993378				0.608529801324503	-0.288529801324503	-0.869721854304636	10.0429139072848	15.8635761589404	-9.01562913907285				1.17202649006623	0.0834966887417219	0.229933774834437	-21.8882119205298	-17.0280794701987	-1.45748344370861				0.495788079470199	-0.0948344370860927	-1.01223841059603	-8.93960264900662	23.6776158940397	3.72529801324503			
76	1760	0.199841059602649	0.386754966887417	-0.935523178807947	-7.24662251655629	93.3753642384106	17.2950993377483				1.07295364238411	-0.128211920529801	0.221139072847682	5.19390728476821	-49.2521854304636	-20.1859602649007				-0.0101721854304636	0.0307284768211921	-1.03194701986755	-8.95258278145695	97.0264900662252	15.7597350993378				0.624529801324503	-0.400529801324503	-0.853721854304636	19.8429139072848	20.9035761589404	-10.1356291390728				1.14002649006623	0.131496688741722	0.149933774834437	-12.3682119205298	-15.6280794701987	-0.897483443708608				0.495788079470199	-0.0308344370860927	-0.980238410596026	-8.09960264900662	34.3176158940397	3.16529801324503			
77	1780	0.295841059602649	0.386754966887417	-0.935523178807947	31.3933774834437	103.735364238411	14.2150993377483				1.21695364238411	0.0477880794701987	0.157139072847682	-4.88609271523179	-21.8121854304636	-12.6259602649007				0.0538278145695364	0.0147284768211921	-0.93594701986755	-10.912582781457	103.746490066225	16.5997350993378				0.592529801324503	-0.432529801324503	-0.885721854304636	20.9629139072848	25.1035761589404	-11.5356291390728				1.14002649006623	0.0674966887417219	0.165933774834437	-0.608211920529802	-13.6680794701987	2.18251655629139				0.495788079470199	-0.0308344370860927	-0.884238410596026	-8.09960264900662	40.1976158940397	7.92529801324503			
78	1800	0.311841059602649	0.274754966887417	-0.967523178807947	41.1933774834437	110.735364238411	16.7350993377483				1.24895364238411	0.271788079470199	0.0131390728476822	-5.16609271523179	-24.3321854304636	-4.50596026490066				0.101827814569536	0.0627284768211921	-0.93594701986755	-10.352582781457	109.906490066225	15.1997350993378				0.544529801324503	-0.336529801324503	-0.837721854304636	10.3229139072848	25.6635761589404	-12.6556291390728				1.10802649006623	0.0514966887417219	0.197933774834437	-12.6482119205298	-21.5080794701987	2.74251655629139				0.527788079470199	-0.0148344370860927	-0.868238410596026	-17.3396026490066	48.5976158940397	9.32529801324503			
79	1820	0.295841059602649	0.178754966887417	-0.967523178807947	36.4333774834437	114.095364238411	17.0150993377483				1.07295364238411	0.351788079470199	0.189139072847682	13.3139072847682	-37.4921854304636	-15.4259602649007				0.133827814569536	0.158728476821192	-0.93594701986755	-5.31258278145695	112.146490066225	11.8397350993378				0.528529801324503	-0.320529801324503	-0.789721854304636	8.64291390728477	26.5035761589404	-10.6956291390728				1.07602649006623	0.163496688741722	0.181933774834437	-25.2482119205298	-27.6680794701987	0.222516556291392				0.575788079470199	0.00116556291390731	-0.868238410596026	-20.1396026490066	52.5176158940397	6.80529801324503			
80	1840	0.375841059602649	0.130754966887417	-0.871523178807947	25.5133774834437	113.535364238411	16.4550993377483				0.992953642384106	0.111788079470199	0.333139072847682	18.0739072847682	-38.6121854304636	-12.3459602649007				0.165827814569536	0.142728476821192	-0.93594701986755	1.96741721854305	114.666490066225	11.2797350993378				0.544529801324503	-0.304529801324503	-0.789721854304636	20.1229139072848	34.3435761589404	-14.6156291390728				1.01202649006623	0.195496688741722	0.149933774834437	-22.1682119205298	-23.4680794701987	-3.13748344370861				0.543788079470199	-0.0308344370860927	-0.820238410596026	-12.8596026490066	55.5976158940397	11.005298013245			
81	1860	0.471841059602649	0.0667549668874172	-0.887523178807947	26.0733774834437	106.255364238411	18.1350993377483				1.05695364238411	-0.0802119205298013	0.109139072847682	5.75390728476821	-43.6521854304636	-10.6659602649007				-0.0421721854304636	0.0787284768211921	-0.88794701986755	10.927417218543	113.546490066225	10.1597350993378				0.544529801324503	-0.304529801324503	-0.789721854304636	24.0429139072848	44.9835761589404	-14.6156291390728				0.996026490066225	0.115496688741722	0.149933774834437	-11.5282119205298	-17.8680794701987	-2.85748344370861				0.559788079470199	0.0491655629139073	-0.820238410596026	-29.0996026490066	56.4376158940397	10.165298013245			
82	1880	0.519841059602649	0.00275496688741723	-0.839523178807947	17.9533774834437	109.335364238411	18.1350993377483				1.10495364238411	-0.000211920529801304	-0.0188609271523178	-2.64609271523179	-31.6121854304636	-5.06596026490066				0.421827814569536	0.0147284768211921	-0.80794701986755	4.76741721854305	109.066490066225	5.39973509933775				0.528529801324503	-0.336529801324503	-0.725721854304636	24.0429139072848	48.0635761589404	-10.9756291390728				1.02802649006623	0.00349668874172187	0.149933774834437	-4.2482119205298	-17.5880794701987	4.42251655629139				0.591788079470199	0.0971655629139073	-0.836238410596026	-25.4596026490066	55.3176158940397	4.28529801324503			
83	1900	0.567841059602649	0.0667549668874172	-0.791523178807947	1.43337748344371	115.495364238411	20.9350993377483				1.02495364238411	0.255788079470199	0.109139072847682	6.31390728476821	-22.9321854304636	-4.78596026490066				0.485827814569536	0.0307284768211921	-0.77594701986755	-1.67258278145695	111.026490066225	-2.16026490066225				0.560529801324503	-0.384529801324503	-0.677721854304636	17.0429139072848	40.7835761589404	-9.01562913907285				0.980026490066225	0.0674966887417219	0.149933774834437	-22.1682119205298	-22.9080794701987	5.26251655629139				0.623788079470199	0.0491655629139073	-0.868238410596026	-17.0596026490066	55.5976158940397	0.0852980132450323			
84	1920	0.567841059602649	0.0827549668874172	-0.711523178807947	-0.246622516556291	116.335364238411	23.7350993377483				0.944953642384106	0.255788079470199	0.205139072847682	24.7939072847682	-41.1321854304636	-10.6659602649007				0.501827814569536	0.126728476821192	-0.77594701986755	-1.11258278145695	110.746490066225	-6.08026490066225				0.560529801324503	-0.352529801324503	-0.693721854304636	14.8029139072848	34.9035761589404	-5.09562913907285				0.932026490066225	0.131496688741722	0.0699337748344371	-29.1682119205298	-25.1480794701987	4.42251655629139				0.607788079470199	0.0171655629139073	-0.804238410596027	-1.65960264900662	59.5176158940397	1.20529801324503			
85	1940	0.599841059602649	0.114754966887417	-0.727523178807947	7.03337748344371	116.895364238411	27.0950993377483				0.992953642384106	-0.128211920529801	0.0291390728476822	11.0739072847682	-49.2521854304636	10.8940397350993				0.533827814569536	0.158728476821192	-0.74394701986755	10.647417218543	110.746490066225	-8.88026490066225				0.544529801324503	-0.368529801324503	-0.661721854304636	17.3229139072848	34.0635761589404	-1.73562913907285				0.916026490066225	0.0994966887417219	0.0539337748344371	-19.9282119205298	-17.3080794701987	2.18251655629139				0.575788079470199	0.0331655629139073	-0.788238410596027	-16.2196026490066	60.9176158940397	-0.474701986754968			
86	1960	0.663841059602649	0.0347549668874172	-0.679523178807947	-0.526622516556291	119.415364238411	27.3750993377483				0.912953642384106	-0.0802119205298013	-0.0348609271523178	-13.0060927152318	-37.2121854304636	13.9740397350993				0.501827814569536	0.110728476821192	-0.69594701986755	19.327417218543	114.106490066225	-12.8002649006623				0.544529801324503	-0.368529801324503	-0.677721854304636	19.5629139072848	34.0635761589404	1.90437086092715				0.948026490066225	-0.0125033112582781	0.101933774834437	-4.5282119205298	-16.7480794701987	5.54251655629139				0.527788079470199	0.113165562913907	-0.756238410596026	-27.9796026490066	57.2776158940397	-6.63470198675497			
87	2100	0.599841059602649	0.226754966887417	-0.471523178807947	11.2333774834437	112.415364238411	11.1350993377483				0.496953642384106	0.143788079470199	-0.130860927152318	30.3939072847682	-47.8521854304636	-19.6259602649007				0.565827814569536	-0.0972715231788079	-0.58394701986755	13.727417218543	110.186490066225	-17.0002649006623				0	0	0	0	0	0				0	0	0	0	0	0				0	0	0	0	0	0			
88	2120	0.583841059602649	0.210754966887417	-0.471523178807947	19.6333774834437	112.135364238411	10.8550993377483				0.624953642384106	-0.000211920529801304	-0.0508609271523178	4.91390728476821	-22.3721854304636	-3.94596026490066				0.597827814569536	-0.145271523178808	-0.53594701986755	19.607417218543	117.746490066225	-19.8002649006623				0.496529801324503	-0.336529801324503	-0.453721854304636	20.9629139072848	-0.0964238410596001	27.3843708609272				0.676026490066225	0.0514966887417219	0.0219337748344371	-1.7282119205298	-17.0280794701987	15.3425165562914				0.463788079470199	0.113165562913907	-0.612238410596026	26.0603973509934	-7.40238410596027	-4.39470198675497			
89	2140	0.679841059602649	0.130754966887417	-0.423523178807947	35.0333774834437	107.655364238411	7.21509933774835				0.848953642384106	-0.0482119205298013	-0.0828609271523179	-11.6060927152318	6.18781456953642	12.8540397350993				0.597827814569536	-0.0812715231788079	-0.48794701986755	19.0474172185431	109.906490066225	-16.4402649006623				0.496529801324503	-0.240529801324503	-0.421721854304636	3.60291390728477	-12.6964238410596	20.3843708609272				0.708026490066225	-0.0125033112582781	0.0539337748344371	8.3517880794702	-12.5480794701987	16.1825165562914				0.431788079470199	0.0651655629139073	-0.580238410596026	36.7003973509934	-16.0823841059603	0.645298013245032			
90	2160	0.743841059602649	0.0987549668874172	-0.439523178807947	31.6733774834437	97.8553642384106	1.05509933774834				0.848953642384106	0.111788079470199	-0.0508609271523178	-5.16609271523179	14.8678145695364	13.6940397350993				0.501827814569536	-0.113271523178808	-0.45594701986755	-8.39258278145695	97.0264900662252	-8.04026490066225				0.464529801324503	-0.240529801324503	-0.405721854304636	10.6029139072848	-17.7364238410596	17.0243708609272				0.740026490066225	0.00349668874172187	0.0539337748344371	7.2317880794702	-18.7080794701987	17.8625165562914				0.415788079470199	0.0651655629139073	-0.564238410596026	28.8603973509934	-17.7623841059603	1.76529801324503			
91	2180	0.727841059602649	0.114754966887417	-0.471523178807947	25.5133774834437	95.8953642384106	3.29509933774834				0.752953642384106	0.255788079470199	-0.0668609271523178	25.6339072847682	-17.3321854304636	-5.62596026490066				0.757827814569536	-0.0972715231788079	-0.50394701986755	-3.91258278145695	100.386490066225	-6.36026490066225				0.480529801324503	-0.368529801324503	-0.453721854304636	25.4429139072848	-16.6164238410596	20.9443708609272				0.724026490066225	0.0194966887417219	0.0379337748344371	9.1917880794702	-20.1080794701987	17.0225165562914				0.447788079470199	0.0971655629139073	-0.580238410596026	25.2203973509934	-19.1623841059603	-9.99470198675497			
92	2200	0.775841059602649	0.0987549668874172	-0.375523178807947	29.1533774834437	94.7753642384106	6.37509933774834				0.656953642384106	0.0637880794701987	-0.0508609271523178	20.3139072847682	-17.6121854304636	-7.30596026490066				0.773827814569536	-0.0172715231788079	-0.47194701986755	-6.99258278145695	90.0264900662252	1.19973509933775				0.512529801324503	-0.480529801324503	-0.501721854304636	29.3629139072848	-15.7764238410596	25.9843708609272				0.724026490066225	0.0194966887417219	0.0219337748344371	14.2317880794702	-20.3880794701987	14.2225165562914				0.495788079470199	0.0491655629139073	-0.564238410596026	22.9803973509934	-23.3623841059603	-20.634701986755			
93	2220	0.871841059602649	-0.0292450331125828	-0.423523178807947	31.9533774834437	88.8953642384106	2.17509933774834				0.688953642384106	-0.112211920529801	0.0611390728476822	-25.3260927152318	13.4678145695364	3.33403973509934				0.725827814569536	-0.0332715231788079	-0.42394701986755	-24.912582781457	78.2664900662252	9.87973509933775				0.512529801324503	-0.448529801324503	-0.517721854304636	8.08291390728477	-23.8964238410596	22.9043708609272				0.740026490066225	-0.0285033112582781	0.0539337748344371	14.2317880794702	-13.6680794701987	10.8625165562914				0.479788079470199	-0.0148344370860927	-0.564238410596026	22.4203973509934	-27.5623841059603	-22.594701986755			
94	2240	0.855841059602649	-0.0932450331125828	-0.423523178807947	15.9933774834437	84.4153642384106	4.13509933774834				0.832953642384106	-0.000211920529801304	0.125139072847682	-37.6460927152318	23.2678145695364	3.05403973509934				0.773827814569536	-0.0652715231788079	-0.42394701986755	-42.832582781457	78.2664900662252	14.0797350993378				0.464529801324503	-0.432529801324503	-0.517721854304636	-9.83708609271523	-26.9764238410596	17.8643708609272				0.756026490066225	-0.0445033112582781	0.0859337748344371	12.5517880794702	-11.9880794701987	8.06251655629139				0.447788079470199	-0.0628344370860927	-0.532238410596027	21.5803973509934	-31.7623841059603	-15.314701986755			
95	2260	0.743841059602649	-0.0292450331125828	-0.343523178807947	10.9533774834437	82.4553642384106	12.2550993377483				0.784953642384106	0.0637880794701987	0.0931390728476822	-19.7260927152318	13.7478145695364	3.89403973509934				0.805827814569536	-0.0332715231788079	-0.34394701986755	-40.592582781457	66.7864900662252	16.0397350993378				0.432529801324503	-0.400529801324503	-0.517721854304636	-6.19708609271523	-22.4964238410596	17.3043708609272				0.740026490066225	-0.0445033112582781	0.117933774834437	8.6317880794702	-9.18807947019868	5.54251655629139				0.479788079470199	-0.0468344370860927	-0.500238410596026	4.22039735099338	-27.8423841059603	-13.074701986755			
96	2280	0.743841059602649	-0.0612450331125828	-0.311523178807947	12.6333774834437	73.2153642384106	17.5750993377483				0.720953642384106	0.127788079470199	0.0931390728476822	-4.60609271523179	5.34781456953642	-0.0259602649006601				0.821827814569536	-0.0332715231788079	-0.32794701986755	-43.672582781457	51.9464900662252	15.4797350993378				0.464529801324503	-0.400529801324503	-0.501721854304636	0.242913907284768	-15.7764238410596	18.9843708609272				0.724026490066225	-0.0445033112582781	0.0859337748344371	7.5117880794702	-8.34807947019868	3.30251655629139				0.511788079470199	-0.0628344370860927	-0.532238410596027	-0.539602649006623	-23.6423841059603	-15.034701986755			
97	2300	0.935841059602649	-0.125245033112583	-0.247523178807947	6.19337748344371	69.8553642384106	19.5350993377483				0.816953642384106	0.0797880794701987	0.0451390728476822	7.43390728476821	6.46781456953642	0.81403973509934				0.901827814569536	-0.00127152317880793	-0.32794701986755	-35.272582781457	37.9464900662252	16.3197350993378				0.464529801324503	-0.384529801324503	-0.501721854304636	-5.35708609271523	-15.4964238410596	16.7443708609272				0.740026490066225	-0.0285033112582781	0.0699337748344371	5.5517880794702	-6.94807947019868	1.90251655629139				0.527788079470199	-0.0788344370860927	-0.532238410596027	10.9403973509934	-21.6823841059603	-13.074701986755			
98	2320	0.983841059602649	-0.0452450331125828	-0.231523178807947	-13.1266225165563	62.8553642384106	14.7750993377483				1.00895364238411	-0.0322119205298013	-0.0348609271523178	-1.52609271523179	1.70781456953642	5.01403973509934				0.949827814569536	0.0307284768211921	-0.34394701986755	-25.752582781457	29.8264900662252	16.5997350993378				0.448529801324503	-0.400529801324503	-0.501721854304636	-20.1970860927152	-19.9764238410596	10.5843708609272				0.804026490066225	-0.0445033112582781	0.101933774834437	0.791788079470198	0.331920529801325	-1.45748344370861				0.543788079470199	-0.0788344370860927	-0.548238410596027	16.8203973509934	-17.4823841059603	-8.31470198675497			
99	2340	0.967841059602649	0.0507549668874172	-0.167523178807947	-13.6866225165563	59.2153642384106	11.9750993377483				0.912953642384106	0.0157880794701987	0.0931390728476822	-13.0060927152318	-5.29218543046358	1.09403973509934				0.917827814569536	0.0147284768211921	-0.35994701986755	-28.272582781457	22.8264900662252	16.0397350993378				0.448529801324503	-0.400529801324503	-0.533721854304636	-17.1170860927152	-12.4164238410596	7.78437086092715				0.884026490066225	-0.0765033112582781	0.133933774834437	-5.3682119205298	6.21192052980133	-2.29748344370861				0.559788079470199	-0.0788344370860927	-0.564238410596026	14.0203973509934	-11.8823841059603	-3.27470198675497			
100	2360	0.919841059602649	0.0987549668874172	-0.135523178807947	-10.3266225165563	52.2153642384106	8.33509933774834				0.800953642384106	0.0317880794701987	0.0931390728476822	-11.3260927152318	-5.01218543046358	-4.22596026490066				0.885827814569536	-0.00127152317880793	-0.32794701986755	-31.632582781457	19.1864900662252	13.5197350993378				0.496529801324503	-0.416529801324503	-0.565721854304636	-8.15708609271523	-0.9364238410596	7.50437086092715				0.884026490066225	-0.0445033112582781	0.117933774834437	-12.9282119205298	2.29192052980133	-3.41748344370861				0.607788079470199	-0.0628344370860927	-0.628238410596026	11.7803973509934	-6.84238410596027	-1.87470198675497			
101	2380	0.967841059602649	0.0827549668874172	-0.087523178807947	3.67337748344371	50.2553642384106	2.73509933774834				0.960953642384106	-0.000211920529801304	0.141139072847682	-11.3260927152318	7.58781456953643	-6.74596026490066				0.869827814569536	0.0147284768211921	-0.29594701986755	-25.752582781457	21.4264900662252	9.03973509933775				0.528529801324503	-0.416529801324503	-0.581721854304636	-6.19708609271523	8.3035761589404	4.70437086092715				0.900026490066225	-0.0125033112582781	0.117933774834437	-15.1682119205298	3.69192052980133	-3.69748344370861				0.623788079470199	-0.0468344370860927	-0.660238410596027	7.02039735099338	-0.402384105960265	-2.15470198675497			
102	2400	1.01584105960265	0.0347549668874172	-0.087523178807947	12.3533774834437	42.6953642384106	0.215099337748344				1.04095364238411	-0.000211920529801304	0.0931390728476822	-9.36609271523179	5.06781456953642	-5.34596026490066				0.917827814569536	0.0627284768211921	-0.26394701986755	-21.832582781457	20.3064900662252	6.51973509933775				0	0	0	0	0	0				0.948026490066225	-0.0125033112582781	0.117933774834437	-13.4882119205298	9.01192052980133	-2.29748344370861				0.639788079470199	-0.0308344370860927	-0.708238410596026	3.66039735099338	5.47761589403974	-2.99470198675497			
103	2420	0.967841059602649	-0.0612450331125828	-0.023523178807947	14.8733774834437	38.7753642384106	-2.02490066225166				0.992953642384106	0.0317880794701987	0.0131390728476822	-8.80609271523179	-4.45218543046358	-0.86596026490066				0.965827814569536	0.0627284768211921	-0.26394701986755	-15.112582781457	15.2664900662252	5.39973509933775				0.624529801324503	-0.432529801324503	-0.597721854304636	-10.1170860927152	6.3435761589404	3.02437086092715				0.948026490066225	-0.0125033112582781	0.133933774834437	-15.4482119205298	10.6919205298013	-2.01748344370861				0.639788079470199	-0.0148344370860927	-0.724238410596026	4.78039735099338	5.19761589403974	-3.27470198675497			
104	2440	0.919841059602649	-0.0772450331125828	-0.055523178807947	8.99337748344371	31.4953642384106	-0.344900662251656				0.880953642384106	0.143788079470199	-0.00286092715231785	-3.20609271523179	-4.17218543046358	-6.18596026490066				0.965827814569536	0.0147284768211921	-0.26394701986755	-4.19258278145695	9.38649006622517	2.59973509933775				0.656529801324503	-0.416529801324503	-0.597721854304636	-7.59708609271523	5.5035761589404	3.86437086092715				0.948026490066225	0.00349668874172187	0.117933774834437	-15.7282119205298	10.9719205298013	-0.897483443708608				0.639788079470199	-0.0148344370860927	-0.724238410596026	4.22039735099338	1.83761589403974	-3.27470198675497			
105	2460	0.935841059602649	-0.0772450331125828	-0.071523178807947	3.67337748344371	32.3353642384106	-0.0649006622516557				0.944953642384106	0.127788079470199	0.0291390728476822	5.19390728476821	-5.85218543046358	-5.34596026490066				0.917827814569536	0.0147284768211921	-0.27994701986755	2.52741721854305	4.90649006622517	-0.20026490066225				0.672529801324503	-0.384529801324503	-0.613721854304636	-7.31708609271523	-1.4964238410596	1.90437086092715				0.948026490066225	0.0354966887417219	0.117933774834437	-10.9682119205298	8.17192052980133	-0.617483443708608				0.607788079470199	-0.0308344370860927	-0.708238410596026	0.0203973509933773	-0.402384105960265	-4.67470198675497			
106	2480	0.983841059602649	-0.0452450331125828	-0.071523178807947	-1.92662251655629	32.8953642384106	1.33509933774834				0.960953642384106	0.0957880794701987	0.0131390728476822	9.39390728476821	2.26781456953642	-1.14596026490066				0.885827814569536	-0.00127152317880793	-0.27994701986755	5.88741721854305	4.06649006622517	-1.32026490066225				0.656529801324503	-0.416529801324503	-0.613721854304636	-10.9570860927152	-5.4164238410596	-1.17562913907285				0.964026490066225	0.0354966887417219	0.101933774834437	-9.0082119205298	4.81192052980133	-2.57748344370861				0.575788079470199	0.0171655629139073	-0.708238410596026	-3.33960264900662	-1.24238410596026	-6.91470198675497			
107	2500	0.999841059602649	0.0187549668874172	-0.055523178807947	-7.52662251655629	30.3753642384106	-0.344900662251656				0.976953642384106	0.0797880794701987	-0.00286092715231785	9.95390728476821	1.70781456953642	-0.0259602649006601				0.901827814569536	-0.0172715231788079	-0.26394701986755	8.12741721854305	8.82649006622517	-0.20026490066225				0.640529801324503	-0.416529801324503	-0.629721854304636	-9.55708609271523	-7.9364238410596	-0.895629139072848				0.980026490066225	0.0354966887417219	0.0859337748344371	-4.8082119205298	4.53192052980133	-3.13748344370861				0.559788079470199	0.0331655629139073	-0.724238410596026	-0.819602649006623	-2.64238410596027	-7.19470198675497			
108	2520	0.967841059602649	0.0987549668874172	-0.103523178807947	-1.08662251655629	24.2153642384106	-2.02490066225166				0.976953642384106	0.111788079470199	-0.0188609271523178	1.83390728476821	-0.532185430463576	-4.22596026490066				0.901827814569536	-0.0332715231788079	-0.27994701986755	7.84741721854305	8.26649006622517	0.63973509933775				0.624529801324503	-0.416529801324503	-0.645721854304636	-10.1170860927152	-7.9364238410596	-1.73562913907285				0.964026490066225	0.0194966887417219	0.101933774834437	1.0717880794702	2.57192052980133	-3.13748344370861				0.559788079470199	0.0171655629139073	-0.740238410596026	2.26039735099338	-1.24238410596026	-4.67470198675497			
109	2540	0.919841059602649	0.0347549668874172	-0.087523178807947	6.47337748344371	21.9753642384106	-2.86490066225166				1.00895364238411	0.127788079470199	-0.0348609271523178	0.153907284768212	2.54781456953642	-2.82596026490066				0.917827814569536	-0.0332715231788079	-0.29594701986755	1.68741721854305	8.82649006622517	3.43973509933775				0.576529801324503	-0.400529801324503	-0.629721854304636	-12.3570860927152	-8.7764238410596	-3.97562913907285				0.948026490066225	0.0354966887417219	0.101933774834437	2.1917880794702	3.41192052980132	-3.41748344370861				0.575788079470199	0.00116556291390731	-0.740238410596026	2.82039735099338	2.11761589403974	-3.83470198675497			
110	2560	0.967841059602649	-0.0452450331125828	-0.071523178807947	6.47337748344371	19.4553642384106	-2.58490066225166				1.00895364238411	0.127788079470199	0.0451390728476822	3.79390728476821	0.867814569536424	1.65403973509934				0.965827814569536	-0.0332715231788079	-0.32794701986755	0.567417218543046	6.86649006622517	5.11973509933775				0.528529801324503	-0.416529801324503	-0.613721854304636	-12.0770860927152	-9.3364238410596	-2.85562913907285				0.964026490066225	0.0194966887417219	0.0379337748344371	3.0317880794702	1.17192052980133	-3.41748344370861				0.575788079470199	0.00116556291390731	-0.724238410596026	-0.259602649006623	5.19761589403974	-3.55470198675497			
111	2580	0.999841059602649	-0.0452450331125828	-0.135523178807947	1.43337748344371	12.1753642384106	-2.58490066225166				0.992953642384106	0.0797880794701987	0.0131390728476822	4.07390728476821	3.66781456953642	4.17403973509934				0.933827814569536	-0.0172715231788079	-0.34394701986755	-3.07258278145695	3.50649006622517	5.39973509933775				0.512529801324503	-0.416529801324503	-0.629721854304636	-5.63708609271523	-5.4164238410596	2.46437086092715				0.932026490066225	0.00349668874172187	0.101933774834437	3.0317880794702	3.41192052980132	-3.13748344370861				0.591788079470199	0.00116556291390731	-0.724238410596026	0.0203973509933773	2.39761589403974	-2.71470198675497			
112	2600	0.983841059602649	-0.0292450331125828	-0.103523178807947	-7.52662251655629	13.8553642384106	-1.46490066225166				0.928953642384106	0.0797880794701987	0.0131390728476822	0.433907284768212	1.70781456953642	-3.38596026490066				0.853827814569536	-0.0172715231788079	-0.34394701986755	-9.79258278145695	-0.133509933774833	3.99973509933775				0.496529801324503	-0.416529801324503	-0.661721854304636	1.36291390728477	1.8635761589404	6.10437086092715				0.932026490066225	-0.0125033112582781	0.0859337748344371	2.7517880794702	2.57192052980133	-3.97748344370861				0.607788079470199	0.0171655629139073	-0.740238410596026	1.14039735099338	-1.80238410596026	-4.11470198675497			
113	2620	0.967841059602649	0.00275496688741723	-0.087523178807947	-8.92662251655629	13.8553642384106	0.215099337748344				0.944953642384106	0.0637880794701987	-0.00286092715231785	3.79390728476821	1.42781456953642	-4.50596026490066				0.869827814569536	0.0307284768211921	-0.32794701986755	-12.312582781457	-0.693509933774834	3.43973509933775				0.528529801324503	-0.432529801324503	-0.677721854304636	-2.55708609271523	1.5835761589404	4.70437086092715				0.948026490066225	0.00349668874172187	0.0859337748344371	0.791788079470198	2.57192052980133	-3.69748344370861				0.623788079470199	0.0171655629139073	-0.740238410596026	1.98039735099338	-3.48238410596027	-4.39470198675497			
114	2640	0.967841059602649	0.0347549668874172	-0.087523178807947	-6.12662251655629	10.4953642384106	-1.18490066225166				1.04095364238411	0.0797880794701987	-0.0828609271523179	0.993907284768212	0.867814569536424	-1.70596026490066				0.917827814569536	0.0627284768211921	-0.32794701986755	-12.592582781457	-1.53350993377483	4.27973509933775				0.528529801324503	-0.400529801324503	-0.661721854304636	-8.43708609271523	-0.6564238410596	2.74437086092715				0.964026490066225	0.00349668874172187	0.0699337748344371	-0.608211920529802	3.97192052980133	-2.85748344370861				0.623788079470199	0.0171655629139073	-0.740238410596026	1.42039735099338	-3.20238410596026	-4.95470198675497			
115	2660	0.983841059602649	0.0187549668874172	-0.087523178807947	-2.48662251655629	8.5353642384106	-2.86490066225166				1.02495364238411	0.0957880794701987	-0.0348609271523178	-3.48609271523179	2.82781456953642	-0.585960264900661				0.933827814569536	0.0307284768211921	-0.35994701986755	-6.43258278145695	-1.53350993377483	4.83973509933775				0.528529801324503	-0.400529801324503	-0.661721854304636	-4.23708609271523	-1.4964238410596	3.30437086092715				0.980026490066225	0.00349668874172187	0.0699337748344371	-1.4482119205298	3.69192052980133	-2.85748344370861				0.623788079470199	0.0171655629139073	-0.756238410596026	2.82039735099338	-5.44238410596027	-5.79470198675497			
116	2680	0.983841059602649	0.0187549668874172	-0.087523178807947	-8.36662251655629	7.6953642384106	-2.30490066225166				0.976953642384106	0.127788079470199	0.0291390728476822	-0.126092715231788	0.867814569536424	-2.82596026490066				0.901827814569536	0.0147284768211921	-0.37594701986755	1.12741721854305	-1.81350993377483	1.47973509933775				0.560529801324503	-0.400529801324503	-0.677721854304636	-2.83708609271523	-2.8964238410596	4.14437086092715				0.964026490066225	0.0194966887417219	0.0859337748344371	-4.2482119205298	2.85192052980133	-1.45748344370861				0.623788079470199	0.0171655629139073	-0.756238410596026	5.62039735099338	-7.40238410596027	-6.91470198675497			
117	2700	0.983841059602649	0.00275496688741723	-0.039523178807947	-5.56662251655629	8.2553642384106	-0.904900662251656				0.976953642384106	0.127788079470199	-0.0188609271523178	4.35390728476821	-1.65218543046358	-4.78596026490066				0.869827814569536	0.0467284768211921	-0.35994701986755	-2.79258278145695	-0.413509933774833	0.63973509933775				0.576529801324503	-0.400529801324503	-0.661721854304636	-8.15708609271523	-6.2564238410596	1.06437086092715				0.948026490066225	0.0354966887417219	0.0859337748344371	-5.9282119205298	2.85192052980133	-1.45748344370861				0.607788079470199	0.0171655629139073	-0.756238410596026	6.74039735099338	-8.80238410596027	-5.23470198675497			
118	2720	0	0	0	0	0	0				0.992953642384106	0.111788079470199	-0.0508609271523178	2.95390728476821	-0.532185430463576	-3.94596026490066				0.885827814569536	0.0307284768211921	-0.34394701986755	-6.15258278145695	1.82649006622517	1.47973509933775				0.576529801324503	-0.384529801324503	-0.677721854304636	-7.59708609271523	-7.3764238410596	-3.13562913907285				0.980026490066225	0.0354966887417219	0.0699337748344371	-3.1282119205298	3.97192052980133	-2.01748344370861				0.575788079470199	0.0171655629139073	-0.740238410596026	5.62039735099338	-8.24238410596027	-4.39470198675497			
119	2740	0.967841059602649	0.00275496688741723	-0.023523178807947	2.83337748344371	5.4553642384106	-0.904900662251656				1.00895364238411	0.127788079470199	-0.0188609271523178	1.55390728476821	0.0278145695364242	-1.70596026490066				0.933827814569536	0.0147284768211921	-0.32794701986755	-4.47258278145695	2.66649006622517	1.19973509933775				0.576529801324503	-0.400529801324503	-0.661721854304636	-3.95708609271523	-6.2564238410596	-4.25562913907285				0.964026490066225	0.0354966887417219	0.0859337748344371	1.3517880794702	4.25192052980133	-1.45748344370861				0.543788079470199	0.0331655629139073	-0.740238410596026	6.46039735099338	-4.88238410596027	-5.79470198675497			
120	2760	0.999841059602649	0.0187549668874172	-0.039523178807947	0.593377483443709	1.2553642384106	0.775099337748344				0.992953642384106	0.127788079470199	-0.00286092715231785	0.993907284768212	3.66781456953642	-0.30596026490066				0.933827814569536	-0.00127152317880793	-0.32794701986755	2.52741721854305	0.706490066225167	0.35973509933775				0.576529801324503	-0.416529801324503	-0.661721854304636	-1.71708609271523	-4.8564238410596	-3.13562913907285				0.948026490066225	0.0354966887417219	0.0859337748344371	0.791788079470198	2.29192052980133	-2.85748344370861				0.559788079470199	0.0331655629139073	-0.740238410596026	7.30039735099338	-10.7623841059603	-6.63470198675497			
121	2780	0.967841059602649	0.0187549668874172	0.00847682119205304	0.0333774834437086	1.5353642384106	0.215099337748344				0.976953642384106	0.0957880794701987	-0.0188609271523178	4.35390728476821	-1.37218543046358	1.09403973509934				0.885827814569536	0.0147284768211921	-0.31194701986755	5.32741721854305	0.706490066225167	0.35973509933775				0.576529801324503	-0.400529801324503	-0.661721854304636	-1.99708609271523	-4.2964238410596	-2.29562913907285				0.948026490066225	0.0514966887417219	0.0859337748344371	1.3517880794702	3.41192052980132	-3.97748344370861				0.559788079470199	0.0171655629139073	-0.756238410596026	7.30039735099338	-10.7623841059603	-7.47470198675497			
122	2800	0.983841059602649	0.0187549668874172	-0.039523178807947	1.43337748344371	0.135364238410596	0.215099337748344				0.944953642384106	0.127788079470199	-0.0508609271523178	7.43390728476821	-6.69218543046358	-2.26596026490066				0.885827814569536	0.0147284768211921	-0.31194701986755	0.00741721854304636	0.986490066225167	1.19973509933775				0.576529801324503	-0.400529801324503	-0.677721854304636	-2.83708609271523	-5.4164238410596	-2.01562913907285				0.964026490066225	0.0354966887417219	0.0859337748344371	6.6717880794702	2.29192052980133	-2.57748344370861				0.575788079470199	0.0331655629139073	-0.772238410596026	6.74039735099338	-9.64238410596027	-6.91470198675497			
123	2820	0.967841059602649	0.00275496688741723	-0.023523178807947	3.39337748344371	0.695364238410596	-0.904900662251656				0.992953642384106	0.111788079470199	-0.0508609271523178	6.03390728476821	0.587814569536424	-0.0259602649006601				0.917827814569536	0.0147284768211921	-0.31194701986755	0.00741721854304636	0.426490066225167	1.19973509933775				0.544529801324503	-0.416529801324503	-0.677721854304636	-2.55708609271523	-4.0164238410596	-0.615629139072848				0.964026490066225	0.0354966887417219	0.0699337748344371	7.2317880794702	0.331920529801325	-1.17748344370861				0.559788079470199	0.0171655629139073	-0.756238410596026	6.18039735099338	-8.24238410596027	-7.19470198675497			
124	2840	0.983841059602649	0.00275496688741723	-0.023523178807947	4.23337748344371	-3.2246357615894	-0.624900662251656				0.992953642384106	0.0957880794701987	0.0131390728476822	1.55390728476821	4.78781456953642	1.37403973509934				0.917827814569536	-0.00127152317880793	-0.32794701986755	8.68741721854305	-0.133509933774833	0.0797350993377501				0.528529801324503	-0.400529801324503	-0.677721854304636	1.36291390728477	-3.1764238410596	0.224370860927152				0.964026490066225	0.0194966887417219	0.0859337748344371	9.1917880794702	0.331920529801325	-1.73748344370861				0.559788079470199	0.0171655629139073	-0.756238410596026	5.06039735099338	-6.28238410596027	-7.19470198675497			
125	2860	0.967841059602649	0.00275496688741723	-0.023523178807947	2.55337748344371	-2.3846357615894	-0.0649006622516557				0.976953642384106	0.0957880794701987	-0.00286092715231785	0.153907284768212	5.34781456953642	-0.0259602649006601				0.917827814569536	0.0307284768211921	-0.31194701986755	3.08741721854305	0.986490066225167	0.63973509933775				0.528529801324503	-0.384529801324503	-0.661721854304636	1.08291390728477	-3.4564238410596	-0.335629139072848				0.948026490066225	0.00349668874172187	0.101933774834437	10.0317880794702	0.891920529801325	0.222516556291392				0.559788079470199	0.00116556291390731	-0.756238410596026	4.50039735099338	-4.88238410596027	-5.51470198675497			
126	2880	0.967841059602649	-0.0132450331125828	-0.039523178807947	4.79337748344371	-2.1046357615894	-0.624900662251656				0.960953642384106	0.0957880794701987	-0.0188609271523178	0.713907284768212	-4.17218543046358	-3.66596026490066				0.917827814569536	-0.00127152317880793	-0.29594701986755	0.287417218543046	-0.133509933774833	0.0797350993377501				0.512529801324503	-0.384529801324503	-0.693721854304636	0.522913907284768	-2.8964238410596	-1.73562913907285				0.964026490066225	0.00349668874172187	0.0859337748344371	7.7917880794702	-1.06807947019868	-1.17748344370861				0.559788079470199	0.00116556291390731	-0.756238410596026	3.38039735099338	-4.04238410596027	-5.23470198675497			
