No	Time	12-AccX	12-AccY	12-AccZ	12-GyroX	12-GyroY	12-GyroZ	13-AccX	13-AccY	13-AccZ	13-GyroX	13-GyroY	13-GyroZ	14-AccX	14-AccY	14-AccZ	14-GyroX	14-GyroY	14-GyroZ	15-AccX	15-AccY	15-AccZ	15-GyroX	15-GyroY	15-GyroZ	16-AccX	16-AccY	16-AccZ	16-GyroX	16-GyroY	16-GyroZ	17-AccX	17-AccY	17-AccZ	17-GyroX	17-GyroY	17-GyroZ
0	120	-0.200158940397351	0.114754966887417	-0.951523178807947	0.593377483443709	0.975364238410596	-0.344900662251656				0.976953642384106	0.0957880794701987	0.0771390728476822	1.27390728476821	-5.29218543046358	1.37403973509934				-0.298172185430464	-0.0172715231788079	-0.90394701986755	2.24741721854305	0.986490066225167	-2.16026490066225				0	0	0	0	0	0				0	0	0	0	0	0				0	0	0	0	0	0			
1	140	-0.152158940397351	0.0987549668874172	-0.935523178807947	-3.88662251655629	0.695364238410596	-0.904900662251656				0.960953642384106	0.143788079470199	0.0771390728476822	5.19390728476821	-8.37218543046358	-1.98596026490066				-0.266172185430464	-0.0332715231788079	-0.83994701986755	1.40741721854305	-0.133509933774833	-2.72026490066225				0	0	0	0	0	0				0	0	0	0	0	0				0.527788079470199	-0.110834437086093	-0.804238410596027	-4.73960264900662	0.997615894039735	1.76529801324503			
2	160	-0.168158940397351	0.114754966887417	-0.935523178807947	-2.48662251655629	-0.984635761589404	-0.344900662251656				0.992953642384106	0.143788079470199	0.0451390728476822	17.5139072847682	-17.6121854304636	-0.0259602649006601				-0.298172185430464	-0.00127152317880793	-0.80794701986755	-5.03258278145695	11.3464900662252	-2.72026490066225				0.560529801324503	-0.400529801324503	-0.677721854304636	1.92291390728477	3.8235761589404	2.46437086092715				0.964026490066225	0.00349668874172187	0.101933774834437	-3.1282119205298	-4.14807947019868	-1.73748344370861				0.511788079470199	-0.0788344370860927	-0.804238410596027	-9.21960264900662	1.83761589403974	4.56529801324503			
3	180	-0.168158940397351	0.130754966887417	-0.967523178807947	2.27337748344371	-0.704635761589404	0.495099337748344				0.976953642384106	0.0957880794701987	-0.0348609271523178	15.2739072847682	-22.6521854304636	-0.585960264900661				-0.266172185430464	0.0147284768211921	-0.83994701986755	-23.792582781457	23.3864900662252	-4.12026490066225				0.576529801324503	-0.400529801324503	-0.661721854304636	2.76291390728477	3.8235761589404	1.34437086092715				0.980026490066225	0.00349668874172187	0.0699337748344371	-3.1282119205298	-4.14807947019868	-1.45748344370861				0.495788079470199	-0.0628344370860927	-0.804238410596027	-9.21960264900662	2.67761589403974	3.72529801324503			
4	200	-0.200158940397351	0.114754966887417	-0.967523178807947	2.55337748344371	0.695364238410596	-0.0649006622516557				0.992953642384106	0.111788079470199	-0.00286092715231785	10.5139072847682	-14.8121854304636	1.65403973509934				-0.282172185430464	-0.0172715231788079	-0.88794701986755	-25.752582781457	25.3464900662252	-3.28026490066225				0.592529801324503	-0.384529801324503	-0.661721854304636	-1.43708609271523	-0.9364238410596	2.74437086092715				0.964026490066225	0.00349668874172187	0.0859337748344371	-2.8482119205298	-5.26807947019868	-1.73748344370861				0.495788079470199	-0.0468344370860927	-0.804238410596027	-5.01960264900662	0.157615894039735	3.16529801324503			
5	220	-0.184158940397351	0.0827549668874172	-0.967523178807947	0.0333774834437086	0.695364238410596	-0.344900662251656				0.960953642384106	0.0317880794701987	0.0131390728476822	9.11390728476821	-11.7321854304636	2.77403973509934				-0.250172185430464	-0.0172715231788079	-0.88794701986755	-25.752582781457	23.6664900662252	-3.56026490066225				0.560529801324503	-0.368529801324503	-0.677721854304636	-2.83708609271523	-4.0164238410596	2.18437086092715				0.964026490066225	0.0194966887417219	0.101933774834437	-2.5682119205298	-8.90807947019868	-0.897483443708608				0.495788079470199	-0.0788344370860927	-0.820238410596026	-2.77960264900662	-1.52238410596026	5.40529801324503			
6	240	-0.152158940397351	0.0827549668874172	-0.935523178807947	-3.04662251655629	0.135364238410596	-0.624900662251656				0.992953642384106	0.0797880794701987	0.0451390728476822	5.47390728476821	-8.37218543046358	-1.42596026490066				-0.234172185430464	0.0307284768211921	-0.87194701986755	-21.552582781457	19.7464900662252	-6.92026490066225				0.560529801324503	-0.368529801324503	-0.661721854304636	0.242913907284768	-4.0164238410596	1.06437086092715				0.964026490066225	0.0194966887417219	0.0859337748344371	-0.888211920529802	-6.94807947019868	0.782516556291392				0.495788079470199	-0.0628344370860927	-0.820238410596026	-5.57960264900662	-1.24238410596026	6.80529801324503			
7	260	-0.152158940397351	0.0987549668874172	-0.935523178807947	-4.72662251655629	0.695364238410596	-0.624900662251656				0.992953642384106	0.111788079470199	0.0291390728476822	6.87390728476821	-11.4521854304636	-2.26596026490066				-0.218172185430464	0.0147284768211921	-0.82394701986755	-23.792582781457	22.2664900662252	-8.32026490066225				0.560529801324503	-0.400529801324503	-0.677721854304636	5.28291390728477	-2.8964238410596	0.224370860927152				0.980026490066225	0.00349668874172187	0.0699337748344371	2.4717880794702	-6.94807947019868	1.06251655629139				0.495788079470199	-0.0308344370860927	-0.820238410596026	-5.85960264900662	0.997615894039735	5.96529801324503			
8	280	-0.168158940397351	0.130754966887417	-0.967523178807947	-3.04662251655629	0.415364238410596	0.495099337748344				0.992953642384106	0.0957880794701987	-0.00286092715231785	9.11390728476821	-19.2921854304636	-1.42596026490066				-0.234172185430464	0.0147284768211921	-0.90394701986755	-22.952582781457	18.6264900662252	-8.32026490066225				0.560529801324503	-0.432529801324503	-0.677721854304636	2.76291390728477	-1.4964238410596	-0.895629139072848				0.964026490066225	0.00349668874172187	0.0699337748344371	0.791788079470198	-5.54807947019868	1.34251655629139				0.511788079470199	-0.0308344370860927	-0.836238410596026	-1.09960264900662	1.55761589403974	4.28529801324503			
9	300	-0.184158940397351	0.114754966887417	-0.983523178807947	3.11337748344371	-0.424635761589404	1.89509933774834				0.960953642384106	0.0797880794701987	-0.00286092715231785	11.9139072847682	-18.1721854304636	-0.86596026490066				-0.266172185430464	-0.0172715231788079	-0.96794701986755	-10.632582781457	12.4664900662252	-4.68026490066225				0.576529801324503	-0.400529801324503	-0.661721854304636	0.802913907284768	-0.0964238410596001	0.224370860927152				0.980026490066225	0.0194966887417219	0.0859337748344371	3.0317880794702	-1.62807947019868	1.62251655629139				0.495788079470199	-0.0628344370860927	-0.836238410596026	2.26039735099338	-0.962384105960265	3.44529801324503			
10	320	-0.184158940397351	0.130754966887417	-0.967523178807947	2.83337748344371	-0.144635761589404	0.775099337748344				0.960953642384106	0.111788079470199	-0.00286092715231785	10.5139072847682	-5.01218543046358	1.37403973509934				-0.250172185430464	0.0307284768211921	-0.93594701986755	-13.152582781457	6.86649006622517	-1.04026490066225				0.592529801324503	-0.400529801324503	-0.661721854304636	4.72291390728477	-2.3364238410596	-0.895629139072848				0.980026490066225	-0.0125033112582781	0.0859337748344371	2.1917880794702	-4.98807947019868	-0.337483443708608				0.495788079470199	-0.0788344370860927	-0.804238410596027	-0.259602649006623	-3.48238410596027	0.0852980132450323			
11	340	-0.184158940397351	0.146754966887417	-0.887523178807947	-4.44662251655629	1.5353642384106	-0.344900662251656				1.00895364238411	0.0957880794701987	0.0451390728476822	7.43390728476821	1.42781456953642	-0.30596026490066				-0.250172185430464	0.0627284768211921	-0.87194701986755	-24.072582781457	2.66649006622517	-3.00026490066225				0.608529801324503	-0.432529801324503	-0.661721854304636	7.52291390728477	-2.0564238410596	-5.65562913907285				0.964026490066225	-0.0285033112582781	0.117933774834437	-1.1682119205298	-4.70807947019868	-2.01748344370861				0.479788079470199	-0.0628344370860927	-0.804238410596027	-1.65960264900662	-3.20238410596026	-4.39470198675497			
12	360	-0.168158940397351	0.130754966887417	-0.919523178807947	-4.16662251655629	2.0953642384106	-0.344900662251656				0.992953642384106	0.0957880794701987	0.0291390728476822	4.07390728476821	-10.6121854304636	-7.02596026490066				-0.234172185430464	0.0307284768211921	-0.88794701986755	-18.752582781457	9.10649006622517	-3.84026490066225				0.624529801324503	-0.416529801324503	-0.661721854304636	7.24291390728477	-3.4564238410596	-6.49562913907285				0.964026490066225	-0.0125033112582781	0.101933774834437	-0.608211920529802	-4.14807947019868	-3.41748344370861				0.495788079470199	-0.0628344370860927	-0.836238410596026	-1.65960264900662	-1.52238410596026	-7.19470198675497			
13	380	-0.184158940397351	0.130754966887417	-0.967523178807947	-1.08662251655629	0.975364238410596	-1.18490066225166				0.992953642384106	0.111788079470199	-0.0348609271523178	3.79390728476821	-12.2921854304636	-9.26596026490066				-0.218172185430464	0.0627284768211921	-0.91994701986755	8.12741721854305	4.90649006622517	-1.60026490066225				0.640529801324503	-0.400529801324503	-0.677721854304636	1.92291390728477	-7.0964238410596	-5.37562913907285				0.980026490066225	0.00349668874172187	0.0859337748344371	4.4317880794702	-5.54807947019868	-3.13748344370861				0.527788079470199	-0.0308344370860927	-0.836238410596026	-0.259602649006623	-2.64238410596027	-8.59470198675497			
14	400	-0.184158940397351	0.162754966887417	-0.967523178807947	-1.08662251655629	0.975364238410596	-1.18490066225166				0.992953642384106	0.0957880794701987	-0.0348609271523178	1.55390728476821	-7.25218543046358	-7.58596026490066				-0.218172185430464	0.0787284768211921	-0.88794701986755	16.247417218543	2.66649006622517	-1.60026490066225				0.624529801324503	-0.384529801324503	-0.645721854304636	-0.0370860927152318	-9.8964238410596	-2.29562913907285				0.980026490066225	0.0354966887417219	0.0859337748344371	7.7917880794702	-6.10807947019868	-1.17748344370861				0.527788079470199	-0.0468344370860927	-0.820238410596026	0.860397350993377	-3.76238410596027	-8.31470198675497			
15	420	-0.184158940397351	0.146754966887417	-0.935523178807947	-0.246622516556291	1.8153642384106	-1.46490066225166				1.00895364238411	0.111788079470199	-0.0348609271523178	-2.64609271523179	-10.6121854304636	-10.1059602649007				-0.234172185430464	0.0787284768211921	-0.85594701986755	14.567417218543	1.82649006622517	-1.04026490066225				0.592529801324503	-0.368529801324503	-0.661721854304636	2.20291390728477	-11.2964238410596	-0.895629139072848				0.996026490066225	0.0354966887417219	0.0859337748344371	7.5117880794702	-7.50807947019868	-0.0574834437086077				0.527788079470199	-0.0468344370860927	-0.804238410596027	1.98039735099338	-2.64238410596027	-9.71470198675497			
16	440	-0.152158940397351	0.130754966887417	-0.935523178807947	0.593377483443709	2.9353642384106	-2.02490066225166				0.960953642384106	0.175788079470199	0.0131390728476822	-0.126092715231788	-12.8521854304636	-8.98596026490066				-0.250172185430464	0.0627284768211921	-0.88794701986755	8.68741721854305	4.62649006622517	-0.48026490066225				0.576529801324503	-0.384529801324503	-0.677721854304636	7.24291390728477	-9.6164238410596	0.784370860927152				0.996026490066225	0.0194966887417219	0.0699337748344371	8.6317880794702	-10.5880794701987	-0.0574834437086077				0.527788079470199	-0.0468344370860927	-0.820238410596026	3.66039735099338	-2.64238410596027	-9.43470198675497			
17	460	-0.152158940397351	0.114754966887417	-0.951523178807947	-1.92662251655629	4.3353642384106	-2.58490066225166				0.976953642384106	0.143788079470199	0.0131390728476822	11.9139072847682	-2.77218543046358	-5.06596026490066				-0.218172185430464	0.0467284768211921	-0.88794701986755	22.967417218543	6.02649006622517	-2.72026490066225				0.544529801324503	-0.368529801324503	-0.677721854304636	7.52291390728477	-8.2164238410596	0.504370860927152				0.964026490066225	0.0514966887417219	0.101933774834437	6.9517880794702	-10.3080794701987	0.782516556291392				0.527788079470199	-0.0468344370860927	-0.804238410596027	2.26039735099338	-2.64238410596027	-6.07470198675497			
18	480	-0.136158940397351	0.0987549668874172	-0.967523178807947	-2.76662251655629	2.9353642384106	-2.58490066225166				0.992953642384106	0.111788079470199	0.0291390728476822	17.2339072847682	2.26781456953642	-5.62596026490066				-0.218172185430464	-0.0492715231788079	-0.93594701986755	46.2074172185431	2.94649006622517	-3.28026490066225				0.528529801324503	-0.368529801324503	-0.661721854304636	4.44291390728477	-7.9364238410596	0.504370860927152				0.948026490066225	0.0354966887417219	0.0699337748344371	8.0717880794702	-7.50807947019868	1.06251655629139				0.527788079470199	-0.0148344370860927	-0.820238410596026	1.14039735099338	-2.36238410596027	-4.95470198675497			
19	500	-0.152158940397351	0.114754966887417	-0.967523178807947	0.0333774834437086	0.695364238410596	-2.30490066225166				0.928953642384106	0.127788079470199	-0.00286092715231785	15.8339072847682	-3.05218543046358	-4.50596026490066				-0.218172185430464	-0.0492715231788079	-0.91994701986755	34.1674172185431	2.66649006622517	-3.84026490066225				0.544529801324503	-0.368529801324503	-0.661721854304636	3.60291390728477	-9.6164238410596	2.46437086092715				0.948026490066225	0.0354966887417219	0.0699337748344371	9.1917880794702	-7.50807947019868	2.18251655629139				0.527788079470199	0.00116556291390731	-0.804238410596027	4.22039735099338	-3.76238410596027	-6.35470198675497			
20	520	-0.152158940397351	0.130754966887417	-0.951523178807947	0.593377483443709	0.135364238410596	-3.42490066225166				0.928953642384106	0.0957880794701987	-0.0348609271523178	9.67390728476821	-2.49218543046358	-1.70596026490066				-0.186172185430464	0.0787284768211921	-0.85594701986755	21.8474172185431	6.30649006622517	-8.32026490066225				0.544529801324503	-0.368529801324503	-0.661721854304636	6.12291390728477	-9.8964238410596	3.58437086092715				0.932026490066225	0.0514966887417219	0.0539337748344371	5.8317880794702	-8.90807947019868	3.30251655629139				0.527788079470199	0.0171655629139073	-0.820238410596026	10.9403973509934	-6.00238410596027	-8.59470198675497			
21	540	-0.168158940397351	0.130754966887417	-0.919523178807947	-0.246622516556291	1.2553642384106	-3.98490066225166				1.00895364238411	0.143788079470199	-0.00286092715231785	-1.80609271523179	4.50781456953642	-4.50596026490066				-0.186172185430464	0.110728476821192	-0.82394701986755	44.8074172185431	4.06649006622517	-17.5602649006623				0.512529801324503	-0.352529801324503	-0.677721854304636	6.96291390728477	-9.3364238410596	2.18437086092715				0.932026490066225	0.0354966887417219	0.0539337748344371	6.9517880794702	-4.14807947019868	5.26251655629139				0.511788079470199	0.00116556291390731	-0.804238410596027	15.9803973509934	-6.84238410596027	-7.75470198675497			
22	560	-0.168158940397351	0.114754966887417	-0.935523178807947	-3.88662251655629	1.8153642384106	-3.98490066225166				0.992953642384106	0.175788079470199	0.0131390728476822	-4.88609271523179	3.94781456953642	-6.18596026490066				-0.202172185430464	-0.0492715231788079	-0.91994701986755	70.007417218543	0.706490066225167	-15.3202649006623				0.496529801324503	-0.368529801324503	-0.677721854304636	7.80291390728477	-6.8164238410596	1.06437086092715				0.964026490066225	0.0514966887417219	0.0699337748344371	8.3517880794702	-2.74807947019868	4.98251655629139				0.495788079470199	-0.0148344370860927	-0.772238410596026	17.6603973509934	-7.68238410596027	-7.19470198675497			
23	580	-0.136158940397351	0.130754966887417	-0.951523178807947	-2.20662251655629	0.135364238410596	-3.42490066225166				0.992953642384106	0.207788079470199	-0.0188609271523178	5.19390728476821	-3.89218543046358	-5.62596026490066				-0.202172185430464	-0.161271523178808	-0.96794701986755	51.247417218543	-3.49350993377483	-6.36026490066225				0.512529801324503	-0.384529801324503	-0.693721854304636	10.8829139072848	-3.1764238410596	1.06437086092715				0.964026490066225	0.0514966887417219	0.0379337748344371	3.3117880794702	-2.18807947019868	4.42251655629139				0.495788079470199	-0.0308344370860927	-0.788238410596027	14.0203973509934	-8.24238410596027	-8.31470198675497			
24	600	-0.168158940397351	0.146754966887417	-0.951523178807947	-0.246622516556291	-1.5446357615894	-2.02490066225166				0.928953642384106	0.191788079470199	-0.0508609271523178	12.1939072847682	-1.09218543046358	-4.22596026490066				-0.202172185430464	-0.145271523178808	-0.93594701986755	21.8474172185431	-1.25350993377483	-7.20026490066225				0.496529801324503	-0.400529801324503	-0.709721854304636	12.8429139072848	-2.0564238410596	2.74437086092715				0.932026490066225	0.0354966887417219	0.00593377483443711	2.1917880794702	-3.30807947019868	3.86251655629139				0.511788079470199	0.00116556291390731	-0.788238410596027	9.54039735099338	-7.96238410596027	-9.15470198675497			
25	620	-0.168158940397351	0.146754966887417	-0.951523178807947	2.27337748344371	-1.2646357615894	-1.18490066225166				0.928953642384106	0.159788079470199	0.0131390728476822	10.2339072847682	5.62781456953642	-2.26596026490066				-0.202172185430464	-0.113271523178808	-0.90394701986755	2.52741721854305	-2.93350993377483	-7.48026490066225				0.512529801324503	-0.400529801324503	-0.725721854304636	10.0429139072848	-2.0564238410596	0.784370860927152				0.964026490066225	0.0514966887417219	0.0219337748344371	3.8717880794702	0.331920529801325	4.70251655629139				0.495788079470199	0.00116556291390731	-0.788238410596027	12.0603973509934	-6.56238410596027	-10.274701986755			
26	640	-0.184158940397351	0.146754966887417	-0.935523178807947	3.39337748344371	-1.8246357615894	-2.30490066225166				1.00895364238411	0.159788079470199	0.0291390728476822	9.67390728476821	8.70781456953642	-0.0259602649006601				-0.202172185430464	0.0147284768211921	-0.87194701986755	-1.67258278145695	0.146490066225167	-8.32026490066225				0.544529801324503	-0.384529801324503	-0.725721854304636	8.92291390728477	-0.6564238410596	-2.01562913907285				0.980026490066225	0.0514966887417219	0.0539337748344371	4.1517880794702	3.69192052980133	3.86251655629139				0.479788079470199	-0.0468344370860927	-0.788238410596027	15.4203973509934	-6.00238410596027	-9.99470198675497			
27	660	-0.152158940397351	0.146754966887417	-0.951523178807947	3.11337748344371	0.135364238410596	-2.02490066225166				1.04095364238411	0.143788079470199	0.0291390728476822	2.39390728476821	2.26781456953642	-0.585960264900661				-0.202172185430464	0.158728476821192	-0.87194701986755	29.407417218543	0.706490066225167	-17.8402649006623				0.576529801324503	-0.416529801324503	-0.725721854304636	10.6029139072848	2.1435761589404	-4.25562913907285				0.980026490066225	0.0354966887417219	0.0539337748344371	3.5917880794702	3.69192052980133	1.62251655629139				0.479788079470199	-0.0628344370860927	-0.772238410596026	10.6603973509934	-1.80238410596026	-8.03470198675497			
28	680	-0.152158940397351	0.162754966887417	-0.935523178807947	1.15337748344371	0.695364238410596	-2.30490066225166				0.976953642384106	0.191788079470199	-0.00286092715231785	-3.76609271523179	-4.17218543046358	-2.82596026490066				-0.186172185430464	0.0627284768211921	-0.91994701986755	82.607417218543	-1.25350993377483	-27.3602649006623				0.576529801324503	-0.432529801324503	-0.725721854304636	7.52291390728477	3.2635761589404	-6.21562913907285				0.964026490066225	0.0194966887417219	0.0539337748344371	3.8717880794702	2.57192052980133	-0.0574834437086077				0.479788079470199	-0.0468344370860927	-0.788238410596027	2.54039735099338	0.997615894039735	-7.19470198675497			
29	700	-0.152158940397351	0.162754966887417	-0.919523178807947	-0.246622516556291	0.975364238410596	-2.86490066225166				0.960953642384106	0.207788079470199	-0.0348609271523178	0.993907284768212	-3.05218543046358	-0.0259602649006601				-0.250172185430464	-0.0172715231788079	-0.83994701986755	113.687417218543	6.02649006622517	-46.6802649006623				0.560529801324503	-0.432529801324503	-0.709721854304636	1.08291390728477	1.3035761589404	-6.21562913907285				0.980026490066225	0.0354966887417219	0.0379337748344371	2.4717880794702	1.45192052980132	0.502516556291392				0.495788079470199	-0.0308344370860927	-0.804238410596027	2.26039735099338	2.95761589403974	-7.47470198675497			
30	720	-0.152158940397351	0.146754966887417	-0.935523178807947	1.99337748344371	0.135364238410596	-3.14490066225166				0.992953642384106	0.159788079470199	-0.0348609271523178	8.55390728476821	1.98781456953642	3.89403973509934				-0.218172185430464	-0.321271523178808	-0.87194701986755	117.047417218543	6.58649006622517	-30.7202649006623				0.560529801324503	-0.416529801324503	-0.693721854304636	-1.99708609271523	-0.0964238410596001	-3.41562913907285				0.980026490066225	0.0514966887417219	0.0539337748344371	3.5917880794702	2.57192052980133	-0.617483443708608				0.495788079470199	-0.0628344370860927	-0.804238410596027	5.34039735099338	5.47761589403974	-6.35470198675497			
31	740	-0.168158940397351	0.114754966887417	-0.951523178807947	2.55337748344371	-0.424635761589404	-3.70490066225166				0.976953642384106	0.159788079470199	-0.0508609271523178	9.95390728476821	-3.89218543046358	1.09403973509934				-0.138172185430464	-0.529271523178808	-0.95194701986755	59.9274172185431	3.50649006622517	-6.08026490066225				0.576529801324503	-0.400529801324503	-0.677721854304636	-1.71708609271523	-1.7764238410596	-1.45562913907285				0.964026490066225	0.0194966887417219	0.0699337748344371	5.8317880794702	2.85192052980133	-0.897483443708608				0.479788079470199	-0.0788344370860927	-0.772238410596026	2.26039735099338	5.47761589403974	-3.55470198675497			
32	760	-0.184158940397351	0.0987549668874172	-0.951523178807947	3.11337748344371	-0.984635761589404	-4.54490066225166				0.928953642384106	0.159788079470199	-0.0508609271523178	-3.48609271523179	-3.05218543046358	-3.38596026490066				-0.106172185430464	-0.513271523178808	-0.85594701986755	-7.83258278145695	-1.81350993377483	2.03973509933775				0.576529801324503	-0.384529801324503	-0.677721854304636	-0.877086092715232	-1.2164238410596	-1.45562913907285				0.964026490066225	0.0194966887417219	0.0539337748344371	5.5517880794702	-0.508079470198675	-1.17748344370861				0.479788079470199	-0.0948344370860927	-0.756238410596026	-4.45960264900662	4.07761589403974	-0.194701986754968			
33	780	-0.184158940397351	0.0827549668874172	-0.935523178807947	1.43337748344371	-0.144635761589404	-3.98490066225166				0.944953642384106	0.111788079470199	0.0611390728476822	-21.9660927152318	14.5878145695364	0.53403973509934				-0.170172185430464	-0.273271523178808	-0.77594701986755	-45.632582781457	-7.69350993377483	-0.76026490066225				0.560529801324503	-0.368529801324503	-0.661721854304636	-0.877086092715232	-2.0564238410596	-3.41562913907285				0.980026490066225	0.0354966887417219	0.0859337748344371	5.5517880794702	-4.70807947019868	-3.69748344370861				0.495788079470199	-0.0628344370860927	-0.772238410596026	-7.53960264900662	3.23761589403974	1.20529801324503			
34	800	-0.184158940397351	0.0667549668874172	-0.951523178807947	1.15337748344371	-0.424635761589404	-3.70490066225166				0.992953642384106	0.0957880794701987	0.0451390728476822	-14.4060927152318	9.82781456953643	3.05403973509934				-0.202172185430464	-0.129271523178808	-0.79194701986755	-23.792582781457	-5.45350993377483	-1.60026490066225				0.544529801324503	-0.384529801324503	-0.677721854304636	-0.0370860927152318	-0.6564238410596	-4.81562913907285				0.980026490066225	0.0194966887417219	0.0699337748344371	4.4317880794702	-6.66807947019868	-3.97748344370861				0.527788079470199	-0.0308344370860927	-0.804238410596027	-7.25960264900662	5.47761589403974	1.20529801324503			
35	820	-0.168158940397351	0.0667549668874172	-0.999523178807947	0.313377483443709	-0.424635761589404	-2.58490066225166				1.00895364238411	0.111788079470199	-0.0188609271523178	-1.80609271523179	3.66781456953642	4.73403973509934				-0.218172185430464	-0.177271523178808	-0.87194701986755	17.647417218543	-0.133509933774833	0.63973509933775				0.544529801324503	-0.400529801324503	-0.677721854304636	-0.877086092715232	0.1835761589404	-3.13562913907285				0.948026490066225	0.00349668874172187	0.0699337748344371	4.1517880794702	-3.30807947019868	-1.45748344370861				0.559788079470199	-0.0308344370860927	-0.836238410596026	-4.45960264900662	5.47761589403974	0.645298013245032			
36	840	-0.168158940397351	0.114754966887417	-0.983523178807947	0.593377483443709	0.415364238410596	-0.344900662251656				0.992953642384106	0.127788079470199	-0.0668609271523178	0.713907284768212	-3.33218543046358	3.61403973509934				-0.218172185430464	-0.225271523178808	-0.90394701986755	30.8074172185431	1.82649006622517	0.91973509933775				0.544529801324503	-0.400529801324503	-0.661721854304636	-6.47708609271523	-5.1364238410596	-2.29562913907285				0.948026490066225	0.00349668874172187	0.0699337748344371	3.3117880794702	0.331920529801325	0.222516556291392				0.575788079470199	-0.0628344370860927	-0.820238410596026	0.860397350993377	4.35761589403974	-1.59470198675497			
37	860	-0.168158940397351	0.114754966887417	-0.935523178807947	2.27337748344371	0.135364238410596	1.89509933774834				0.976953642384106	0.143788079470199	-0.0188609271523178	-4.32609271523179	0.587814569536424	1.09403973509934				-0.186172185430464	-0.241271523178808	-0.83994701986755	17.087417218543	2.10649006622517	1.75973509933775				0.560529801324503	-0.368529801324503	-0.645721854304636	-7.59708609271523	-5.4164238410596	-0.895629139072848				0.980026490066225	0.00349668874172187	0.0859337748344371	1.9117880794702	0.0519205298013249	3.02251655629139				0.559788079470199	-0.0948344370860927	-0.788238410596027	1.42039735099338	3.23761589403974	-1.31470198675497			
38	880	-0.168158940397351	0.114754966887417	-0.951523178807947	0.593377483443709	-1.2646357615894	2.73509933774834				0.976953642384106	0.127788079470199	0.0611390728476822	-4.04609271523179	6.74781456953642	1.65403973509934				-0.170172185430464	-0.257271523178808	-0.85594701986755	4.20741721854305	-0.133509933774833	4.83973509933775				0.560529801324503	-0.352529801324503	-0.629721854304636	-2.55708609271523	-3.4564238410596	-0.895629139072848				0.980026490066225	0.0194966887417219	0.101933774834437	1.0717880794702	-1.90807947019868	3.30251655629139				0.543788079470199	-0.110834437086093	-0.788238410596027	-3.89960264900662	3.79761589403974	-2.15470198675497			
39	900	-0.168158940397351	0.0987549668874172	-0.951523178807947	-0.806622516556291	-1.8246357615894	1.89509933774834				0.992953642384106	0.111788079470199	0.0611390728476822	-1.80609271523179	5.62781456953642	1.93403973509934				-0.170172185430464	-0.257271523178808	-0.87194701986755	-6.71258278145695	-1.81350993377483	4.27973509933775				0.560529801324503	-0.368529801324503	-0.629721854304636	3.04291390728477	1.8635761589404	-0.895629139072848				0.980026490066225	0.0354966887417219	0.101933774834437	-1.1682119205298	-1.62807947019868	2.18251655629139				0.527788079470199	-0.0788344370860927	-0.804238410596027	-6.97960264900662	1.83761589403974	0.925298013245032			
40	920	-0.152158940397351	0.0987549668874172	-0.983523178807947	3.95337748344371	-0.704635761589404	0.775099337748344				0.976953642384106	0.111788079470199	0.0291390728476822	-0.126092715231788	0.587814569536424	3.05403973509934				-0.202172185430464	-0.145271523178808	-0.88794701986755	-5.03258278145695	-2.09350993377483	0.35973509933775				0.560529801324503	-0.400529801324503	-0.645721854304636	6.40291390728477	5.2235761589404	-1.17562913907285				0.964026490066225	0.00349668874172187	0.0539337748344371	-0.888211920529802	-4.14807947019868	3.02251655629139				0.527788079470199	-0.0628344370860927	-0.788238410596027	-2.77960264900662	-0.122384105960265	3.16529801324503			
41	940	-0.136158940397351	0.130754966887417	-0.951523178807947	1.15337748344371	-0.704635761589404	-0.624900662251656				0	0	0	0	0	0				0	0	0	0	0	0				0.544529801324503	-0.400529801324503	-0.661721854304636	5.00291390728477	5.2235761589404	-1.45562913907285				0	0	0	0	0	0				0	0	0	0	0	0			
42	1080	0	0	0	0	0	0				0.992953642384106	0.127788079470199	0.0131390728476822	-5.72609271523179	-0.532185430463576	1.37403973509934				-0.186172185430464	-0.209271523178808	-0.82394701986755	-0.552582781456954	3.78649006622517	2.59973509933775				0.592529801324503	-0.416529801324503	-0.693721854304636	3.60291390728477	4.3835761589404	1.34437086092715				0.996026490066225	0.00349668874172187	0.0539337748344371	-0.608211920529802	-5.26807947019868	1.34251655629139				0.495788079470199	-0.0628344370860927	-0.788238410596027	-1.93960264900662	-2.92238410596027	5.68529801324503			
43	1100	-0.200158940397351	0.0827549668874172	-0.967523178807947	-1.36662251655629	-0.424635761589404	-2.02490066225166				0.992953642384106	0.127788079470199	-0.0188609271523178	-4.32609271523179	-3.61218543046358	-0.30596026490066				-0.202172185430464	-0.177271523178808	-0.87194701986755	4.20741721854305	2.38649006622517	3.15973509933775				0.560529801324503	-0.416529801324503	-0.677721854304636	2.76291390728477	3.5435761589404	1.62437086092715				0.980026490066225	0.00349668874172187	0.0379337748344371	-1.4482119205298	-4.70807947019868	1.62251655629139				0.495788079470199	-0.0468344370860927	-0.788238410596027	-3.33960264900662	-1.24238410596026	4.84529801324503			
44	1120	-0.200158940397351	0.0987549668874172	-0.951523178807947	-1.36662251655629	0.415364238410596	-1.74490066225166				0.976953642384106	0.127788079470199	-0.0188609271523178	-1.80609271523179	-6.13218543046358	-0.0259602649006601				-0.202172185430464	-0.241271523178808	-0.88794701986755	3.92741721854305	2.10649006622517	3.71973509933775				0.576529801324503	-0.416529801324503	-0.677721854304636	1.92291390728477	2.4235761589404	1.62437086092715				0.964026490066225	0.00349668874172187	0.0539337748344371	-0.608211920529802	-4.98807947019868	1.34251655629139				0.495788079470199	-0.0468344370860927	-0.804238410596027	-2.77960264900662	-0.682384105960265	4.56529801324503			
45	1140	-0.184158940397351	0.114754966887417	-0.951523178807947	-0.526622516556291	0.975364238410596	-0.344900662251656				0.992953642384106	0.143788079470199	-0.00286092715231785	1.27390728476821	-5.01218543046358	3.05403973509934				-0.186172185430464	-0.241271523178808	-0.88794701986755	-3.35258278145695	3.78649006622517	2.87973509933775				0.560529801324503	-0.432529801324503	-0.677721854304636	-0.0370860927152318	0.7435761589404	1.34437086092715				0.948026490066225	0.00349668874172187	0.0539337748344371	-0.0482119205298018	-4.70807947019868	0.502516556291392				0.495788079470199	-0.0628344370860927	-0.804238410596027	-2.21960264900662	-0.962384105960265	3.44529801324503			
46	1160	-0.152158940397351	0.0987549668874172	-0.951523178807947	-1.08662251655629	-0.144635761589404	-0.344900662251656				0.976953642384106	0.127788079470199	0.0131390728476822	0.713907284768212	-6.13218543046358	2.49403973509934				-0.202172185430464	-0.225271523178808	-0.88794701986755	-5.31258278145695	5.74649006622517	-0.76026490066225				0.544529801324503	-0.416529801324503	-0.661721854304636	-1.15708609271523	-0.6564238410596	0.784370860927152				0.964026490066225	-0.0125033112582781	0.0539337748344371	-0.888211920529802	-5.26807947019868	1.34251655629139				0.495788079470199	-0.0628344370860927	-0.788238410596027	-4.73960264900662	0.717615894039735	3.16529801324503			
47	1180	-0.168158940397351	0.0987549668874172	-0.935523178807947	-3.04662251655629	-1.2646357615894	-0.624900662251656				0.960953642384106	0.127788079470199	0.0131390728476822	-1.80609271523179	-9.77218543046358	1.65403973509934				-0.218172185430464	-0.209271523178808	-0.87194701986755	-7.55258278145695	2.10649006622517	1.19973509933775				0.528529801324503	-0.416529801324503	-0.661721854304636	-0.877086092715232	-0.3764238410596	-0.0556291390728476				0.964026490066225	0.00349668874172187	0.0379337748344371	-2.8482119205298	-2.74807947019868	-0.0574834437086077				0.495788079470199	-0.0628344370860927	-0.804238410596027	-5.85960264900662	1.27761589403974	2.88529801324503			
48	1200	-0.184158940397351	0.0987549668874172	-0.951523178807947	-3.88662251655629	-1.2646357615894	-1.46490066225166				0.944953642384106	0.143788079470199	-0.0348609271523178	-1.52609271523179	-12.2921854304636	2.21403973509934				-0.202172185430464	-0.193271523178808	-0.85594701986755	-7.55258278145695	1.26649006622517	2.03973509933775				0.544529801324503	-0.416529801324503	-0.661721854304636	0.242913907284768	1.5835761589404	-0.0556291390728476				0.964026490066225	0.00349668874172187	0.0219337748344371	-3.6882119205298	-4.14807947019868	-0.337483443708608				0.495788079470199	-0.0468344370860927	-0.804238410596027	-4.73960264900662	1.83761589403974	1.76529801324503			
49	1220	-0.184158940397351	0.114754966887417	-0.967523178807947	-1.64662251655629	-0.704635761589404	-1.46490066225166				0.960953642384106	0.127788079470199	-0.0508609271523178	-0.966092715231788	-5.85218543046358	3.05403973509934				-0.202172185430464	-0.241271523178808	-0.88794701986755	-9.23258278145695	2.66649006622517	6.23973509933775				0.544529801324503	-0.416529801324503	-0.645721854304636	-0.597086092715232	2.1435761589404	-0.615629139072848				0.948026490066225	-0.0125033112582781	0.0219337748344371	-2.8482119205298	-1.34807947019868	1.06251655629139				0.479788079470199	-0.0468344370860927	-0.820238410596026	-3.61960264900662	0.997615894039735	2.88529801324503			
50	1240	-0.184158940397351	0.130754966887417	-0.967523178807947	-1.64662251655629	-1.2646357615894	-0.344900662251656				0.992953642384106	0.143788079470199	-0.0348609271523178	-2.36609271523179	-3.89218543046358	1.93403973509934				-0.202172185430464	-0.257271523178808	-0.88794701986755	-15.392582781457	7.14649006622517	-0.20026490066225				0.544529801324503	-0.416529801324503	-0.645721854304636	-0.877086092715232	2.9835761589404	-0.335629139072848				0.948026490066225	-0.0125033112582781	0.0379337748344371	-3.1282119205298	-1.62807947019868	0.222516556291392				0.495788079470199	-0.0628344370860927	-0.820238410596026	-3.05960264900662	0.437615894039735	1.48529801324503			
51	1260	-0.184158940397351	0.130754966887417	-0.935523178807947	-3.60662251655629	-0.144635761589404	0.495099337748344				0.992953642384106	0.143788079470199	-0.0508609271523178	-1.24609271523179	-4.45218543046358	1.65403973509934				-0.170172185430464	-0.209271523178808	-0.88794701986755	-23.512582781457	7.42649006622517	0.0797350993377501				0.544529801324503	-0.416529801324503	-0.645721854304636	1.36291390728477	3.2635761589404	1.34437086092715				0.964026490066225	-0.0125033112582781	0.0219337748344371	-4.8082119205298	-3.30807947019868	0.222516556291392				0.495788079470199	-0.0628344370860927	-0.820238410596026	-3.89960264900662	-0.122384105960265	1.76529801324503			
52	1280	-0.184158940397351	0.130754966887417	-0.919523178807947	-3.32662251655629	-0.984635761589404	-0.344900662251656				0.960953642384106	0.111788079470199	-0.0508609271523178	0.713907284768212	-5.01218543046358	1.93403973509934				-0.202172185430464	-0.177271523178808	-0.85594701986755	-24.352582781457	6.02649006622517	2.31973509933775				0.560529801324503	-0.432529801324503	-0.661721854304636	4.44291390728477	4.1035761589404	2.46437086092715				0.996026490066225	0.00349668874172187	0.0219337748344371	-4.5282119205298	-3.30807947019868	0.782516556291392				0.495788079470199	-0.0468344370860927	-0.820238410596026	-4.45960264900662	0.437615894039735	2.88529801324503			
53	1300	-0.184158940397351	0.114754966887417	-0.967523178807947	-0.806622516556291	-0.144635761589404	-0.0649006622516557				0.944953642384106	0.127788079470199	-0.0348609271523178	-1.80609271523179	-6.13218543046358	0.53403973509934				-0.202172185430464	-0.161271523178808	-0.88794701986755	-27.152582781457	4.06649006622517	4.83973509933775				0.560529801324503	-0.464529801324503	-0.677721854304636	4.44291390728477	5.7835761589404	2.74437086092715				0.980026490066225	-0.0125033112582781	0.00593377483443711	-3.4082119205298	-2.18807947019868	0.502516556291392				0.479788079470199	-0.0628344370860927	-0.820238410596026	-5.29960264900662	1.27761589403974	3.72529801324503			
54	1320	-0.168158940397351	0.114754966887417	-0.983523178807947	-1.92662251655629	0.695364238410596	-0.624900662251656				0.976953642384106	0.127788079470199	-0.0188609271523178	-6.84609271523179	-0.532185430463576	-0.585960264900661				-0.186172185430464	-0.161271523178808	-0.87194701986755	-32.472582781457	1.82649006622517	4.83973509933775				0.560529801324503	-0.464529801324503	-0.677721854304636	-0.317086092715232	6.3435761589404	2.46437086092715				0.948026490066225	-0.0125033112582781	0.0219337748344371	-3.9682119205298	-1.90807947019868	-0.337483443708608				0.479788079470199	-0.0468344370860927	-0.820238410596026	-4.17960264900662	0.437615894039735	5.12529801324503			
55	1340	-0.168158940397351	0.146754966887417	-0.935523178807947	-6.12662251655629	0.415364238410596	-0.344900662251656				1.02495364238411	0.159788079470199	-0.0508609271523178	-1.52609271523179	-0.812185430463576	2.77403973509934				-0.186172185430464	-0.161271523178808	-0.91994701986755	-29.672582781457	4.90649006622517	3.43973509933775				0.544529801324503	-0.448529801324503	-0.677721854304636	-2.55708609271523	4.9435761589404	4.14437086092715				0.964026490066225	-0.0125033112582781	0.0219337748344371	-4.2482119205298	-0.788079470198675	0.222516556291392				0.495788079470199	-0.0628344370860927	-0.820238410596026	-3.61960264900662	0.437615894039735	6.24529801324503			
56	1360	-0.152158940397351	0.130754966887417	-0.935523178807947	-6.68662251655629	-0.704635761589404	0.215099337748344				0.992953642384106	0.111788079470199	-0.0668609271523178	4.63390728476821	-2.49218543046358	4.73403973509934				-0.218172185430464	-0.113271523178808	-0.88794701986755	-23.512582781457	4.34649006622517	4.55973509933775				0.560529801324503	-0.448529801324503	-0.677721854304636	-1.99708609271523	3.2635761589404	5.54437086092715				0.980026490066225	0.00349668874172187	0.00593377483443711	-6.4882119205298	-1.34807947019868	-0.0574834437086077				0.495788079470199	-0.0468344370860927	-0.836238410596026	-5.57960264900662	0.157615894039735	5.96529801324503			
57	1380	-0.152158940397351	0.130754966887417	-0.951523178807947	-7.52662251655629	-1.5446357615894	-0.0649006622516557				0.976953642384106	0.127788079470199	-0.0508609271523178	2.39390728476821	-3.05218543046358	5.29403973509934				-0.234172185430464	-0.0492715231788079	-0.85594701986755	-7.83258278145695	2.38649006622517	4.27973509933775				0.560529801324503	-0.480529801324503	-0.677721854304636	-3.11708609271523	2.1435761589404	7.22437086092715				0.980026490066225	-0.0285033112582781	0.00593377483443711	-7.3282119205298	0.331920529801325	0.502516556291392				0.495788079470199	-0.0468344370860927	-0.836238410596026	-4.45960264900662	0.437615894039735	5.40529801324503			
58	1400	-0.184158940397351	0.162754966887417	-0.951523178807947	-11.7266225165563	-0.424635761589404	-2.02490066225166				0.944953642384106	0.159788079470199	-0.0508609271523178	0.713907284768212	-6.97218543046358	2.77403973509934				-0.202172185430464	-0.0972715231788079	-0.95194701986755	1.40741721854305	2.94649006622517	3.15973509933775				0.560529801324503	-0.480529801324503	-0.693721854304636	-5.63708609271523	1.0235761589404	10.0243708609272				0.964026490066225	-0.0125033112582781	0.0219337748344371	-5.3682119205298	1.73192052980133	1.34251655629139				0.495788079470199	-0.0468344370860927	-0.852238410596026	-3.89960264900662	-0.122384105960265	5.12529801324503			
59	1420	-0.168158940397351	0.210754966887417	-0.967523178807947	-9.20662251655629	0.135364238410596	-1.18490066225166				1.00895364238411	0.143788079470199	-0.0668609271523178	0.153907284768212	3.10781456953642	3.89403973509934				-0.170172185430464	-0.113271523178808	-0.91994701986755	-2.23258278145695	3.22649006622517	4.27973509933775				0.576529801324503	-0.464529801324503	-0.677721854304636	-10.1170860927152	-0.9364238410596	11.7043708609272				0.964026490066225	0.00349668874172187	0.00593377483443711	-5.3682119205298	3.97192052980133	-0.617483443708608				0.479788079470199	-0.0468344370860927	-0.836238410596026	-6.69960264900662	-2.92238410596027	5.96529801324503			
60	1440	-0.184158940397351	0.146754966887417	-0.935523178807947	0.313377483443709	1.2553642384106	0.215099337748344				0.992953642384106	0.127788079470199	-0.00286092715231785	-1.24609271523179	6.74781456953642	4.17403973509934				-0.186172185430464	-0.113271523178808	-0.91994701986755	-8.39258278145695	1.26649006622517	1.75973509933775				0.560529801324503	-0.464529801324503	-0.693721854304636	-8.99708609271523	-3.7364238410596	13.9443708609272				0.980026490066225	-0.0125033112582781	0.0219337748344371	-4.5282119205298	4.25192052980133	-0.617483443708608				0.495788079470199	-0.0308344370860927	-0.852238410596026	-9.49960264900662	-5.72238410596027	5.12529801324503			
61	1460	-0.168158940397351	0.130754966887417	-0.935523178807947	2.55337748344371	2.6553642384106	-0.904900662251656				0.960953642384106	0.111788079470199	-0.0188609271523178	-4.60609271523179	6.46781456953642	5.29403973509934				-0.218172185430464	-0.113271523178808	-0.88794701986755	-18.192582781457	-0.693509933774834	1.19973509933775				0.544529801324503	-0.480529801324503	-0.709721854304636	-3.67708609271523	-4.0164238410596	17.0243708609272				0.996026490066225	0.00349668874172187	-0.0100662251655629	-5.3682119205298	4.53192052980133	-0.0574834437086077				0.479788079470199	-0.0148344370860927	-0.868238410596026	-7.25960264900662	-10.2023841059603	3.72529801324503			
62	1480	-0.184158940397351	0.0827549668874172	-0.983523178807947	3.39337748344371	3.4953642384106	-0.344900662251656				0.976953642384106	0.159788079470199	-0.00286092715231785	-4.32609271523179	8.98781456953643	1.09403973509934				-0.218172185430464	-0.0972715231788079	-0.93594701986755	-20.152582781457	-4.05350993377483	1.19973509933775				0.544529801324503	-0.496529801324503	-0.741721854304636	-3.95708609271523	-4.8564238410596	19.8243708609272				0.964026490066225	0.00349668874172187	0.00593377483443711	-2.8482119205298	5.93192052980133	-1.45748344370861				0.479788079470199	0.00116556291390731	-0.884238410596026	-2.77960264900662	-13.0023841059603	1.48529801324503			
63	1500	-0.168158940397351	0.0987549668874172	-0.967523178807947	-3.60662251655629	3.2153642384106	1.61509933774834				1.07295364238411	0.111788079470199	-0.0508609271523178	-2.64609271523179	7.58781456953643	2.21403973509934				-0.186172185430464	-0.0652715231788079	-0.96794701986755	-7.27258278145696	-4.61350993377483	-4.12026490066225				0.528529801324503	-0.528529801324503	-0.757721854304636	-11.5170860927152	-6.2564238410596	22.3443708609272				0.996026490066225	0.0194966887417219	0.00593377483443711	-5.0882119205298	9.85192052980133	-2.57748344370861				0.479788079470199	0.00116556291390731	-0.884238410596026	-1.65960264900662	-13.8423841059603	-1.31470198675497			
64	1520	-0.152158940397351	0.114754966887417	-0.951523178807947	-6.12662251655629	1.8153642384106	2.73509933774834				1.18495364238411	0.143788079470199	-0.0508609271523178	0.993907284768212	-15.3721854304636	1.37403973509934				-0.202172185430464	-0.113271523178808	-0.95194701986755	1.40741721854305	-7.69350993377483	-7.76026490066225				0.496529801324503	-0.544529801324503	-0.757721854304636	-22.1570860927152	-10.7364238410596	27.1043708609272				0.996026490066225	-0.0125033112582781	-0.0100662251655629	-9.0082119205298	16.8519205298013	-3.13748344370861				0.479788079470199	0.00116556291390731	-0.900238410596026	-4.45960264900662	-14.6823841059603	-2.15470198675497			
65	1540	-0.184158940397351	0.114754966887417	-0.983523178807947	-5.00662251655629	1.8153642384106	4.97509933774835				1.26495364238411	0.143788079470199	-0.114860927152318	15.2739072847682	-85.3721854304636	-6.74596026490066				-0.202172185430464	-0.113271523178808	-0.91994701986755	3.64741721854305	-11.3335099337748	-10.8402649006623				0.480529801324503	-0.544529801324503	-0.773721854304636	-26.6370860927152	-16.0564238410596	34.1043708609272				1.01202649006623	-0.0445033112582781	-0.0420662251655629	-10.1282119205298	14.0519205298013	-2.57748344370861				0.479788079470199	0.00116556291390731	-0.916238410596027	-6.13960264900662	-16.0823841059603	-2.43470198675497			
66	1560	-0.168158940397351	0.114754966887417	-0.967523178807947	-4.16662251655629	4.0553642384106	6.09509933774834				0.656953642384106	0.0317880794701987	-0.370860927152318	4.63390728476821	-69.6921854304636	3.33403973509934				-0.154172185430464	-0.0972715231788079	-0.90394701986755	-12.312582781457	-19.1735099337748	-12.8002649006623				0.400529801324503	-0.512529801324503	-0.789721854304636	-29.7170860927152	-23.3364238410596	39.1443708609272				0.964026490066225	-0.0285033112582781	-0.0740662251655629	-17.9682119205298	17.9719205298013	-1.45748344370861				0.447788079470199	-0.0148344370860927	-0.932238410596026	-3.05960264900662	-22.8023841059603	-0.754701986754968			
67	1580	-0.136158940397351	0.114754966887417	-0.951523178807947	-2.76662251655629	4.8953642384106	6.93509933774835				0.832953642384106	-0.0322119205298013	-0.0508609271523178	-33.7260927152318	9.82781456953643	6.13403973509934				-0.138172185430464	-0.273271523178808	-0.99994701986755	-13.152582781457	-34.5735099337748	-15.6002649006622				0.352529801324503	-0.512529801324503	-0.837721854304636	-34.4770860927152	-29.7764238410596	40.8243708609272				0.964026490066225	-0.0285033112582781	-0.0260662251655629	-12.0882119205298	29.7319205298013	-0.617483443708608				0.415788079470199	-0.0308344370860927	-0.980238410596026	-6.69960264900662	-29.8023841059603	-1.03470198675497			
68	1600	-0.200158940397351	0.114754966887417	-0.919523178807947	-4.16662251655629	4.0553642384106	9.17509933774834				1.05695364238411	0.143788079470199	-0.0508609271523178	-26.1660927152318	6.18781456953642	3.05403973509934				0.213827814569536	-0.225271523178808	-0.96794701986755	-22.672582781457	-69.0135099337748	32.8397350993378				0.320529801324503	-0.592529801324503	-0.821721854304636	-37.8370860927152	-29.2164238410596	42.2243708609272				0.964026490066225	-0.0605033112582781	-0.0580662251655629	-12.3682119205298	26.9319205298013	0.502516556291392				0.367788079470199	0.00116556291390731	-1.02823841059603	-5.29960264900662	-34.2823841059603	5.12529801324503			
69	1620	-0.248158940397351	0.146754966887417	-0.951523178807947	-3.88662251655629	5.1753642384106	10.0150993377483				1.05695364238411	0.255788079470199	-0.290860927152318	-2.08609271523179	-19.5721854304636	1.37403973509934				-0.314172185430464	0.270728476821192	-0.75994701986755	-1.39258278145695	-76.5735099337748	67.5597350993378				0.368529801324503	-0.672529801324503	-0.869721854304636	-44.8370860927152	-26.4164238410596	45.5843708609272				1.04402649006623	-0.0605033112582781	-0.138066225165563	-16.0082119205298	32.2519205298013	-0.617483443708608				0.319788079470199	-0.0148344370860927	-1.04423841059603	0.0203973509933773	-37.6423841059603	11.565298013245			
70	1640	-0.216158940397351	0.178754966887417	-0.967523178807947	-2.76662251655629	6.2953642384106	13.3750993377483				0.912953642384106	0.175788079470199	-0.354860927152318	-3.76609271523179	14.8678145695364	10.8940397350993				-0.426172185430464	0.174728476821192	-0.69594701986755	-10.912582781457	-34.0135099337748	3.71973509933775				0.352529801324503	-0.624529801324503	-0.901721854304636	-63.3170860927152	-27.8164238410596	42.7843708609272				1.09202649006623	-0.0445033112582781	-0.154066225165563	-17.4082119205298	43.4519205298013	-2.01748344370861				0.255788079470199	-0.0788344370860927	-1.02823841059603	7.30039735099338	-37.0823841059603	21.365298013245			
71	1660	-0.264158940397351	0.210754966887417	-1.07952317880795	-5.00662251655629	5.1753642384106	15.3350993377483				1.00895364238411	0.0637880794701987	-0.0828609271523179	-28.6860927152318	50.4278145695364	13.9740397350993				-0.410172185430464	-0.0332715231788079	-0.87194701986755	2.24741721854305	1.26649006622517	-9.44026490066225				0.272529801324503	-0.480529801324503	-0.901721854304636	-72.2770860927152	-24.4564238410596	32.1443708609272				1.09202649006623	-0.0445033112582781	-0.122066225165563	-19.9282119205298	47.6519205298013	-5.37748344370861				0.223788079470199	-0.0468344370860927	-1.02823841059603	1.98039735099338	-33.4423841059603	32.845298013245			
72	1680	-0.248158940397351	0.226754966887417	-0.967523178807947	-11.4466225165563	14.1353642384106	15.3350993377483				0.896953642384106	0.223788079470199	-0.306860927152318	-8.52609271523179	43.1478145695364	-1.98596026490066				-0.394172185430464	-0.209271523178808	-0.93594701986755	15.127417218543	7.98649006622517	-6.08026490066225				0.208529801324503	-0.416529801324503	-0.869721854304636	-59.6770860927152	-16.6164238410596	27.9443708609272				1.14002649006623	-0.108503311258278	-0.0580662251655629	-4.8082119205298	47.0919205298013	-5.09748344370861				0.207788079470199	0.00116556291390731	-1.04423841059603	-2.49960264900662	-28.1223841059603	42.645298013245			
73	1700	-0.216158940397351	0.210754966887417	-0.871523178807947	-16.7666225165563	23.6553642384106	13.0950993377483				0.976953642384106	0.159788079470199	-0.354860927152318	-16.0860927152318	74.5078145695364	10.8940397350993				-0.346172185430464	-0.273271523178808	-1.01594701986755	13.447417218543	13.5864900662252	-3.28026490066225				0.224529801324503	-0.368529801324503	-0.869721854304636	-35.3170860927152	-5.9764238410596	25.9843708609272				1.15602649006623	-0.0285033112582781	-0.0420662251655629	-8.7282119205298	39.5319205298013	-5.93748344370861				0.223788079470199	-0.0148344370860927	-1.04423841059603	12.6203973509934	-19.7223841059603	42.645298013245			
74	1720	-0.248158940397351	0.146754966887417	-1.04752317880795	-9.48662251655629	25.6153642384106	7.21509933774835				1.12095364238411	0.159788079470199	-0.130860927152318	-37.3660927152318	92.4278145695364	14.8140397350993				-0.378172185430464	-0.177271523178808	-1.01594701986755	1.68741721854305	25.6264900662252	-3.28026490066225				0.352529801324503	-0.352529801324503	-0.837721854304636	-19.3570860927152	2.9835761589404	14.7843708609272				1.14002649006623	-0.0125033112582781	0.00593377483443711	-15.1682119205298	29.7319205298013	-6.49748344370861				0.239788079470199	-0.0308344370860927	-1.01223841059603	27.4603973509934	-15.8023841059603	43.205298013245			
75	1740	-0.328158940397351	0.178754966887417	-0.903523178807947	-38.3266225165563	32.3353642384106	4.69509933774834				1.15295364238411	0.207788079470199	-0.0188609271523178	-29.5260927152318	87.6678145695364	12.5740397350993				-0.442172185430464	-0.209271523178808	-0.95194701986755	-38.072582781457	25.9064900662252	-3.56026490066225				0.448529801324503	-0.384529801324503	-0.821721854304636	1.08291390728477	22.8635761589404	7.50437086092715				1.20402649006623	-0.0285033112582781	0.101933774834437	-12.0882119205298	31.6919205298013	-8.17748344370861				0.255788079470199	-0.0628344370860927	-0.996238410596026	20.1803973509934	-6.56238410596027	42.365298013245			
76	1760	-0.376158940397351	0.178754966887417	-1.17552317880795	-36.3666225165563	36.2553642384106	12.5350993377483				1.05695364238411	0.191788079470199	0.0771390728476822	-17.4860927152318	93.8278145695364	9.49403973509934				-0.554172185430464	0.0307284768211921	-1.09594701986755	-29.952582781457	44.1064900662252	-5.24026490066225				0.496529801324503	-0.384529801324503	-0.837721854304636	17.3229139072848	33.2235761589404	6.10437086092715				1.23602649006623	0.00349668874172187	0.181933774834437	-9.0082119205298	28.3319205298013	-10.1374834437086				0.303788079470199	-0.0468344370860927	-0.996238410596026	10.6603973509934	18.3576158940397	40.965298013245			
77	1780	-0.280158940397351	0.162754966887417	-1.11152317880795	-24.6066225165563	47.1753642384106	19.8150993377483				1.34495364238411	0.127788079470199	0.157139072847682	-36.2460927152318	118.747814569536	4.17403973509934				-0.458172185430464	0.0627284768211921	-0.85594701986755	-27.712582781457	50.2664900662252	-0.76026490066225				0.624529801324503	-0.480529801324503	-0.837721854304636	17.8829139072848	37.9835761589404	1.06437086092715				1.09202649006623	0.0834966887417219	0.229933774834437	-14.6082119205298	24.1319205298013	-7.61748344370861				0.383788079470199	0.00116556291390731	-1.02823841059603	9.54039735099338	28.7176158940397	24.445298013245			
78	1800	-0.200158940397351	0.210754966887417	-1.03152317880795	-15.6466225165563	48.2953642384106	26.5350993377483				1.50495364238411	-0.0642119205298013	0.573139072847682	-62.5660927152318	116.787814569536	8.65403973509934				-0.314172185430464	0.0307284768211921	-1.07994701986755	-12.592582781457	50.8264900662252	1.75973509933775				0.816529801324503	-0.480529801324503	-0.917721854304636	18.1629139072848	36.5835761589404	-0.895629139072848				1.06002649006623	0.0994966887417219	0.373933774834437	2.1917880794702	33.9319205298013	-5.93748344370861				0.527788079470199	0.0331655629139073	-1.02823841059603	34.1803973509934	34.3176158940397	10.725298013245			
79	1820	-0.152158940397351	0.178754966887417	-1.06352317880795	-8.92662251655629	55.2953642384106	34.3750993377484				1.28095364238411	0.271788079470199	0.541139072847682	-32.3260927152318	72.5478145695364	2.77403973509934				-0.234172185430464	-0.161271523178808	-0.99994701986755	-5.87258278145695	57.5464900662252	-2.16026490066225				0.960529801324503	-0.496529801324503	-0.933721854304636	8.08291390728477	30.1435761589404	-4.53562913907285				1.15602649006623	0.0674966887417219	0.533933774834437	30.1917880794702	43.7319205298013	-8.73748344370861				0.559788079470199	-0.174834437086093	-0.820238410596026	30.8203973509934	32.9176158940397	6.80529801324503			
80	1840	-0.024158940397351	0.178754966887417	-1.06352317880795	-13.9666225165563	65.0953642384106	35.7750993377484				1.31295364238411	0.271788079470199	0.317139072847682	23.6739072847682	27.7478145695364	4.17403973509934				-0.122172185430464	-0.0812715231788079	-0.99994701986755	-9.79258278145695	63.9864900662252	-4.40026490066225				0.976529801324503	-0.448529801324503	-0.901721854304636	10.8829139072848	29.3035761589404	-16.0156291390729				1.22002649006623	0.0994966887417219	0.581933774834437	26.5517880794702	38.1319205298013	-12.9374834437086				0.671788079470199	-0.222834437086093	-0.868238410596026	-4.73960264900662	48.3176158940397	-2.43470198675497			
81	1860	0.007841059602649	0.258754966887417	-1.03152317880795	-23.2066225165563	72.0953642384106	35.7750993377484				1.21695364238411	0.143788079470199	0.221139072847682	12.1939072847682	14.3078145695364	6.13403973509934				-0.138172185430464	-0.0492715231788079	-0.99994701986755	-7.83258278145695	68.1864900662252	-2.16026490066225				0.960529801324503	-0.480529801324503	-0.837721854304636	0.802913907284768	23.7035761589404	-24.4156291390728				1.22002649006623	0.179496688741722	0.421933774834437	7.7917880794702	17.6919205298013	-16.2974834437086				0.783788079470199	-0.174834437086093	-0.884238410596026	-25.4596026490066	50.5576158940397	-14.474701986755			
82	1880	0.039841059602649	0.274754966887417	-1.03152317880795	-20.4066225165563	71.5353642384106	38.2950993377484				1.04095364238411	0.0157880794701987	0.317139072847682	-46.8860927152318	11.5078145695364	9.77403973509934				-0.170172185430464	-0.0332715231788079	-0.99994701986755	0.287417218543046	74.0664900662252	2.87973509933775				0.752529801324503	-0.464529801324503	-0.837721854304636	-22.9970860927152	16.7035761589404	-19.6556291390729				1.14002649006623	0.0994966887417219	0.341933774834437	10.5917880794702	13.4919205298013	-17.6974834437086				0.751788079470199	-0.222834437086093	-0.820238410596026	-31.0596026490066	48.5976158940397	-21.754701986755			
83	1900	-0.008158940397351	0.322754966887417	-0.999523178807947	-12.5666225165563	76.8553642384106	33.8150993377484				1.13695364238411	0.0637880794701987	0.477139072847682	-64.8060927152318	20.7478145695364	11.7340397350993				-0.0421721854304636	-0.193271523178808	-1.01594701986755	-13.432582781457	83.8664900662252	5.67973509933775				0.624529801324503	-0.368529801324503	-0.837721854304636	-30.8370860927152	15.5835761589404	-14.8956291390728				1.06002649006623	0.0194966887417219	0.517933774834437	20.6717880794702	10.4119205298013	-15.1774834437086				0.751788079470199	-0.270834437086093	-0.868238410596026	-29.0996026490066	48.5976158940397	-17.834701986755			
84	1920	0.039841059602649	0.386754966887417	-1.01552317880795	-1.36662251655629	83.2953642384106	33.8150993377484				1.39295364238411	0.175788079470199	0.509139072847682	-2.36609271523179	26.0678145695364	2.49403973509934				-0.0741721854304636	-0.0172715231788079	-1.03194701986755	-29.392582781457	79.3864900662252	9.59973509933775				0.560529801324503	-0.352529801324503	-0.821721854304636	-13.7570860927152	16.1435761589404	-16.8556291390729				1.06002649006623	0.00349668874172187	0.517933774834437	10.3117880794702	10.4119205298013	-15.7374834437086				0.783788079470199	-0.254834437086093	-0.932238410596026	-30.2196026490066	45.5176158940397	-9.99470198675497			
85	1940	0.167841059602649	0.354754966887417	-1.03152317880795	10.6733774834437	84.4153642384106	33.8150993377484				1.21695364238411	0.111788079470199	0.285139072847682	57.2739072847682	-15.9321854304636	-8.98596026490066				-0.0741721854304636	-0.0332715231788079	-0.99994701986755	-25.752582781457	86.6664900662252	14.3597350993378				0.576529801324503	-0.384529801324503	-0.773721854304636	-5.63708609271523	26.5035761589404	-20.4956291390729				1.17202649006623	0.0354966887417219	0.357933774834437	-6.2082119205298	14.3319205298013	-15.4574834437086				0.767788079470199	-0.286834437086093	-0.900238410596026	-26.0196026490066	48.8776158940397	-4.67470198675497			
86	1960	0.215841059602649	0.338754966887417	-0.983523178807947	20.7533774834437	91.6953642384106	33.5350993377483				0.992953642384106	0.0317880794701987	0.157139072847682	8.55390728476821	-13.9721854304636	-10.6659602649007				-0.0101721854304636	-0.0172715231788079	-0.99994701986755	-26.872582781457	94.7864900662252	19.9597350993378				0.640529801324503	-0.400529801324503	-0.757721854304636	3.04291390728477	36.3035761589404	-12.3756291390728				1.15602649006623	0.0354966887417219	0.293933774834437	-18.2482119205298	13.7719205298013	-15.4574834437086				0.751788079470199	-0.190834437086093	-0.948238410596026	-28.2596026490066	50.8376158940397	-4.39470198675497			
87	1980	0.231841059602649	0.226754966887417	-0.967523178807947	20.1933774834437	98.1353642384106	34.3750993377484				1.07295364238411	-0.0322119205298013	0.301139072847682	-45.2060927152318	20.1878145695364	-15.4259602649007				0.149827814569536	-0.00127152317880793	-0.91994701986755	-14.552582781457	100.666490066225	20.2397350993378				0.688529801324503	-0.400529801324503	-0.741721854304636	3.32291390728477	38.2635761589404	-9.01562913907285				1.09202649006623	0.0194966887417219	0.389933774834437	-17.6882119205298	9.85192052980133	-13.2174834437086				0.703788079470199	-0.142834437086093	-0.916238410596027	-7.81960264900662	44.6776158940397	-0.754701986754968			
88	2000	0.311841059602649	0.162754966887417	-0.951523178807947	15.4333774834437	103.735364238411	31.0150993377483				1.10495364238411	0.0797880794701987	0.429139072847682	-36.5260927152318	31.1078145695364	-4.50596026490066				0	0	0	0	0	0				0.704529801324503	-0.288529801324503	-0.725721854304636	5.56291390728477	38.8235761589404	-9.29562913907285				1.06002649006623	0.0674966887417219	0.437933774834437	-21.0482119205298	0.891920529801325	-13.7774834437086				0	0	0	0	0	0			
89	2060	0.423841059602649	0.130754966887417	-0.903523178807947	11.7933774834437	105.695364238411	32.1350993377484				1.05695364238411	0.175788079470199	0.333139072847682	9.67390728476821	-6.69218543046358	-10.6659602649007				0.197827814569536	0.0947284768211921	-0.88794701986755	-7.55258278145695	108.506490066225	13.2397350993378				0.864529801324503	-0.448529801324503	-0.725721854304636	-5.91708609271523	13.9035761589404	-8.45562913907285				1.06002649006623	0.0994966887417219	0.389933774834437	-9.0082119205298	-1.62807947019868	-8.17748344370861				0.783788079470199	-0.0788344370860927	-0.804238410596027	-8.09960264900662	32.3576158940397	4.84529801324503			
90	2080	0.487841059602649	0.178754966887417	-0.855523178807947	6.47337748344371	110.175364238411	28.7750993377483				1.07295364238411	0.0957880794701987	0.413139072847682	-0.406092715231788	-11.7321854304636	0.53403973509934				0.245827814569536	0.0467284768211921	-0.85594701986755	2.80741721854305	107.106490066225	10.4397350993378				0.800529801324503	-0.320529801324503	-0.693721854304636	-13.7570860927152	12.5035761589404	-10.4156291390728				1.04402649006623	0.163496688741722	0.453933774834437	-17.9682119205298	-2.46807947019868	-7.61748344370861				0.719788079470199	-0.142834437086093	-0.772238410596026	-18.1796026490066	29.8376158940397	11.005298013245			
91	2100	0.503841059602649	0.210754966887417	-0.791523178807947	8.43337748344371	115.775364238411	26.5350993377483				1.10495364238411	0.0477880794701987	0.237139072847682	7.99390728476821	-24.0521854304636	8.93403973509934				0.245827814569536	0.0147284768211921	-0.85594701986755	-0.552582781456954	104.866490066225	5.67973509933775				0.784529801324503	-0.224529801324503	-0.661721854304636	-1.99708609271523	14.7435761589404	-5.93562913907285				0.996026490066225	0.195496688741722	0.341933774834437	-14.0482119205298	-11.4280794701987	-4.53748344370861				0.703788079470199	-0.0948344370860927	-0.724238410596026	-27.9796026490066	30.9576158940397	12.965298013245			
92	2120	0.487841059602649	0.146754966887417	-0.791523178807947	7.87337748344371	121.935364238411	22.8950993377483				1.10495364238411	0.127788079470199	0.173139072847682	19.7539072847682	-23.7721854304636	-2.26596026490066				0.261827814569536	-0.00127152317880793	-0.82394701986755	-1.11258278145695	107.946490066225	2.03973509933775				0.752529801324503	-0.256529801324503	-0.645721854304636	13.1229139072848	8.5835761589404	0.504370860927152				0.964026490066225	0.147496688741722	0.325933774834437	-3.6882119205298	-11.7080794701987	-2.57748344370861				0.735788079470199	-0.0308344370860927	-0.740238410596026	-32.7396026490066	31.2376158940397	9.88529801324503			
93	2140	0.503841059602649	0.130754966887417	-0.775523178807947	-3.32662251655629	126.695364238411	16.4550993377483				0.912953642384106	0.127788079470199	0.221139072847682	27.8739072847682	-35.5321854304636	-5.62596026490066				0.277827814569536	0.0147284768211921	-0.80794701986755	0.567417218543046	110.186490066225	-3.00026490066225				0.704529801324503	-0.368529801324503	-0.613721854304636	3.60291390728477	1.0235761589404	3.86437086092715				0.948026490066225	0.0514966887417219	0.325933774834437	4.4317880794702	-14.2280794701987	0.782516556291392				0.735788079470199	-0.0628344370860927	-0.708238410596026	-19.2996026490066	23.1176158940397	7.36529801324503			
94	2160	0.471841059602649	0.274754966887417	-0.759523178807947	-5.28662251655629	125.855364238411	5.25509933774834				0.816953642384106	0.0957880794701987	0.205139072847682	5.47390728476821	-39.1721854304636	-3.38596026490066				0.293827814569536	0.0307284768211921	-0.77594701986755	-2.51258278145695	114.666490066225	-4.68026490066225				0.624529801324503	-0.368529801324503	-0.533721854304636	-12.9170860927152	-1.7764238410596	3.86437086092715				0.884026490066225	0.0514966887417219	0.325933774834437	-2.8482119205298	-18.9880794701987	1.06251655629139				0.639788079470199	-0.142834437086093	-0.660238410596027	-14.2596026490066	19.4776158940397	11.845298013245			
95	2180	0.455841059602649	0.242754966887417	-0.663523178807947	7.87337748344371	122.215364238411	8.89509933774834				0.960953642384106	-0.0482119205298013	0.205139072847682	-12.4460927152318	-30.2121854304636	11.7340397350993				0.357827814569536	0.0147284768211921	-0.72794701986755	-12.312582781457	118.866490066225	-1.60026490066225				0.544529801324503	-0.224529801324503	-0.485721854304636	-8.71708609271523	-0.0964238410596001	4.14437086092715				0.836026490066225	0.0834966887417219	0.293933774834437	-11.2482119205298	-24.0280794701987	1.34251655629139				0.575788079470199	-0.0948344370860927	-0.644238410596026	-28.2596026490066	18.9176158940397	14.645298013245			
96	2200	0.503841059602649	0.146754966887417	-0.679523178807947	19.0733774834437	116.615364238411	5.25509933774834				0.992953642384106	-0.0162119205298013	0.125139072847682	-4.32609271523179	-37.4921854304636	4.45403973509934				0.453827814569536	-0.00127152317880793	-0.69594701986755	-10.072582781457	113.266490066225	0.0797350993377501				0.496529801324503	-0.160529801324503	-0.517721854304636	17.6029139072848	4.9435761589404	6.38437086092715				0.820026490066225	0.0834966887417219	0.229933774834437	-10.4082119205298	-28.5080794701987	2.46251655629139				0.575788079470199	-0.0148344370860927	-0.596238410596026	-34.9796026490066	16.9576158940397	11.005298013245			
97	2220	0.551841059602649	0.0667549668874172	-0.679523178807947	9.27337748344371	112.135364238411	1.89509933774834				0.816953642384106	0.0637880794701987	0.0611390728476822	10.7939072847682	-52.8921854304636	0.81403973509934				0.501827814569536	0.0147284768211921	-0.69594701986755	-2.79258278145695	119.426490066225	-5.24026490066225				0.496529801324503	-0.256529801324503	-0.517721854304636	28.2429139072848	6.6235761589404	12.2643708609272				0.820026490066225	0.0194966887417219	0.197933774834437	3.5917880794702	-33.8280794701987	6.66251655629139				0.543788079470199	0.0171655629139073	-0.596238410596026	-29.6596026490066	10.5176158940397	3.16529801324503			
98	2240	0.551841059602649	0.0827549668874172	-0.695523178807947	0.593377483443709	108.775364238411	2.73509933774834				0.624953642384106	0.207788079470199	0.0131390728476822	3.51390728476821	-58.7721854304636	-0.0259602649006601				0.501827814569536	0.0787284768211921	-0.61594701986755	4.48741721854305	118.586490066225	-5.80026490066225				0.512529801324503	-0.368529801324503	-0.501721854304636	18.4429139072848	-2.8964238410596	15.9043708609272				0.772026490066225	0.00349668874172187	0.197933774834437	-1.4482119205298	-41.3880794701987	6.94251655629139				0.511788079470199	-0.0308344370860927	-0.612238410596026	-16.2196026490066	-0.402384105960265	3.72529801324503			
99	2260	0.535841059602649	0.114754966887417	-0.615523178807947	-0.526622516556291	109.895364238411	3.85509933774834				0.640953642384106	0.0477880794701987	0.0291390728476822	-9.92609271523179	-42.2521854304636	-0.86596026490066				0.453827814569536	0.0307284768211921	-0.64794701986755	-8.67258278145695	112.986490066225	-1.32026490066225				0.480529801324503	-0.336529801324503	-0.469721854304636	4.16291390728477	-11.0164238410596	13.6643708609272				0.724026490066225	0.0354966887417219	0.197933774834437	-13.7682119205298	-47.5480794701987	6.94251655629139				0.463788079470199	-0.0948344370860927	-0.580238410596026	-16.4996026490066	-2.64238410596027	11.565298013245			
100	2280	0.583841059602649	0.114754966887417	-0.615523178807947	0.873377483443709	111.295364238411	7.77509933774834				0.752953642384106	-0.000211920529801304	0.109139072847682	-11.6060927152318	-35.8121854304636	-6.18596026490066				0.485827814569536	-0.00127152317880793	-0.63194701986755	-10.352582781457	110.466490066225	0.91973509933775				0.448529801324503	-0.240529801324503	-0.469721854304636	7.24291390728477	-13.2564238410596	10.5843708609272				0.724026490066225	0.0514966887417219	0.117933774834437	-10.4082119205298	-45.0280794701987	5.54251655629139				0.447788079470199	-0.0948344370860927	-0.532238410596027	-33.2996026490066	2.11761589403974	12.685298013245			
101	2300	0.647841059602649	0.114754966887417	-0.551523178807947	3.39337748344371	108.495364238411	12.2550993377483				0.832953642384106	0.0797880794701987	0.0451390728476822	-6.00609271523179	-36.9321854304636	-7.30596026490066				0.549827814569536	-0.0332715231788079	-0.59994701986755	-14.552582781457	106.266490066225	0.91973509933775				0.432529801324503	-0.272529801324503	-0.485721854304636	17.6029139072848	-11.8564238410596	11.7043708609272				0.724026490066225	0.00349668874172187	0.149933774834437	-3.1282119205298	-46.4280794701987	6.38251655629139				0.479788079470199	0.0171655629139073	-0.532238410596027	-44.4996026490066	4.07761589403974	2.32529801324503			
102	2320	0.727841059602649	0.130754966887417	-0.503523178807947	17.1133774834437	111.015364238411	11.9750993377483				0.832953642384106	0.207788079470199	0.0771390728476822	-2.64609271523179	-35.2521854304636	-8.42596026490066				0.645827814569536	0.0307284768211921	-0.61594701986755	-12.032582781457	109.626490066225	3.71973509933775				0.464529801324503	-0.384529801324503	-0.501721854304636	19.8429139072848	-12.9764238410596	17.5843708609272				0.772026490066225	0.00349668874172187	0.165933774834437	-5.9282119205298	-48.1080794701987	7.50251655629139				0.527788079470199	0.0651655629139073	-0.580238410596026	-29.0996026490066	-2.92238410596027	-8.87470198675497			
103	2340	0.743841059602649	0.0507549668874172	-0.471523178807947	18.5133774834437	112.415364238411	10.5750993377483				0.784953642384106	0.175788079470199	0.0291390728476822	9.11390728476821	-51.2121854304636	-14.0259602649007				0.661827814569536	0.0307284768211921	-0.50394701986755	-32.192582781457	112.986490066225	7.35973509933775				0.480529801324503	-0.384529801324503	-0.501721854304636	10.8829139072848	-14.6564238410596	15.6243708609272				0.772026490066225	0.0354966887417219	0.0859337748344371	-12.0882119205298	-52.0280794701987	5.54251655629139				0.527788079470199	0.00116556291390731	-0.596238410596026	-12.5796026490066	-8.52238410596027	-6.35470198675497			
104	2360	0.759841059602649	0.0347549668874172	-0.423523178807947	20.1933774834437	111.295364238411	11.6950993377483				0.752953642384106	0.0157880794701987	0.0291390728476822	10.7939072847682	-46.4521854304636	-10.1059602649007				0.661827814569536	0.0147284768211921	-0.50394701986755	-35.272582781457	106.546490066225	6.79973509933775				0.448529801324503	-0.304529801324503	-0.485721854304636	7.52291390728477	-11.5764238410596	11.1443708609272				0.772026490066225	0.0674966887417219	0.0859337748344371	-15.1682119205298	-46.9880794701987	3.58251655629139				0.495788079470199	-0.0308344370860927	-0.548238410596027	-15.6596026490066	-4.60238410596027	0.925298013245032			
105	2380	0.775841059602649	0.0827549668874172	-0.343523178807947	17.6733774834437	107.655364238411	8.33509933774834				0.736953642384106	-0.0162119205298013	0.0771390728476822	6.59390728476821	-40.5721854304636	-8.98596026490066				0.661827814569536	0.0627284768211921	-0.51994701986755	-33.032582781457	99.5464900662252	5.39973509933775				0.432529801324503	-0.272529801324503	-0.485721854304636	20.1229139072848	-5.9764238410596	13.6643708609272				0.788026490066225	0.0514966887417219	0.0859337748344371	-8.4482119205298	-45.5880794701987	4.42251655629139				0.463788079470199	0.00116556291390731	-0.516238410596026	-31.6196026490066	1.55761589403974	-3.55470198675497			
106	2400	0.791841059602649	0.0827549668874172	-0.311523178807947	20.1933774834437	105.415364238411	6.09509933774834				0.704953642384106	0.0477880794701987	0.0291390728476822	3.79390728476821	-36.0921854304636	-5.34596026490066				0.661827814569536	0.0947284768211921	-0.53594701986755	-36.392582781457	99.2664900662252	4.55973509933775				0.416529801324503	-0.336529801324503	-0.469721854304636	21.8029139072848	-3.7364238410596	16.4643708609272				0.740026490066225	0.0194966887417219	0.0379337748344371	-1.7282119205298	-51.4680794701987	9.18251655629139				0.447788079470199	0.0651655629139073	-0.564238410596026	-34.4196026490066	2.67761589403974	-9.99470198675497			
107	2420	0.823841059602649	0.0187549668874172	-0.311523178807947	20.4733774834437	99.2553642384106	2.17509933774834				0.672953642384106	0.0957880794701987	-0.00286092715231785	4.35390728476821	-32.4521854304636	-7.02596026490066				0.709827814569536	0.126728476821192	-0.51994701986755	-31.352582781457	94.7864900662252	2.59973509933775				0.384529801324503	-0.336529801324503	-0.485721854304636	10.8829139072848	-10.7364238410596	19.8243708609272				0.692026490066225	0.0354966887417219	0.00593377483443711	-4.2482119205298	-52.8680794701987	10.0225165562914				0.415788079470199	0.0811655629139073	-0.580238410596026	-21.8196026490066	-1.24238410596026	-8.31470198675497			
108	2440	0.855841059602649	0.0187549668874172	-0.295523178807947	18.7933774834437	91.9753642384106	1.89509933774834				0.672953642384106	0.0957880794701987	0.0131390728476822	7.99390728476821	-38.3321854304636	-6.74596026490066				0.693827814569536	0.142728476821192	-0.51994701986755	-15.392582781457	84.9864900662252	-1.88026490066225				0.352529801324503	-0.288529801324503	-0.469721854304636	9.20291390728477	-17.1764238410596	18.7043708609272				0.628026490066225	0.0514966887417219	0.00593377483443711	-5.0882119205298	-51.4680794701987	10.8625165562914				0.383788079470199	0.0491655629139073	-0.532238410596027	-13.1396026490066	-2.64238410596027	0.365298013245032			
109	2460	0.807841059602649	0.0507549668874172	-0.311523178807947	17.9533774834437	83.5753642384106	4.97509933774835				0.672953642384106	0.159788079470199	0.0771390728476822	2.95390728476821	-41.9721854304636	-6.46596026490066				0.709827814569536	0.0787284768211921	-0.51994701986755	1.12741721854305	65.3864900662252	-6.36026490066225				0.320529801324503	-0.240529801324503	-0.437721854304636	11.1629139072848	-18.2964238410596	13.1043708609272				0.628026490066225	0.0354966887417219	0.0219337748344371	-0.608211920529802	-45.0280794701987	10.5825165562914				0.351788079470199	0.0331655629139073	-0.548238410596027	-15.6596026490066	-1.80238410596026	4.56529801324503			
110	2480	0.791841059602649	-0.0132450331125828	-0.343523178807947	17.6733774834437	70.9753642384106	9.17509933774834				0.656953642384106	0.0797880794701987	0.0451390728476822	-0.126092715231788	-26.2921854304636	-7.02596026490066				0.757827814569536	0.0307284768211921	-0.50394701986755	19.327417218543	53.9064900662252	-7.48026490066225				0.336529801324503	-0.304529801324503	-0.437721854304636	15.9229139072848	-15.4964238410596	8.62437086092715				0.644026490066225	0.0194966887417219	0.0219337748344371	3.8717880794702	-38.3080794701987	9.18251655629139				0.367788079470199	0.0971655629139073	-0.580238410596026	-17.8996026490066	-1.80238410596026	0.645298013245032			
111	2500	0.839841059602649	-0.0132450331125828	-0.343523178807947	14.3133774834437	60.0553642384106	9.73509933774834				0.752953642384106	0.0797880794701987	0.0291390728476822	3.79390728476821	-14.8121854304636	-7.58596026490066				0.821827814569536	-0.0332715231788079	-0.45594701986755	25.767417218543	41.3064900662252	-7.48026490066225				0.384529801324503	-0.368529801324503	-0.453721854304636	22.6429139072848	-12.1364238410596	6.38437086092715				0.676026490066225	0.0194966887417219	-0.0100662251655629	4.9917880794702	-33.8280794701987	8.06251655629139				0.399788079470199	0.129165562913907	-0.612238410596026	-4.45960264900662	-1.80238410596026	-6.35470198675497			
112	2520	0.887841059602649	0.0347549668874172	-0.327523178807947	11.2333774834437	56.9753642384106	9.17509933774834				0.864953642384106	0.143788079470199	-0.00286092715231785	15.2739072847682	-16.2121854304636	-8.14596026490066				0.869827814569536	-0.0652715231788079	-0.42394701986755	21.8474172185431	30.1064900662252	-7.20026490066225				0.448529801324503	-0.368529801324503	-0.485721854304636	26.5629139072848	-7.6564238410596	1.34437086092715				0.724026490066225	0.0354966887417219	-0.0100662251655629	5.2717880794702	-29.0680794701987	6.10251655629139				0.447788079470199	0.113165562913907	-0.644238410596026	12.6203973509934	-2.64238410596027	-8.59470198675497			
113	2540	0.887841059602649	0.0827549668874172	-0.343523178807947	14.0333774834437	46.0553642384106	7.49509933774834				0.848953642384106	0.127788079470199	0.0131390728476822	18.9139072847682	-25.7321854304636	-7.58596026490066				0.869827814569536	-0.0332715231788079	-0.37594701986755	10.647417218543	27.3064900662252	-6.08026490066225				0.480529801324503	-0.416529801324503	-0.469721854304636	27.6829139072848	2.9835761589404	-0.615629139072848				0.788026490066225	0.0514966887417219	-0.0260662251655629	11.4317880794702	-19.5480794701987	4.70251655629139				0.479788079470199	0.0811655629139073	-0.660238410596027	24.1003973509934	-0.962384105960265	-9.15470198675497			
114	2560	0.935841059602649	0.0347549668874172	-0.311523178807947	12.3533774834437	42.1353642384106	5.25509933774834				0.912953642384106	0.0957880794701987	-0.00286092715231785	11.6339072847682	-17.3321854304636	-6.18596026490066				0.869827814569536	-0.0172715231788079	-0.32794701986755	0.00741721854304636	29.2664900662252	-4.68026490066225				0.512529801324503	-0.464529801324503	-0.533721854304636	36.3629139072848	14.1835761589404	0.224370860927152				0.852026490066225	0.0194966887417219	0.0219337748344371	14.5117880794702	-12.8280794701987	3.30251655629139				0.527788079470199	0.0811655629139073	-0.644238410596026	15.9803973509934	4.91761589403974	-8.87470198675497			
115	2580	0.935841059602649	0.0667549668874172	-0.279523178807947	20.1933774834437	33.7353642384106	0.775099337748344				0.992953642384106	0.0637880794701987	0.0771390728476822	8.83390728476821	-8.65218543046358	-3.38596026490066				0.901827814569536	-0.0172715231788079	-0.29594701986755	1.68741721854305	23.9464900662252	-3.00026490066225				0.528529801324503	-0.496529801324503	-0.597721854304636	39.4429139072848	15.5835761589404	1.34437086092715				0.916026490066225	0.0194966887417219	0.00593377483443711	18.1517880794702	-10.0280794701987	1.06251655629139				0.591788079470199	0.0491655629139073	-0.676238410596026	-0.539602649006623	4.91761589403974	-15.874701986755			
116	2600	0.935841059602649	0.0667549668874172	-0.215523178807947	17.1133774834437	28.9753642384106	1.05509933774834				0.912953642384106	0.127788079470199	0.0131390728476822	12.7539072847682	-15.3721854304636	-4.78596026490066				0.901827814569536	-0.00127152317880793	-0.29594701986755	-1.11258278145695	18.9064900662252	-0.20026490066225				0.560529801324503	-0.528529801324503	-0.629721854304636	34.4029139072848	15.8635761589404	1.62437086092715				0.932026490066225	0.00349668874172187	0.00593377483443711	15.9117880794702	-10.0280794701987	-1.17748344370861				0.623788079470199	0.0171655629139073	-0.660238410596027	-0.539602649006623	4.91761589403974	-22.314701986755			
117	2620	0.967841059602649	0.0187549668874172	-0.167523178807947	15.7133774834437	27.2953642384106	-0.904900662251656				0.976953642384106	0.111788079470199	-0.0348609271523178	15.5539072847682	-14.8121854304636	-6.74596026490066				0.901827814569536	0.0147284768211921	-0.31194701986755	0.00741721854304636	15.8264900662252	2.31973509933775				0.592529801324503	-0.576529801324503	-0.677721854304636	20.1229139072848	11.9435761589404	3.30437086092715				0.964026490066225	0.00349668874172187	-0.0100662251655629	13.1117880794702	-8.90807947019868	-1.73748344370861				0.671788079470199	0.0171655629139073	-0.676238410596026	-0.259602649006623	6.87761589403974	-24.834701986755			
118	2640	0.967841059602649	-0.0452450331125828	-0.151523178807947	11.5133774834437	25.8953642384106	-2.58490066225166				0.992953642384106	0.0957880794701987	-0.0508609271523178	10.2339072847682	-14.2521854304636	-5.90596026490066				0.917827814569536	-0.0172715231788079	-0.29594701986755	-5.59258278145695	12.4664900662252	5.11973509933775				0.608529801324503	-0.560529801324503	-0.693721854304636	15.6429139072848	3.2635761589404	5.26437086092715				0.980026490066225	-0.0125033112582781	0.00593377483443711	10.8717880794702	-8.62807947019868	-2.29748344370861				0.703788079470199	0.00116556291390731	-0.676238410596026	4.22039735099338	7.43761589403974	-22.594701986755			
119	2660	0.919841059602649	-0.0132450331125828	-0.135523178807947	4.79337748344371	21.6953642384106	-2.86490066225166				0.928953642384106	0.111788079470199	-0.0348609271523178	1.55390728476821	-5.29218543046358	-4.50596026490066				0.917827814569536	-0.0332715231788079	-0.27994701986755	-8.11258278145695	9.38649006622517	5.39973509933775				0.576529801324503	-0.544529801324503	-0.661721854304636	3.04291390728477	-8.7764238410596	0.224370860927152				0.996026490066225	-0.0125033112582781	0.0219337748344371	8.3517880794702	-6.66807947019868	-2.57748344370861				0.703788079470199	-0.0308344370860927	-0.644238410596026	2.82039735099338	6.03761589403974	-18.394701986755			
120	2680	0.951841059602649	0.00275496688741723	-0.119523178807947	-3.32662251655629	23.0953642384106	-1.74490066225166				0.944953642384106	0.127788079470199	-0.0348609271523178	3.23390728476821	-5.01218543046358	-5.06596026490066				0.901827814569536	0.0147284768211921	-0.26394701986755	-7.83258278145695	9.94649006622517	5.67973509933775				0.544529801324503	-0.512529801324503	-0.645721854304636	-8.71708609271523	-13.5364238410596	-3.41562913907285				0.996026490066225	-0.0125033112582781	-0.0260662251655629	4.7117880794702	-12.2680794701987	-3.41748344370861				0.703788079470199	-0.0628344370860927	-0.660238410596027	-0.819602649006623	8.55761589403974	-14.194701986755			
121	2700	0.983841059602649	0.00275496688741723	-0.135523178807947	-4.16662251655629	24.4953642384106	-0.904900662251656				0.976953642384106	0.111788079470199	-0.0508609271523178	-2.08609271523179	-5.01218543046358	-1.98596026490066				0.901827814569536	0.0307284768211921	-0.27994701986755	-17.912582781457	10.5064900662252	6.51973509933775				0.512529801324503	-0.496529801324503	-0.629721854304636	-14.8770860927152	-16.6164238410596	-2.29562913907285				0.948026490066225	0.0194966887417219	0.00593377483443711	-7.0482119205298	-10.3080794701987	-4.25748344370861				0.687788079470199	-0.0148344370860927	-0.676238410596026	-1.09960264900662	10.5176158940397	-7.47470198675497			
122	2720	0.951841059602649	0.0187549668874172	-0.119523178807947	-5.28662251655629	21.9753642384106	-2.58490066225166				1.00895364238411	0.127788079470199	-0.0508609271523178	-6.84609271523179	-3.33218543046358	-3.38596026490066				0.949827814569536	0.0627284768211921	-0.29594701986755	-16.792582781457	12.1864900662252	5.11973509933775				0.496529801324503	-0.480529801324503	-0.613721854304636	-15.7170860927152	-16.3364238410596	2.46437086092715				0.932026490066225	0.0194966887417219	-0.0100662251655629	-5.3682119205298	-8.62807947019868	-2.57748344370861				0.703788079470199	0.0331655629139073	-0.724238410596026	1.98039735099338	6.87761589403974	-4.39470198675497			
123	2740	0.951841059602649	0.0347549668874172	-0.119523178807947	-1.64662251655629	19.7353642384106	-3.42490066225166				0.976953642384106	0.111788079470199	0.0131390728476822	-6.28609271523179	-6.13218543046358	-1.42596026490066				0.917827814569536	0.0787284768211921	-0.32794701986755	-11.192582781457	7.98649006622517	3.43973509933775				0.480529801324503	-0.448529801324503	-0.629721854304636	-10.6770860927152	-13.2564238410596	4.42437086092715				0.948026490066225	0.0194966887417219	-0.0100662251655629	-6.2082119205298	-4.42807947019868	-0.897483443708608				0.703788079470199	0.0651655629139073	-0.724238410596026	3.66039735099338	0.997615894039735	-3.27470198675497			
124	2760	0.951841059602649	0.0507549668874172	-0.135523178807947	0.593377483443709	15.8153642384106	-2.58490066225166				0.896953642384106	0.143788079470199	0.0131390728476822	-0.686092715231788	-7.53218543046358	-3.10596026490066				0.869827814569536	0.0787284768211921	-0.32794701986755	-12.312582781457	9.38649006622517	1.75973509933775				0.496529801324503	-0.464529801324503	-0.629721854304636	-7.59708609271523	-8.4964238410596	3.30437086092715				0.932026490066225	0.0354966887417219	-0.0100662251655629	-8.7282119205298	-2.46807947019868	-0.337483443708608				0.703788079470199	0.0491655629139073	-0.724238410596026	5.06039735099338	-2.08238410596027	-3.27470198675497			
125	2780	0.967841059602649	0.0187549668874172	-0.151523178807947	1.15337748344371	10.2153642384106	-2.30490066225166				0.960953642384106	0.0957880794701987	-0.0348609271523178	-2.08609271523179	-6.69218543046358	-1.98596026490066				0.885827814569536	0.0627284768211921	-0.32794701986755	-5.03258278145695	9.66649006622517	-1.32026490066225				0.560529801324503	-0.464529801324503	-0.597721854304636	-8.15708609271523	-4.5764238410596	2.74437086092715				0.948026490066225	0.0674966887417219	-0.0260662251655629	-10.4082119205298	-1.90807947019868	1.06251655629139				0.703788079470199	0.0811655629139073	-0.740238410596026	5.62039735099338	-3.20238410596026	-4.67470198675497			
126	2800	0.951841059602649	0.0347549668874172	-0.119523178807947	-1.64662251655629	8.2553642384106	-4.26490066225166				0.960953642384106	0.175788079470199	-0.0188609271523178	-6.00609271523179	-3.61218543046358	-0.585960264900661				0.917827814569536	0.0467284768211921	-0.32794701986755	3.92741721854305	7.70649006622517	-1.32026490066225				0.560529801324503	-0.448529801324503	-0.581721854304636	-7.03708609271523	-2.3364238410596	3.86437086092715				0.948026490066225	0.0674966887417219	-0.0420662251655629	-9.2882119205298	-0.788079470198675	2.18251655629139				0.655788079470199	0.113165562913907	-0.740238410596026	8.98039735099338	-8.80238410596027	-5.51470198675497			
127	2820	0.951841059602649	0.0507549668874172	-0.119523178807947	-4.16662251655629	2.9353642384106	-3.98490066225166				0.976953642384106	0.175788079470199	-0.0348609271523178	-7.40609271523179	-2.77218543046358	3.05403973509934				0.917827814569536	0.0627284768211921	-0.31194701986755	0.287417218543046	5.18649006622517	-1.60026490066225				0.544529801324503	-0.416529801324503	-0.597721854304636	-7.87708609271523	-4.2964238410596	8.06437086092715				0.916026490066225	0.0514966887417219	-0.0260662251655629	-3.9682119205298	0.891920529801325	1.62251655629139				0.623788079470199	0.129165562913907	-0.724238410596026	14.8603973509934	-13.5623841059603	-6.35470198675497			
128	2840	0.951841059602649	0.0507549668874172	-0.167523178807947	-6.68662251655629	0.415364238410596	-4.26490066225166				0.960953642384106	0.159788079470199	-0.0348609271523178	-4.32609271523179	-0.252185430463576	3.61403973509934				0.901827814569536	0.0307284768211921	-0.32794701986755	0.00741721854304636	0.706490066225167	-1.32026490066225				0.528529801324503	-0.448529801324503	-0.645721854304636	-0.0370860927152318	-7.6564238410596	8.34437086092715				0.900026490066225	0.0514966887417219	-0.0420662251655629	-3.1282119205298	2.29192052980133	1.90251655629139				0.607788079470199	0.0971655629139073	-0.708238410596026	17.9403973509934	-18.0423841059603	-8.59470198675497			
129	2860	0.967841059602649	0.0507549668874172	-0.183523178807947	-6.68662251655629	1.8153642384106	-3.42490066225166				0.944953642384106	0.143788079470199	-0.0508609271523178	1.55390728476821	-1.09218543046358	1.65403973509934				0.853827814569536	0.0307284768211921	-0.37594701986755	-2.51258278145695	-1.53350993377483	-1.60026490066225				0.560529801324503	-0.480529801324503	-0.645721854304636	-4.79708609271523	-8.7764238410596	4.70437086092715				0.948026490066225	0.0514966887417219	-0.0420662251655629	-1.7282119205298	6.21192052980133	0.502516556291392				0.623788079470199	0.0811655629139073	-0.708238410596026	20.1803973509934	-21.1223841059603	-9.15470198675497			
130	2880	0.951841059602649	0.0987549668874172	-0.151523178807947	1.15337748344371	2.3753642384106	-2.86490066225166				0.928953642384106	0.159788079470199	-0.0508609271523178	3.51390728476821	-7.53218543046358	-1.14596026490066				0.869827814569536	0.0627284768211921	-0.39194701986755	-9.23258278145695	-0.973509933774833	-1.04026490066225				0.544529801324503	-0.480529801324503	-0.629721854304636	-6.19708609271523	-6.8164238410596	1.90437086092715				0.948026490066225	0.0514966887417219	-0.0420662251655629	0.231788079470198	8.17192052980133	-1.45748344370861				0.607788079470199	0.0491655629139073	-0.708238410596026	18.5003973509934	-20.8423841059603	-8.03470198675497			
131	2900	0.967841059602649	-0.0292450331125828	-0.055523178807947	2.27337748344371	-1.8246357615894	-2.02490066225166				0.960953642384106	0.111788079470199	-0.0348609271523178	0.713907284768212	-2.77218543046358	-4.50596026490066				0.901827814569536	-0.00127152317880793	-0.31194701986755	-2.23258278145695	-4.61350993377483	-0.76026490066225				0.512529801324503	-0.416529801324503	-0.677721854304636	1.08291390728477	-3.1764238410596	-1.73562913907285				0.948026490066225	0.0194966887417219	0.0859337748344371	4.9917880794702	-1.62807947019868	-1.73748344370861				0.575788079470199	0.0171655629139073	-0.756238410596026	5.34039735099338	-6.00238410596027	-7.19470198675497			
132	2920	0.983841059602649	0.0507549668874172	-0.199523178807947	-4.72662251655629	-2.1046357615894	-4.54490066225166				1.02495364238411	0.191788079470199	-0.130860927152318	1.27390728476821	-2.21218543046358	2.49403973509934				0.901827814569536	0.0947284768211921	-0.37594701986755	-1.39258278145695	-2.93350993377483	-0.20026490066225				0.528529801324503	-0.464529801324503	-0.629721854304636	-3.11708609271523	-5.4164238410596	3.86437086092715				0.980026490066225	0.0354966887417219	-0.0260662251655629	3.0317880794702	8.17192052980133	-1.17748344370861				0.575788079470199	0.0651655629139073	-0.692238410596026	12.6203973509934	-12.1623841059603	-10.554701986755			
133	2940	0.951841059602649	0.0347549668874172	-0.199523178807947	-8.92662251655629	1.2553642384106	-4.54490066225166				0.944953642384106	0.159788079470199	-0.130860927152318	-2.92609271523179	-2.49218543046358	3.89403973509934				0.869827814569536	0.0947284768211921	-0.37594701986755	2.52741721854305	-6.29350993377483	-1.88026490066225				0.512529801324503	-0.448529801324503	-0.645721854304636	-8.15708609271523	-9.3364238410596	0.224370860927152				0.996026490066225	0.0354966887417219	-0.0260662251655629	0.231788079470198	6.49192052980132	-2.85748344370861				0.591788079470199	0.0651655629139073	-0.708238410596026	12.6203973509934	-9.92238410596027	-10.834701986755			
134	2960	0.951841059602649	0.0507549668874172	-0.151523178807947	-9.48662251655629	-0.144635761589404	-5.10490066225166				0.928953642384106	0.143788079470199	-0.0828609271523179	-5.72609271523179	-6.41218543046358	2.21403973509934				0	0	0	0	0	0				0	0	0	0	0	0				0	0	0	0	0	0				0	0	0	0	0	0			
135	3100	0	0	0	0	0	0				0.928953642384106	0.175788079470199	-0.0988609271523179	-0.406092715231788	-3.61218543046358	-0.585960264900661				0.885827814569536	0.0947284768211921	-0.37594701986755	-2.23258278145695	-0.973509933774833	-2.16026490066225				0.496529801324503	-0.496529801324503	-0.677721854304636	-0.0370860927152318	1.3035761589404	-0.615629139072848				0.964026490066225	0.0354966887417219	-0.0420662251655629	-3.4082119205298	-0.788079470198675	-0.897483443708608				0.623788079470199	0.0651655629139073	-0.740238410596026	0.0203973509933773	-0.962384105960265	-1.31470198675497			
136	3120	0.935841059602649	0.0827549668874172	-0.151523178807947	-1.64662251655629	1.5353642384106	-2.30490066225166				0.928953642384106	0.191788079470199	-0.0988609271523179	-3.20609271523179	-6.97218543046358	-1.98596026490066				0.853827814569536	0.0947284768211921	-0.40794701986755	-4.47258278145695	-1.81350993377483	0.0797350993377501				0.496529801324503	-0.480529801324503	-0.661721854304636	-0.877086092715232	2.4235761589404	-1.17562913907285				0.964026490066225	0.0354966887417219	-0.0580662251655629	-5.6482119205298	-1.62807947019868	-0.897483443708608				0.639788079470199	0.0491655629139073	-0.756238410596026	1.42039735099338	-0.402384105960265	0.0852980132450323			
137	3140	0.967841059602649	0.0827549668874172	-0.167523178807947	-1.08662251655629	2.3753642384106	-1.46490066225166				0.976953642384106	0.191788079470199	-0.114860927152318	-7.12609271523179	-2.77218543046358	-2.54596026490066				0.869827814569536	0.0947284768211921	-0.39194701986755	-5.87258278145695	-0.133509933774833	0.35973509933775				0.496529801324503	-0.480529801324503	-0.661721854304636	-5.07708609271523	0.4635761589404	0.784370860927152				0.964026490066225	0.0514966887417219	-0.0580662251655629	-5.3682119205298	-1.34807947019868	0.782516556291392				0.623788079470199	0.0651655629139073	-0.756238410596026	0.860397350993377	-1.24238410596026	1.48529801324503			
138	3160	0.967841059602649	0.0987549668874172	-0.135523178807947	-0.806622516556291	1.8153642384106	-2.02490066225166				0.976953642384106	0.175788079470199	-0.0828609271523179	-4.60609271523179	3.38781456953642	-0.0259602649006601				0.885827814569536	0.110728476821192	-0.39194701986755	-3.07258278145695	-0.973509933774833	0.63973509933775				0.496529801324503	-0.464529801324503	-0.677721854304636	0.522913907284768	-2.0564238410596	3.58437086092715				0.964026490066225	0.0514966887417219	-0.0420662251655629	-6.7682119205298	-0.508079470198675	0.222516556291392				0.607788079470199	0.0811655629139073	-0.740238410596026	-0.259602649006623	-2.36238410596027	0.365298013245032			
139	3180	0.951841059602649	0.0987549668874172	-0.135523178807947	-0.526622516556291	-0.144635761589404	-1.74490066225166				0.944953642384106	0.159788079470199	-0.130860927152318	-0.126092715231788	-1.37218543046358	-0.0259602649006601				0.901827814569536	0.110728476821192	-0.34394701986755	-1.39258278145695	0.146490066225167	-0.48026490066225				0.512529801324503	-0.496529801324503	-0.661721854304636	-1.15708609271523	-2.3364238410596	4.98437086092715				0.948026490066225	0.0514966887417219	-0.0260662251655629	-5.3682119205298	0.0519205298013249	-0.0574834437086077				0.607788079470199	0.0811655629139073	-0.756238410596026	1.70039735099338	-3.76238410596027	-1.03470198675497			
140	3200	0.951841059602649	0.0827549668874172	-0.135523178807947	0.593377483443709	-1.8246357615894	-2.02490066225166				0.944953642384106	0.191788079470199	-0.114860927152318	2.11390728476821	-3.61218543046358	-1.70596026490066				0.885827814569536	0.110728476821192	-0.34394701986755	-1.39258278145695	1.26649006622517	-1.04026490066225				0.528529801324503	-0.496529801324503	-0.661721854304636	-4.23708609271523	0.4635761589404	6.10437086092715				0.964026490066225	0.0514966887417219	-0.0260662251655629	-4.5282119205298	2.29192052980133	0.222516556291392				0.607788079470199	0.0811655629139073	-0.740238410596026	5.06039735099338	-4.88238410596027	-1.31470198675497			
141	3220	0.967841059602649	0.0827549668874172	-0.135523178807947	2.27337748344371	-0.144635761589404	-2.58490066225166				0.960953642384106	0.191788079470199	-0.0988609271523179	0.993907284768212	-6.97218543046358	-3.10596026490066				0.885827814569536	0.0787284768211921	-0.35994701986755	-0.552582781456954	-0.133509933774833	-1.32026490066225				0.528529801324503	-0.480529801324503	-0.661721854304636	-6.47708609271523	2.1435761589404	6.66437086092715				0.964026490066225	0.0514966887417219	-0.0420662251655629	-4.5282119205298	3.41192052980132	-0.897483443708608				0.591788079470199	0.0491655629139073	-0.740238410596026	4.78039735099338	-6.84238410596027	-0.474701986754968			
142	3240	0.967841059602649	0.0507549668874172	-0.119523178807947	-0.526622516556291	0.695364238410596	-1.74490066225166				0.992953642384106	0.175788079470199	-0.0988609271523179	-0.126092715231788	-0.252185430463576	-0.30596026490066				0.885827814569536	0.0947284768211921	-0.37594701986755	7.00741721854305	-1.25350993377483	-1.88026490066225				0.592529801324503	-0.400529801324503	-0.645721854304636	-6.75708609271523	5.7835761589404	6.10437086092715				0.948026490066225	0.0514966887417219	0.0379337748344371	-6.2082119205298	1.17192052980133	-0.617483443708608				0.655788079470199	0.0331655629139073	-0.676238410596026	-1.65960264900662	-4.04238410596027	2.88529801324503			
143	3260	0.951841059602649	0.0667549668874172	-0.135523178807947	-1.08662251655629	1.2553642384106	-0.904900662251656				0.992953642384106	0.143788079470199	-0.130860927152318	-1.80609271523179	-0.252185430463576	-0.86596026490066				0.901827814569536	0.110728476821192	-0.37594701986755	4.20741721854305	-0.413509933774833	-1.04026490066225				0.528529801324503	-0.480529801324503	-0.677721854304636	-1.71708609271523	2.4235761589404	6.94437086092715				0.980026490066225	0.0514966887417219	-0.0100662251655629	-2.8482119205298	3.69192052980133	-1.45748344370861				0.607788079470199	0.0811655629139073	-0.740238410596026	3.66039735099338	-7.12238410596027	-4.39470198675497			
144	3280	0.951841059602649	0.0667549668874172	-0.151523178807947	-1.92662251655629	0.975364238410596	-2.30490066225166				0.944953642384106	0.159788079470199	-0.146860927152318	-0.406092715231788	-3.33218543046358	-0.86596026490066				0.901827814569536	0.0787284768211921	-0.35994701986755	-1.95258278145695	-1.81350993377483	-0.20026490066225				0.528529801324503	-0.480529801324503	-0.677721854304636	-2.27708609271523	1.0235761589404	6.66437086092715				0.996026490066225	0.0194966887417219	-0.0580662251655629	0.791788079470198	-1.62807947019868	-0.897483443708608				0.607788079470199	0.0811655629139073	-0.772238410596026	3.10039735099338	-5.44238410596027	-5.51470198675497			
145	3300	0.935841059602649	0.0827549668874172	-0.167523178807947	-5.28662251655629	1.8153642384106	-2.86490066225166				0.944953642384106	0.223788079470199	-0.146860927152318	0.713907284768212	-5.01218543046358	-1.98596026490066				0.869827814569536	0.0787284768211921	-0.34394701986755	0.847417218543046	-1.25350993377483	-1.04026490066225				0.528529801324503	-0.480529801324503	-0.661721854304636	-4.79708609271523	-0.0964238410596001	4.70437086092715				0.980026490066225	0.0354966887417219	-0.0420662251655629	-3.9682119205298	-2.18807947019868	-1.73748344370861				0.591788079470199	0.0651655629139073	-0.756238410596026	6.46039735099338	-5.16238410596027	-6.35470198675497			
146	3320	0.967841059602649	0.0987549668874172	-0.183523178807947	-6.12662251655629	2.0953642384106	-1.74490066225166				0.976953642384106	0.207788079470199	-0.162860927152318	-1.80609271523179	-0.812185430463576	-2.54596026490066				0.885827814569536	0.0947284768211921	-0.35994701986755	0.00741721854304636	-0.413509933774833	-0.48026490066225				0.496529801324503	-0.480529801324503	-0.677721854304636	-5.07708609271523	-1.7764238410596	4.70437086092715				0.980026490066225	0.0674966887417219	-0.0420662251655629	-3.9682119205298	-2.74807947019868	-0.897483443708608				0.575788079470199	0.0331655629139073	-0.740238410596026	3.10039735099338	-5.44238410596027	-6.91470198675497			
147	3340	0.935841059602649	0.0347549668874172	-0.247523178807947	2.55337748344371	-0.144635761589404	-1.46490066225166				0.992953642384106	0.159788079470199	-0.0348609271523178	3.79390728476821	2.26781456953642	-1.14596026490066				0.901827814569536	0.0307284768211921	-0.37594701986755	8.96741721854305	-0.133509933774833	-3.00026490066225				0.592529801324503	-0.336529801324503	-0.661721854304636	2.20291390728477	3.2635761589404	-2.29562913907285				0.948026490066225	0.0514966887417219	0.181933774834437	2.4717880794702	5.37192052980133	-1.17748344370861				0.559788079470199	-0.0628344370860927	-0.756238410596026	4.50039735099338	3.79761589403974	-2.99470198675497			
148	3360	0.935841059602649	0.0667549668874172	-0.151523178807947	-2.48662251655629	3.4953642384106	1.61509933774834				1.00895364238411	0.143788079470199	-0.146860927152318	-4.32609271523179	2.26781456953642	-1.42596026490066				0.901827814569536	0.0787284768211921	-0.35994701986755	-2.51258278145695	2.38649006622517	0.63973509933775				0.496529801324503	-0.480529801324503	-0.677721854304636	-1.15708609271523	-0.9364238410596	4.42437086092715				0.980026490066225	0.0354966887417219	-0.0420662251655629	-1.1682119205298	-5.82807947019868	-1.73748344370861				0.575788079470199	0.0651655629139073	-0.756238410596026	-9.21960264900662	-0.962384105960265	-8.59470198675497			
149	3380	0.935841059602649	0.0507549668874172	-0.151523178807947	-3.60662251655629	3.4953642384106	0.495099337748344				0.944953642384106	0.175788079470199	-0.130860927152318	-2.64609271523179	-6.41218543046358	-0.585960264900661				0.885827814569536	0.0467284768211921	-0.37594701986755	-3.35258278145695	1.26649006622517	1.19973509933775				0.512529801324503	-0.496529801324503	-0.693721854304636	-4.23708609271523	-0.6564238410596	3.02437086092715				0.996026490066225	0.0354966887417219	-0.0580662251655629	-1.7282119205298	-5.26807947019868	-1.45748344370861				0.607788079470199	0.0811655629139073	-0.772238410596026	-9.21960264900662	-0.682384105960265	-8.59470198675497			
150	3400	0.951841059602649	0.0507549668874172	-0.151523178807947	-8.92662251655629	4.0553642384106	-0.344900662251656				0.960953642384106	0.191788079470199	-0.130860927152318	0.153907284768212	-5.01218543046358	-2.54596026490066				0.869827814569536	0.0627284768211921	-0.39194701986755	-3.63258278145695	1.26649006622517	0.91973509933775				0.512529801324503	-0.480529801324503	-0.677721854304636	-4.23708609271523	-0.3764238410596	2.46437086092715				0.996026490066225	0.0354966887417219	-0.0740662251655629	-4.2482119205298	-6.10807947019868	-2.57748344370861				0.607788079470199	0.0651655629139073	-0.756238410596026	-5.29960264900662	-1.24238410596026	-6.91470198675497			
151	3420	0.951841059602649	0.0667549668874172	-0.151523178807947	-9.48662251655629	7.4153642384106	-0.904900662251656				0.944953642384106	0.143788079470199	-0.114860927152318	-3.48609271523179	-3.05218543046358	-2.54596026490066				0.869827814569536	0.0787284768211921	-0.37594701986755	-4.47258278145695	1.54649006622517	0.35973509933775				0.496529801324503	-0.448529801324503	-0.677721854304636	-3.95708609271523	-3.1764238410596	0.784370860927152				0.980026490066225	0.0354966887417219	-0.0580662251655629	-3.4082119205298	-8.06807947019868	-2.29748344370861				0.591788079470199	0.0651655629139073	-0.756238410596026	-8.09960264900662	-1.24238410596026	-6.63470198675497			
152	3440	0.935841059602649	0.0827549668874172	-0.135523178807947	-4.16662251655629	7.9753642384106	-0.624900662251656				0.944953642384106	0.159788079470199	-0.130860927152318	-7.12609271523179	5.90781456953642	-2.54596026490066				0.885827814569536	0.0947284768211921	-0.39194701986755	-7.27258278145696	2.66649006622517	0.35973509933775				0.480529801324503	-0.464529801324503	-0.661721854304636	0.522913907284768	-4.8564238410596	-1.73562913907285				0.964026490066225	0.0194966887417219	-0.0580662251655629	-4.2482119205298	-9.74807947019868	-1.73748344370861				0.575788079470199	0.0651655629139073	-0.756238410596026	-10.8996026490066	0.437615894039735	-7.19470198675497			
153	3460	0.951841059602649	0.0507549668874172	-0.135523178807947	-2.76662251655629	7.6953642384106	-0.344900662251656				1.00895364238411	0.175788079470199	-0.114860927152318	-7.68609271523179	5.90781456953642	-1.70596026490066				0.901827814569536	0.0947284768211921	-0.35994701986755	-7.27258278145696	3.78649006622517	1.47973509933775				0.496529801324503	-0.480529801324503	-0.661721854304636	0.522913907284768	-4.5764238410596	-3.13562913907285				0.948026490066225	0.0354966887417219	-0.0580662251655629	-3.9682119205298	-10.0280794701987	-2.29748344370861				0.575788079470199	0.0811655629139073	-0.756238410596026	-11.4596026490066	1.83761589403974	-5.79470198675497			
154	3480	0.967841059602649	0.0827549668874172	-0.151523178807947	-4.16662251655629	6.8553642384106	-2.02490066225166				0.960953642384106	0.175788079470199	-0.0988609271523179	-5.44609271523179	-0.532185430463576	-2.26596026490066				0.885827814569536	0.0787284768211921	-0.35994701986755	-3.63258278145695	2.38649006622517	0.91973509933775				0.496529801324503	-0.480529801324503	-0.677721854304636	-2.55708609271523	-3.1764238410596	-3.41562913907285				0.932026490066225	0.0674966887417219	-0.0580662251655629	-3.1282119205298	-7.50807947019868	-0.897483443708608				0.575788079470199	0.0971655629139073	-0.772238410596026	-7.53960264900662	3.23761589403974	-3.83470198675497			
155	3500	0.967841059602649	0.0827549668874172	-0.135523178807947	-5.28662251655629	7.6953642384106	-0.904900662251656				0.944953642384106	0.191788079470199	-0.0988609271523179	-7.12609271523179	4.50781456953642	-3.10596026490066				0.853827814569536	0.0787284768211921	-0.37594701986755	-4.19258278145695	3.22649006622517	0.35973509933775				0.496529801324503	-0.464529801324503	-0.661721854304636	-4.51708609271523	-3.1764238410596	-2.85562913907285				0.948026490066225	0.0674966887417219	-0.0580662251655629	-1.7282119205298	-4.70807947019868	-1.17748344370861				0.591788079470199	0.0971655629139073	-0.756238410596026	-5.01960264900662	2.39761589403974	-2.15470198675497			
156	3520	0.951841059602649	0.0827549668874172	-0.103523178807947	-3.88662251655629	5.7353642384106	-0.624900662251656				0.960953642384106	0.175788079470199	-0.0828609271523179	-5.44609271523179	2.54781456953642	-1.42596026490066				0.885827814569536	0.0947284768211921	-0.35994701986755	-6.99258278145695	3.50649006622517	0.35973509933775				0.480529801324503	-0.448529801324503	-0.661721854304636	-2.83708609271523	-1.2164238410596	-1.45562913907285				0.948026490066225	0.0514966887417219	-0.0580662251655629	-1.1682119205298	-4.42807947019868	-2.01748344370861				0.591788079470199	0.0971655629139073	-0.756238410596026	-4.45960264900662	0.997615894039735	-1.03470198675497			
157	3540	0.951841059602649	0.0827549668874172	-0.103523178807947	-5.00662251655629	3.2153642384106	-1.46490066225166				0.944953642384106	0.175788079470199	-0.0988609271523179	-4.32609271523179	1.70781456953642	-0.585960264900661				0.885827814569536	0.0947284768211921	-0.35994701986755	-5.59258278145695	2.38649006622517	0.35973509933775				0.480529801324503	-0.464529801324503	-0.661721854304636	-0.0370860927152318	1.3035761589404	-1.45562913907285				0.948026490066225	0.0674966887417219	-0.0580662251655629	-2.5682119205298	-1.06807947019868	-1.45748344370861				0.591788079470199	0.0971655629139073	-0.756238410596026	-3.89960264900662	0.717615894039735	-0.754701986754968			
158	3560	0.967841059602649	0.114754966887417	-0.119523178807947	-5.28662251655629	1.2553642384106	-2.02490066225166				0.944953642384106	0.191788079470199	-0.0828609271523179	-2.64609271523179	1.98781456953642	-0.30596026490066				0.885827814569536	0.0787284768211921	-0.37594701986755	-3.63258278145695	0.146490066225167	0.35973509933775				0.480529801324503	-0.448529801324503	-0.677721854304636	-0.597086092715232	2.7035761589404	-0.895629139072848				0	0	0	0	0	0				0	0	0	0	0	0			
