No	Time	12-AccX	12-AccY	12-AccZ	12-GyroX	12-GyroY	12-GyroZ	13-AccX	13-AccY	13-AccZ	13-GyroX	13-GyroY	13-GyroZ	14-AccX	14-AccY	14-AccZ	14-GyroX	14-GyroY	14-GyroZ	15-AccX	15-AccY	15-AccZ	15-GyroX	15-GyroY	15-GyroZ	16-AccX	16-AccY	16-AccZ	16-GyroX	16-GyroY	16-GyroZ	17-AccX	17-AccY	17-AccZ	17-GyroX	17-GyroY	17-GyroZ
0	120	0	0	0	0	0	0				0	0	0	0	0	0				-0.282172185430464	-0.0332715231788079	-0.87194701986755	1.40741721854305	-0.133509933774833	0.0797350993377501				0.480529801324503	-0.224529801324503	-0.805721854304636	-1.15708609271523	0.7435761589404	1.06437086092715				0.964026490066225	0.0834966887417219	0.197933774834437	-3.1282119205298	2.57192052980133	-0.617483443708608				0.431788079470199	-0.174834437086093	-0.820238410596026	0.580397350993377	0.437615894039735	-0.474701986754968			
1	140	-0.216158940397351	0.114754966887417	-0.935523178807947	-1.08662251655629	1.2553642384106	-0.904900662251656				0.960953642384106	0.159788079470199	0.189139072847682	-1.80609271523179	2.26781456953642	0.25403973509934				-0.282172185430464	-0.0332715231788079	-0.87194701986755	1.68741721854305	1.26649006622517	0.63973509933775				0.480529801324503	-0.208529801324503	-0.805721854304636	-0.317086092715232	1.8635761589404	1.34437086092715				0.948026490066225	0.0674966887417219	0.197933774834437	-1.1682119205298	1.73192052980133	-0.0574834437086077				0.447788079470199	-0.158834437086093	-0.804238410596027	1.42039735099338	0.157615894039735	-0.474701986754968			
2	160	-0.200158940397351	0.114754966887417	-0.935523178807947	-0.526622516556291	0.415364238410596	-0.904900662251656				0.976953642384106	0.143788079470199	0.221139072847682	-3.48609271523179	1.14781456953642	-0.585960264900661				-0.282172185430464	-0.0332715231788079	-0.87194701986755	0.847417218543046	-0.413509933774833	-0.20026490066225				0.480529801324503	-0.208529801324503	-0.805721854304636	-0.0370860927152318	1.5835761589404	1.34437086092715				0.964026490066225	0.0674966887417219	0.181933774834437	-2.5682119205298	3.13192052980133	-0.617483443708608				0.431788079470199	-0.174834437086093	-0.836238410596026	0.860397350993377	0.997615894039735	0.0852980132450323			
3	180	-0.200158940397351	0.114754966887417	-0.951523178807947	0.593377483443709	0.135364238410596	-0.904900662251656				0.976953642384106	0.159788079470199	0.221139072847682	-2.64609271523179	-2.49218543046358	-0.86596026490066				-0.282172185430464	-0.0332715231788079	-0.85594701986755	0.567417218543046	-0.133509933774833	0.0797350993377501				0.496529801324503	-0.208529801324503	-0.805721854304636	-0.0370860927152318	2.1435761589404	1.06437086092715				0.964026490066225	0.0834966887417219	0.197933774834437	-0.888211920529802	0.331920529801325	0.222516556291392				0.447788079470199	-0.158834437086093	-0.836238410596026	-0.539602649006623	1.27761589403974	0.0852980132450323			
4	200	-0.200158940397351	0.114754966887417	-0.951523178807947	0.313377483443709	0.415364238410596	-0.904900662251656				0.976953642384106	0.159788079470199	0.189139072847682	-1.80609271523179	-0.252185430463576	-0.86596026490066				-0.282172185430464	-0.0332715231788079	-0.88794701986755	-0.272582781456954	-0.413509933774833	0.0797350993377501				0.496529801324503	-0.208529801324503	-0.805721854304636	-0.317086092715232	1.0235761589404	1.34437086092715				0.964026490066225	0.0834966887417219	0.165933774834437	-1.1682119205298	-0.228079470198675	0.502516556291392				0.447788079470199	-0.158834437086093	-0.820238410596026	-1.09960264900662	1.27761589403974	-0.474701986754968			
5	220	-0.200158940397351	0.114754966887417	-0.951523178807947	-0.806622516556291	0.975364238410596	-0.904900662251656				0.960953642384106	0.159788079470199	0.189139072847682	-0.966092715231788	1.14781456953642	0.53403973509934				-0.282172185430464	-0.0172715231788079	-0.87194701986755	-0.552582781456954	0.706490066225167	0.0797350993377501				0.496529801324503	-0.208529801324503	-0.821721854304636	1.08291390728477	0.7435761589404	1.62437086092715				0.948026490066225	0.0834966887417219	0.197933774834437	-1.4482119205298	-0.228079470198675	-0.0574834437086077				0.431788079470199	-0.174834437086093	-0.836238410596026	0.860397350993377	1.27761589403974	-1.31470198675497			
6	240	-0.200158940397351	0.130754966887417	-0.935523178807947	-0.246622516556291	-0.144635761589404	-0.624900662251656				0.960953642384106	0.159788079470199	0.221139072847682	-1.24609271523179	2.54781456953642	0.25403973509934				-0.282172185430464	-0.0332715231788079	-0.88794701986755	-0.832582781456954	0.426490066225167	-0.20026490066225				0.480529801324503	-0.208529801324503	-0.821721854304636	1.36291390728477	1.5835761589404	0.784370860927152				0.948026490066225	0.0674966887417219	0.181933774834437	-0.608211920529802	-1.06807947019868	-0.0574834437086077				0.431788079470199	-0.174834437086093	-0.836238410596026	-0.819602649006623	1.27761589403974	0.0852980132450323			
7	260	-0.200158940397351	0.114754966887417	-0.935523178807947	0.313377483443709	0.135364238410596	-1.18490066225166				0.960953642384106	0.159788079470199	0.221139072847682	-1.52609271523179	1.70781456953642	-0.0259602649006601				-0.282172185430464	-0.0332715231788079	-0.87194701986755	-1.11258278145695	0.706490066225167	0.0797350993377501				0.496529801324503	-0.208529801324503	-0.821721854304636	0.242913907284768	0.4635761589404	-0.335629139072848				0.948026490066225	0.0674966887417219	0.197933774834437	0.511788079470198	0.331920529801325	0.222516556291392				0.447788079470199	-0.174834437086093	-0.836238410596026	-1.09960264900662	0.717615894039735	0.645298013245032			
8	280	-0.200158940397351	0.114754966887417	-0.951523178807947	-0.246622516556291	0.415364238410596	-1.74490066225166				0.960953642384106	0.159788079470199	0.221139072847682	-2.08609271523179	1.14781456953642	-0.30596026490066				-0.282172185430464	-0.0332715231788079	-0.87194701986755	-0.832582781456954	0.146490066225167	-0.20026490066225				0.496529801324503	-0.224529801324503	-0.805721854304636	1.36291390728477	0.7435761589404	-0.0556291390728476				0.964026490066225	0.0834966887417219	0.181933774834437	-0.328211920529802	-0.508079470198675	-0.337483443708608				0.463788079470199	-0.174834437086093	-0.820238410596026	-0.819602649006623	0.157615894039735	-0.194701986754968			
9	300	-0.200158940397351	0.114754966887417	-0.951523178807947	-0.246622516556291	0.415364238410596	-0.904900662251656				0.976953642384106	0.159788079470199	0.189139072847682	-0.966092715231788	1.70781456953642	-0.0259602649006601				-0.282172185430464	-0.0332715231788079	-0.88794701986755	0.287417218543046	0.426490066225167	-0.48026490066225				0.496529801324503	-0.224529801324503	-0.805721854304636	0.522913907284768	0.4635761589404	0.784370860927152				0.948026490066225	0.0674966887417219	0.181933774834437	-1.4482119205298	-1.34807947019868	-0.0574834437086077				0.447788079470199	-0.174834437086093	-0.836238410596026	0.0203973509933773	-0.122384105960265	0.0852980132450323			
10	320	-0.200158940397351	0.114754966887417	-0.935523178807947	-0.246622516556291	-0.144635761589404	-1.46490066225166				0.960953642384106	0.143788079470199	0.189139072847682	-2.08609271523179	4.22781456953642	0.81403973509934				-0.266172185430464	-0.0332715231788079	-0.87194701986755	-1.11258278145695	-0.693509933774834	0.0797350993377501				0.480529801324503	-0.208529801324503	-0.821721854304636	0.242913907284768	-0.3764238410596	1.90437086092715				0.948026490066225	0.0834966887417219	0.181933774834437	-0.0482119205298018	-1.34807947019868	0.782516556291392				0.447788079470199	-0.158834437086093	-0.836238410596026	-0.259602649006623	-0.122384105960265	0.0852980132450323			
11	340	-0.200158940397351	0.114754966887417	-0.935523178807947	-0.526622516556291	0.135364238410596	-1.46490066225166				0.960953642384106	0.159788079470199	0.221139072847682	-2.08609271523179	5.06781456953642	-0.0259602649006601				-0.282172185430464	-0.0332715231788079	-0.87194701986755	0.567417218543046	-0.133509933774833	-0.48026490066225				0.480529801324503	-0.208529801324503	-0.805721854304636	-1.43708609271523	-0.0964238410596001	2.18437086092715				0.948026490066225	0.0834966887417219	0.181933774834437	1.3517880794702	0.331920529801325	-0.0574834437086077				0.431788079470199	-0.158834437086093	-0.820238410596026	-0.539602649006623	1.27761589403974	0.925298013245032			
12	360	-0.200158940397351	0.114754966887417	-0.935523178807947	0.313377483443709	-0.144635761589404	-0.904900662251656				0.960953642384106	0.143788079470199	0.221139072847682	-2.08609271523179	4.78781456953642	-0.30596026490066				-0.282172185430464	-0.0332715231788079	-0.87194701986755	1.68741721854305	0.706490066225167	0.35973509933775				0.496529801324503	-0.208529801324503	-0.805721854304636	-1.71708609271523	-0.0964238410596001	0.504370860927152				0.948026490066225	0.0834966887417219	0.197933774834437	-0.888211920529802	-0.508079470198675	-0.0574834437086077				0.447788079470199	-0.174834437086093	-0.836238410596026	-1.65960264900662	0.437615894039735	1.48529801324503			
13	380	-0.200158940397351	0.114754966887417	-0.951523178807947	0.313377483443709	-0.424635761589404	-1.18490066225166				0.960953642384106	0.159788079470199	0.221139072847682	-1.52609271523179	4.22781456953642	-0.30596026490066				-0.282172185430464	-0.0332715231788079	-0.87194701986755	1.96741721854305	-0.133509933774833	-0.20026490066225				0.480529801324503	-0.208529801324503	-0.789721854304636	-1.15708609271523	0.1835761589404	1.34437086092715				0.948026490066225	0.0834966887417219	0.165933774834437	-1.4482119205298	0.331920529801325	-0.337483443708608				0.447788079470199	-0.158834437086093	-0.836238410596026	0.300397350993377	-1.24238410596026	0.645298013245032			
14	400	-0.200158940397351	0.114754966887417	-0.935523178807947	-0.246622516556291	-0.424635761589404	-0.904900662251656				0.976953642384106	0.143788079470199	0.221139072847682	-1.52609271523179	2.54781456953642	0.81403973509934				-0.266172185430464	-0.0332715231788079	-0.88794701986755	-0.832582781456954	-0.413509933774833	-0.48026490066225				0.480529801324503	-0.208529801324503	-0.805721854304636	-0.0370860927152318	-0.0964238410596001	1.06437086092715				0.948026490066225	0.0834966887417219	0.197933774834437	-0.608211920529802	-1.06807947019868	-0.617483443708608				0.447788079470199	-0.158834437086093	-0.836238410596026	0.580397350993377	-0.962384105960265	-0.194701986754968			
15	420	-0.200158940397351	0.114754966887417	-0.951523178807947	-0.526622516556291	0.135364238410596	-0.904900662251656				0.976953642384106	0.143788079470199	0.205139072847682	-1.52609271523179	3.94781456953642	0.53403973509934				-0.282172185430464	-0.0332715231788079	-0.87194701986755	-1.95258278145695	0.146490066225167	-0.20026490066225				0.480529801324503	-0.208529801324503	-0.789721854304636	0.522913907284768	-0.0964238410596001	1.06437086092715				0.964026490066225	0.0834966887417219	0.197933774834437	-0.888211920529802	-0.508079470198675	0.502516556291392				0.447788079470199	-0.158834437086093	-0.836238410596026	0.0203973509933773	0.157615894039735	-0.194701986754968			
16	440	-0.200158940397351	0.114754966887417	-0.935523178807947	-0.806622516556291	0.415364238410596	-0.904900662251656				0.976953642384106	0.159788079470199	0.221139072847682	-2.08609271523179	3.10781456953642	0.25403973509934				-0.282172185430464	-0.0332715231788079	-0.83994701986755	0.567417218543046	0.426490066225167	-0.48026490066225				0.480529801324503	-0.208529801324503	-0.789721854304636	1.08291390728477	1.3035761589404	0.784370860927152				0.964026490066225	0.0834966887417219	0.181933774834437	-1.7282119205298	-0.228079470198675	0.782516556291392				0.431788079470199	-0.158834437086093	-0.820238410596026	-0.259602649006623	0.437615894039735	-0.474701986754968			
17	460	-0.200158940397351	0.114754966887417	-0.951523178807947	-0.806622516556291	0.135364238410596	-1.18490066225166				0.976953642384106	0.159788079470199	0.221139072847682	-1.52609271523179	-0.252185430463576	-0.0259602649006601				-0.282172185430464	-0.0332715231788079	-0.88794701986755	0.00741721854304636	0.146490066225167	-0.48026490066225				0.496529801324503	-0.208529801324503	-0.805721854304636	1.08291390728477	2.4235761589404	1.34437086092715				0.948026490066225	0.0834966887417219	0.197933774834437	-2.0082119205298	-0.508079470198675	-0.337483443708608				0.447788079470199	-0.174834437086093	-0.836238410596026	-0.259602649006623	1.27761589403974	-0.754701986754968			
18	480	-0.200158940397351	0.114754966887417	-0.935523178807947	-0.246622516556291	0.135364238410596	-0.904900662251656				0.960953642384106	0.175788079470199	0.221139072847682	-0.966092715231788	1.98781456953642	0.25403973509934				-0.282172185430464	-0.0332715231788079	-0.87194701986755	-1.11258278145695	0.146490066225167	-0.20026490066225				0.496529801324503	-0.208529801324503	-0.805721854304636	3.04291390728477	2.1435761589404	1.06437086092715				0.964026490066225	0.0674966887417219	0.197933774834437	-2.2882119205298	-2.74807947019868	0.502516556291392				0.447788079470199	-0.174834437086093	-0.836238410596026	0.300397350993377	0.717615894039735	-0.754701986754968			
19	500	-0.200158940397351	0.114754966887417	-0.935523178807947	0.313377483443709	0.135364238410596	-0.344900662251656				0.960953642384106	0.159788079470199	0.221139072847682	-0.686092715231788	3.66781456953642	-0.585960264900661				-0.282172185430464	-0.0172715231788079	-0.88794701986755	-1.39258278145695	-0.413509933774833	0.0797350993377501				0.496529801324503	-0.208529801324503	-0.805721854304636	2.48291390728477	1.5835761589404	1.90437086092715				0.964026490066225	0.0674966887417219	0.181933774834437	-2.5682119205298	-2.46807947019868	0.782516556291392				0.447788079470199	-0.174834437086093	-0.836238410596026	-0.259602649006623	0.717615894039735	0.365298013245032			
20	520	-0.200158940397351	0.114754966887417	-0.951523178807947	-1.08662251655629	0.415364238410596	-0.624900662251656				0.976953642384106	0.159788079470199	0.237139072847682	-0.686092715231788	3.38781456953642	-0.30596026490066				-0.282172185430464	-0.0332715231788079	-0.87194701986755	0.567417218543046	-0.413509933774833	0.0797350993377501				0.480529801324503	-0.224529801324503	-0.821721854304636	1.64291390728477	1.3035761589404	2.18437086092715				0.948026490066225	0.0674966887417219	0.181933774834437	-2.2882119205298	-2.18807947019868	-0.0574834437086077				0.447788079470199	-0.174834437086093	-0.836238410596026	-0.539602649006623	0.437615894039735	0.365298013245032			
21	540	-0.184158940397351	0.114754966887417	-0.951523178807947	-1.64662251655629	-0.144635761589404	-0.344900662251656				0.960953642384106	0.159788079470199	0.237139072847682	-0.686092715231788	1.42781456953642	-0.86596026490066				-0.282172185430464	-0.0332715231788079	-0.88794701986755	4.20741721854305	-0.693509933774834	-0.20026490066225				0.496529801324503	-0.224529801324503	-0.821721854304636	0.802913907284768	0.7435761589404	2.46437086092715				0.964026490066225	0.0834966887417219	0.181933774834437	-3.1282119205298	-2.46807947019868	0.222516556291392				0.447788079470199	-0.158834437086093	-0.852238410596026	-0.539602649006623	0.717615894039735	0.365298013245032			
22	560	-0.200158940397351	0.114754966887417	-0.935523178807947	0.593377483443709	-0.424635761589404	0.215099337748344				0.976953642384106	0.159788079470199	0.221139072847682	-0.686092715231788	2.26781456953642	0.25403973509934				-0.298172185430464	-0.0332715231788079	-0.87194701986755	3.08741721854305	0.426490066225167	0.35973509933775				0.496529801324503	-0.224529801324503	-0.821721854304636	0.242913907284768	1.0235761589404	2.18437086092715				0.964026490066225	0.0674966887417219	0.197933774834437	-1.7282119205298	-1.90807947019868	0.502516556291392				0.447788079470199	-0.158834437086093	-0.852238410596026	0.300397350993377	-1.52238410596026	-0.194701986754968			
23	580	-0.216158940397351	0.114754966887417	-0.951523178807947	0.593377483443709	-0.144635761589404	-1.46490066225166				0.976953642384106	0.159788079470199	0.221139072847682	-0.406092715231788	2.82781456953642	-0.30596026490066				-0.298172185430464	-0.0332715231788079	-0.87194701986755	0.287417218543046	0.986490066225167	-0.20026490066225				0.496529801324503	-0.208529801324503	-0.805721854304636	0.802913907284768	-0.0964238410596001	1.06437086092715				0.964026490066225	0.0834966887417219	0.181933774834437	-1.1682119205298	-1.90807947019868	0.222516556291392				0.431788079470199	-0.174834437086093	-0.836238410596026	-0.259602649006623	-1.80238410596026	-0.194701986754968			
24	600	-0.216158940397351	0.130754966887417	-0.951523178807947	-0.526622516556291	-0.424635761589404	-1.18490066225166				0.976953642384106	0.159788079470199	0.221139072847682	-0.126092715231788	3.38781456953642	-0.30596026490066				-0.298172185430464	-0.0332715231788079	-0.87194701986755	-0.272582781456954	-0.133509933774833	-0.48026490066225				0.496529801324503	-0.208529801324503	-0.821721854304636	0.242913907284768	-1.2164238410596	0.784370860927152				0.948026490066225	0.0834966887417219	0.181933774834437	-0.888211920529802	-1.34807947019868	1.34251655629139				0.431788079470199	-0.158834437086093	-0.836238410596026	-0.539602649006623	-1.52238410596026	-0.194701986754968			
25	620	-0.216158940397351	0.130754966887417	-0.935523178807947	-0.806622516556291	0.975364238410596	-0.624900662251656				0.976953642384106	0.175788079470199	0.237139072847682	-0.966092715231788	3.38781456953642	-0.30596026490066				-0.282172185430464	-0.0332715231788079	-0.88794701986755	0.567417218543046	0.706490066225167	0.35973509933775				0.480529801324503	-0.224529801324503	-0.805721854304636	-0.597086092715232	-1.2164238410596	1.06437086092715				0.948026490066225	0.0834966887417219	0.181933774834437	-0.328211920529802	-0.788079470198675	0.782516556291392				0.447788079470199	-0.158834437086093	-0.836238410596026	-0.539602649006623	-0.962384105960265	-0.194701986754968			
26	640	-0.200158940397351	0.114754966887417	-0.951523178807947	0.313377483443709	0.975364238410596	-1.18490066225166				0.960953642384106	0.159788079470199	0.237139072847682	-0.126092715231788	1.70781456953642	-0.30596026490066				-0.282172185430464	-0.0332715231788079	-0.87194701986755	3.36741721854305	-0.133509933774833	0.0797350993377501				0.480529801324503	-0.208529801324503	-0.805721854304636	0.242913907284768	-0.3764238410596	-0.0556291390728476				0.964026490066225	0.0674966887417219	0.165933774834437	0.231788079470198	-1.34807947019868	-0.0574834437086077				0.431788079470199	-0.174834437086093	-0.836238410596026	0.580397350993377	-0.122384105960265	0.0852980132450323			
27	660	-0.200158940397351	0.114754966887417	-0.951523178807947	0.0333774834437086	-0.144635761589404	-1.46490066225166				0.960953642384106	0.159788079470199	0.221139072847682	-0.126092715231788	0.587814569536424	-0.0259602649006601				-0.282172185430464	-0.0332715231788079	-0.87194701986755	1.12741721854305	1.26649006622517	-0.76026490066225				0.480529801324503	-0.208529801324503	-0.805721854304636	1.36291390728477	1.0235761589404	1.06437086092715				0.948026490066225	0.0674966887417219	0.197933774834437	0.791788079470198	-0.508079470198675	1.06251655629139				0.431788079470199	-0.174834437086093	-0.836238410596026	0.300397350993377	-0.402384105960265	-0.474701986754968			
28	680	-0.200158940397351	0.114754966887417	-0.967523178807947	0.313377483443709	-0.424635761589404	-1.74490066225166				0.960953642384106	0.159788079470199	0.221139072847682	-0.126092715231788	2.54781456953642	-0.0259602649006601				-0.282172185430464	-0.0332715231788079	-0.87194701986755	0.287417218543046	0.146490066225167	-1.04026490066225				0.496529801324503	-0.224529801324503	-0.805721854304636	2.20291390728477	1.3035761589404	1.62437086092715				0.948026490066225	0.0674966887417219	0.149933774834437	1.0717880794702	-3.86807947019868	1.06251655629139				0.431788079470199	-0.158834437086093	-0.836238410596026	-2.21960264900662	-0.122384105960265	-0.754701986754968			
29	700	-0.200158940397351	0.114754966887417	-0.967523178807947	0.313377483443709	0.695364238410596	-1.74490066225166				0.976953642384106	0.159788079470199	0.221139072847682	1.27390728476821	3.66781456953642	1.37403973509934				-0.282172185430464	-0.0332715231788079	-0.87194701986755	-3.35258278145695	0.426490066225167	-0.20026490066225				0.496529801324503	-0.224529801324503	-0.805721854304636	2.76291390728477	1.0235761589404	1.34437086092715				0.932026490066225	0.0834966887417219	0.197933774834437	-3.4082119205298	1.17192052980133	-0.337483443708608				0.431788079470199	-0.174834437086093	-0.836238410596026	-1.09960264900662	-0.682384105960265	-0.194701986754968			
30	720	-0.200158940397351	0.114754966887417	-0.935523178807947	-0.526622516556291	0.695364238410596	-1.18490066225166				0.960953642384106	0.143788079470199	0.237139072847682	-0.686092715231788	4.22781456953642	1.37403973509934				-0.266172185430464	-0.0492715231788079	-0.85594701986755	0.287417218543046	0.146490066225167	-0.48026490066225				0.480529801324503	-0.224529801324503	-0.821721854304636	0.522913907284768	-0.3764238410596	0.784370860927152				0.948026490066225	0.0674966887417219	0.181933774834437	-0.608211920529802	-0.788079470198675	1.06251655629139				0.431788079470199	-0.158834437086093	-0.820238410596026	0.580397350993377	-0.402384105960265	-0.194701986754968			
31	740	-0.200158940397351	0.114754966887417	-0.935523178807947	0.0333774834437086	-0.144635761589404	-0.624900662251656				0.960953642384106	0.159788079470199	0.253139072847682	-2.08609271523179	0.0278145695364242	0.25403973509934				-0.282172185430464	-0.0332715231788079	-0.87194701986755	0.567417218543046	-0.133509933774833	-0.76026490066225				0.480529801324503	-0.224529801324503	-0.805721854304636	0.242913907284768	-0.0964238410596001	-0.0556291390728476				0.964026490066225	0.0674966887417219	0.181933774834437	-0.888211920529802	0.611920529801325	-0.0574834437086077				0.431788079470199	-0.174834437086093	-0.836238410596026	1.70039735099338	-0.122384105960265	-1.87470198675497			
32	760	-0.200158940397351	0.114754966887417	-0.951523178807947	0.0333774834437086	-0.144635761589404	-0.904900662251656				0.960953642384106	0.159788079470199	0.221139072847682	-0.686092715231788	0.0278145695364242	-0.0259602649006601				-0.282172185430464	-0.0332715231788079	-0.88794701986755	1.12741721854305	0.146490066225167	-0.20026490066225				0.480529801324503	-0.224529801324503	-0.805721854304636	0.522913907284768	-0.0964238410596001	-0.0556291390728476				0.948026490066225	0.0674966887417219	0.197933774834437	1.3517880794702	-1.62807947019868	-0.0574834437086077				0.431788079470199	-0.174834437086093	-0.836238410596026	-0.259602649006623	1.27761589403974	-1.31470198675497			
33	780	-0.216158940397351	0.0987549668874172	-0.967523178807947	0.313377483443709	0.695364238410596	-1.18490066225166				0.976953642384106	0.159788079470199	0.221139072847682	-0.686092715231788	5.06781456953642	0.53403973509934				-0.282172185430464	-0.0332715231788079	-0.88794701986755	-0.552582781456954	1.54649006622517	-0.48026490066225				0.496529801324503	-0.208529801324503	-0.789721854304636	0.522913907284768	-0.0964238410596001	-0.335629139072848				0.948026490066225	0.0834966887417219	0.181933774834437	-0.328211920529802	-1.34807947019868	1.34251655629139				0.431788079470199	-0.158834437086093	-0.836238410596026	-0.539602649006623	0.717615894039735	-0.474701986754968			
34	800	-0.200158940397351	0.114754966887417	-0.951523178807947	0.313377483443709	1.2553642384106	-1.18490066225166				0.960953642384106	0.175788079470199	0.237139072847682	-0.406092715231788	4.22781456953642	1.09403973509934				-0.282172185430464	-0.0332715231788079	-0.88794701986755	-3.07258278145695	0.986490066225167	0.0797350993377501				0.496529801324503	-0.224529801324503	-0.805721854304636	2.76291390728477	0.1835761589404	0.784370860927152				0.948026490066225	0.0674966887417219	0.197933774834437	0.791788079470198	-1.34807947019868	0.782516556291392				0.431788079470199	-0.158834437086093	-0.836238410596026	0.300397350993377	0.437615894039735	-1.03470198675497			
35	820	-0.216158940397351	0.114754966887417	-0.919523178807947	0.593377483443709	0.135364238410596	-1.18490066225166				0.960953642384106	0.159788079470199	0.253139072847682	-0.406092715231788	2.82781456953642	1.37403973509934				-0.282172185430464	-0.0332715231788079	-0.87194701986755	-1.39258278145695	0.146490066225167	-0.20026490066225				0.496529801324503	-0.224529801324503	-0.805721854304636	2.76291390728477	1.5835761589404	0.224370860927152				0.948026490066225	0.0834966887417219	0.181933774834437	0.231788079470198	-2.18807947019868	0.502516556291392				0.447788079470199	-0.174834437086093	-0.836238410596026	0.300397350993377	0.717615894039735	-0.474701986754968			
36	840	-0.200158940397351	0.130754966887417	-0.951523178807947	0.0333774834437086	0.415364238410596	-0.904900662251656				0.960953642384106	0.159788079470199	0.253139072847682	0.433907284768212	0.307814569536424	2.21403973509934				-0.282172185430464	-0.0332715231788079	-0.87194701986755	0.847417218543046	0.146490066225167	0.0797350993377501				0.496529801324503	-0.224529801324503	-0.789721854304636	2.20291390728477	1.5835761589404	0.224370860927152				0.948026490066225	0.0674966887417219	0.197933774834437	1.0717880794702	-1.34807947019868	0.782516556291392				0.463788079470199	-0.190834437086093	-0.836238410596026	1.14039735099338	0.997615894039735	-0.754701986754968			
37	860	-0.200158940397351	0.114754966887417	-0.951523178807947	0.313377483443709	0.975364238410596	-1.18490066225166				0.960953642384106	0.159788079470199	0.237139072847682	0.713907284768212	0.307814569536424	0.81403973509934				-0.282172185430464	-0.0332715231788079	-0.88794701986755	1.40741721854305	0.426490066225167	-0.48026490066225				0.496529801324503	-0.208529801324503	-0.805721854304636	1.64291390728477	-0.3764238410596	0.504370860927152				0.948026490066225	0.0674966887417219	0.181933774834437	1.0717880794702	-1.06807947019868	0.222516556291392				0.447788079470199	-0.174834437086093	-0.820238410596026	-0.539602649006623	0.717615894039735	-0.194701986754968			
38	880	-0.200158940397351	0.114754966887417	-0.951523178807947	-0.246622516556291	0.415364238410596	-0.904900662251656				0.960953642384106	0.159788079470199	0.237139072847682	-0.126092715231788	2.54781456953642	0.25403973509934				-0.266172185430464	-0.0332715231788079	-0.87194701986755	0.00741721854304636	0.426490066225167	-0.20026490066225				0.496529801324503	-0.208529801324503	-0.789721854304636	0.522913907284768	-0.9364238410596	-0.615629139072848				0.948026490066225	0.0674966887417219	0.181933774834437	0.231788079470198	-2.18807947019868	0.222516556291392				0.447788079470199	-0.158834437086093	-0.836238410596026	-1.65960264900662	0.157615894039735	-0.754701986754968			
39	900	-0.200158940397351	0.114754966887417	-0.935523178807947	0.0333774834437086	0.135364238410596	-1.46490066225166				0.960953642384106	0.143788079470199	0.253139072847682	-0.966092715231788	2.54781456953642	0.81403973509934				-0.266172185430464	-0.0332715231788079	-0.87194701986755	0.847417218543046	0.146490066225167	-0.76026490066225				0.496529801324503	-0.224529801324503	-0.805721854304636	-0.317086092715232	-2.0564238410596	-0.895629139072848				0.948026490066225	0.0674966887417219	0.181933774834437	-0.608211920529802	-2.18807947019868	0.502516556291392				0.447788079470199	-0.158834437086093	-0.820238410596026	0.0203973509933773	-0.402384105960265	-1.03470198675497			
40	920	-0.184158940397351	0.130754966887417	-0.951523178807947	0.873377483443709	-0.144635761589404	-0.904900662251656				0.960953642384106	0.143788079470199	0.253139072847682	0.153907284768212	1.42781456953642	1.65403973509934				-0.282172185430464	-0.0332715231788079	-0.87194701986755	1.96741721854305	0.426490066225167	-1.04026490066225				0.496529801324503	-0.208529801324503	-0.789721854304636	-0.0370860927152318	-1.4964238410596	-0.895629139072848				0.948026490066225	0.0834966887417219	0.181933774834437	-0.0482119205298018	-0.788079470198675	0.222516556291392				0.447788079470199	-0.158834437086093	-0.836238410596026	0.860397350993377	-0.402384105960265	-1.59470198675497			
41	940	-0.216158940397351	0.114754966887417	-0.951523178807947	0.593377483443709	-0.424635761589404	-0.624900662251656				0	0	0	0	0	0				0	0	0	0	0	0				0.496529801324503	-0.224529801324503	-0.805721854304636	1.08291390728477	-1.4964238410596	-0.615629139072848				0.948026490066225	0.0674966887417219	0.197933774834437	-0.328211920529802	-0.788079470198675	-0.337483443708608				0.447788079470199	-0.158834437086093	-0.836238410596026	1.14039735099338	0.157615894039735	-1.87470198675497			
42	1060	0	0	0	0	0	0				0	0	0	0	0	0				0	0	0	0	0	0				0	0	0	0	0	0				0.964026490066225	0.0674966887417219	0.165933774834437	1.9117880794702	-4.14807947019868	0.222516556291392				0	0	0	0	0	0			
43	1080	0	0	0	0	0	0				0.976953642384106	0.159788079470199	0.269139072847682	0.713907284768212	-1.37218543046358	1.09403973509934				-0.282172185430464	-0.0332715231788079	-0.87194701986755	1.68741721854305	0.426490066225167	-0.48026490066225				0.496529801324503	-0.224529801324503	-0.805721854304636	0.242913907284768	-2.3364238410596	-3.69562913907285				0.948026490066225	0.0834966887417219	0.165933774834437	2.7517880794702	-2.74807947019868	0.502516556291392				0.431788079470199	-0.142834437086093	-0.836238410596026	0.860397350993377	-0.122384105960265	-3.55470198675497			
44	1100	-0.200158940397351	0.114754966887417	-0.951523178807947	0.313377483443709	0.695364238410596	-1.46490066225166				0.960953642384106	0.159788079470199	0.253139072847682	2.39390728476821	-3.05218543046358	1.37403973509934				-0.282172185430464	-0.0332715231788079	-0.88794701986755	2.24741721854305	0.706490066225167	0.0797350993377501				0.496529801324503	-0.224529801324503	-0.805721854304636	0.802913907284768	-2.6164238410596	-3.41562913907285				0.948026490066225	0.0834966887417219	0.165933774834437	2.7517880794702	-2.18807947019868	0.222516556291392				0.447788079470199	-0.174834437086093	-0.836238410596026	1.98039735099338	-0.402384105960265	-3.55470198675497			
45	1120	-0.200158940397351	0.114754966887417	-0.935523178807947	0.593377483443709	-0.144635761589404	-0.904900662251656				0.960953642384106	0.143788079470199	0.237139072847682	2.39390728476821	-2.77218543046358	1.09403973509934				-0.282172185430464	-0.0332715231788079	-0.88794701986755	1.96741721854305	0.146490066225167	-0.20026490066225				0.496529801324503	-0.224529801324503	-0.805721854304636	1.08291390728477	-1.7764238410596	-3.69562913907285				0.964026490066225	0.0674966887417219	0.165933774834437	3.0317880794702	-2.18807947019868	0.782516556291392				0.447788079470199	-0.174834437086093	-0.836238410596026	1.14039735099338	0.157615894039735	-2.43470198675497			
46	1140	-0.200158940397351	0.114754966887417	-0.951523178807947	1.43337748344371	-0.144635761589404	-1.46490066225166				0.960953642384106	0.159788079470199	0.237139072847682	0.993907284768212	-1.65218543046358	1.93403973509934				-0.282172185430464	-0.0332715231788079	-0.88794701986755	1.12741721854305	0.426490066225167	-0.76026490066225				0.480529801324503	-0.208529801324503	-0.805721854304636	1.92291390728477	-0.6564238410596	-2.85562913907285				0.948026490066225	0.0834966887417219	0.181933774834437	3.3117880794702	-2.18807947019868	0.782516556291392				0.447788079470199	-0.158834437086093	-0.836238410596026	0.300397350993377	1.27761589403974	-2.43470198675497			
47	1160	-0.200158940397351	0.130754966887417	-0.951523178807947	-0.526622516556291	0.135364238410596	-1.18490066225166				0.944953642384106	0.159788079470199	0.253139072847682	1.27390728476821	0.867814569536424	2.21403973509934				-0.282172185430464	-0.0332715231788079	-0.87194701986755	-0.272582781456954	-0.133509933774833	-0.48026490066225				0.480529801324503	-0.224529801324503	-0.805721854304636	2.76291390728477	-0.9364238410596	-2.01562913907285				0.948026490066225	0.0674966887417219	0.165933774834437	3.8717880794702	-2.18807947019868	0.782516556291392				0.431788079470199	-0.158834437086093	-0.820238410596026	1.42039735099338	0.997615894039735	-2.43470198675497			
48	1180	-0.216158940397351	0.114754966887417	-0.935523178807947	0.593377483443709	-0.424635761589404	-0.344900662251656				0.960953642384106	0.143788079470199	0.237139072847682	2.11390728476821	0.0278145695364242	2.21403973509934				-0.282172185430464	-0.0332715231788079	-0.85594701986755	-0.552582781456954	0.146490066225167	-0.20026490066225				0.480529801324503	-0.240529801324503	-0.805721854304636	2.48291390728477	-0.6564238410596	-2.29562913907285				0.948026490066225	0.0674966887417219	0.165933774834437	4.7117880794702	-0.788079470198675	1.34251655629139				0.447788079470199	-0.174834437086093	-0.836238410596026	3.10039735099338	0.437615894039735	-1.59470198675497			
49	1200	-0.216158940397351	0.114754966887417	-0.951523178807947	0.873377483443709	-0.424635761589404	-1.18490066225166				0.960953642384106	0.143788079470199	0.221139072847682	2.67390728476821	-1.09218543046358	0.25403973509934				-0.282172185430464	-0.0332715231788079	-0.88794701986755	-1.95258278145695	-0.133509933774833	0.0797350993377501				0.480529801324503	-0.224529801324503	-0.805721854304636	1.08291390728477	-0.6564238410596	-2.29562913907285				0.948026490066225	0.0674966887417219	0.165933774834437	3.8717880794702	-0.508079470198675	1.06251655629139				0.431788079470199	-0.190834437086093	-0.820238410596026	2.26039735099338	-0.122384105960265	-1.03470198675497			
50	1220	-0.216158940397351	0.114754966887417	-0.951523178807947	0.593377483443709	-0.144635761589404	-1.46490066225166				0.960953642384106	0.175788079470199	0.237139072847682	1.83390728476821	-1.65218543046358	-0.30596026490066				-0.298172185430464	-0.0332715231788079	-0.87194701986755	0.847417218543046	0.426490066225167	0.35973509933775				0.480529801324503	-0.224529801324503	-0.789721854304636	-0.597086092715232	-2.0564238410596	-2.85562913907285				0.948026490066225	0.0514966887417219	0.165933774834437	3.5917880794702	-1.62807947019868	0.502516556291392				0.447788079470199	-0.190834437086093	-0.820238410596026	-0.539602649006623	1.27761589403974	-0.194701986754968			
51	1240	-0.200158940397351	0.114754966887417	-0.935523178807947	0.593377483443709	0.135364238410596	-1.18490066225166				0.960953642384106	0.159788079470199	0.237139072847682	-0.126092715231788	-0.532185430463576	0.25403973509934				-0.282172185430464	-0.0492715231788079	-0.87194701986755	1.40741721854305	1.26649006622517	-0.20026490066225				0.480529801324503	-0.224529801324503	-0.789721854304636	1.36291390728477	-1.2164238410596	-1.45562913907285				0.948026490066225	0.0674966887417219	0.197933774834437	3.0317880794702	0.891920529801325	0.502516556291392				0.447788079470199	-0.174834437086093	-0.820238410596026	-0.259602649006623	1.55761589403974	-1.03470198675497			
52	1260	-0.200158940397351	0.114754966887417	-0.935523178807947	-0.246622516556291	0.135364238410596	-0.904900662251656				0.960953642384106	0.143788079470199	0.253139072847682	0.993907284768212	-1.65218543046358	0.25403973509934				-0.282172185430464	-0.0492715231788079	-0.88794701986755	1.12741721854305	1.54649006622517	-0.76026490066225				0.480529801324503	-0.240529801324503	-0.805721854304636	2.48291390728477	0.7435761589404	-0.895629139072848				0.948026490066225	0.0674966887417219	0.149933774834437	2.1917880794702	-1.34807947019868	0.502516556291392				0.447788079470199	-0.158834437086093	-0.836238410596026	1.14039735099338	0.717615894039735	-1.59470198675497			
53	1280	-0.200158940397351	0.114754966887417	-0.935523178807947	0.593377483443709	-0.424635761589404	-2.02490066225166				0.960953642384106	0.159788079470199	0.237139072847682	0.993907284768212	-3.89218543046358	1.65403973509934				-0.266172185430464	-0.0332715231788079	-0.87194701986755	-0.832582781456954	1.54649006622517	-0.76026490066225				0.480529801324503	-0.240529801324503	-0.789721854304636	4.44291390728477	1.3035761589404	-0.615629139072848				0.964026490066225	0.0674966887417219	0.165933774834437	1.0717880794702	0.331920529801325	-0.897483443708608				0.447788079470199	-0.174834437086093	-0.836238410596026	3.38039735099338	0.717615894039735	-0.474701986754968			
54	1300	-0.216158940397351	0.114754966887417	-0.951523178807947	-0.246622516556291	-0.704635761589404	-1.74490066225166				0.960953642384106	0.159788079470199	0.237139072847682	-0.406092715231788	-2.77218543046358	1.93403973509934				-0.282172185430464	-0.0332715231788079	-0.88794701986755	-0.552582781456954	-0.133509933774833	-1.04026490066225				0.480529801324503	-0.208529801324503	-0.805721854304636	6.96291390728477	1.3035761589404	0.504370860927152				0.948026490066225	0.0674966887417219	0.149933774834437	-1.7282119205298	0.891920529801325	-0.897483443708608				0.447788079470199	-0.174834437086093	-0.836238410596026	1.98039735099338	0.717615894039735	-0.474701986754968			
55	1320	-0.216158940397351	0.114754966887417	-0.951523178807947	0.593377483443709	-0.144635761589404	-1.46490066225166				0.976953642384106	0.159788079470199	0.253139072847682	1.27390728476821	-2.77218543046358	1.09403973509934				-0.282172185430464	-0.0332715231788079	-0.88794701986755	0.847417218543046	0.706490066225167	-0.76026490066225				0.496529801324503	-0.208529801324503	-0.805721854304636	5.56291390728477	0.7435761589404	1.06437086092715				0.964026490066225	0.0674966887417219	0.181933774834437	2.4717880794702	0.331920529801325	0.502516556291392				0.447788079470199	-0.174834437086093	-0.836238410596026	0.580397350993377	0.717615894039735	-1.03470198675497			
56	1340	-0.200158940397351	0.114754966887417	-0.951523178807947	0.0333774834437086	0.135364238410596	-1.74490066225166				0.960953642384106	0.159788079470199	0.221139072847682	2.95390728476821	-1.65218543046358	1.37403973509934				-0.282172185430464	-0.0332715231788079	-0.87194701986755	-1.67258278145695	2.10649006622517	-0.76026490066225				0.512529801324503	-0.224529801324503	-0.805721854304636	1.36291390728477	-2.3364238410596	0.504370860927152				0.948026490066225	0.0674966887417219	0.181933774834437	3.8717880794702	0.0519205298013249	1.06251655629139				0.447788079470199	-0.174834437086093	-0.836238410596026	0.580397350993377	-0.122384105960265	-0.474701986754968			
57	1360	-0.200158940397351	0.130754966887417	-0.935523178807947	-0.526622516556291	0.135364238410596	-1.74490066225166				0.960953642384106	0.143788079470199	0.237139072847682	2.11390728476821	0.587814569536424	1.65403973509934				-0.266172185430464	-0.0332715231788079	-0.87194701986755	-1.39258278145695	0.986490066225167	-1.04026490066225				0.496529801324503	-0.224529801324503	-0.821721854304636	0.522913907284768	-2.8964238410596	-0.895629139072848				0.964026490066225	0.0674966887417219	0.165933774834437	1.9117880794702	1.17192052980133	1.34251655629139				0.447788079470199	-0.174834437086093	-0.836238410596026	0.860397350993377	0.997615894039735	-1.03470198675497			
58	1380	-0.200158940397351	0.0987549668874172	-0.951523178807947	1.15337748344371	-0.424635761589404	-1.74490066225166				0.976953642384106	0.143788079470199	0.237139072847682	2.95390728476821	-2.21218543046358	1.37403973509934				-0.282172185430464	-0.0332715231788079	-0.87194701986755	-0.832582781456954	0.706490066225167	-0.48026490066225				0.496529801324503	-0.224529801324503	-0.805721854304636	-0.0370860927152318	-1.2164238410596	-0.895629139072848				0.964026490066225	0.0674966887417219	0.165933774834437	2.4717880794702	0.0519205298013249	0.502516556291392				0.447788079470199	-0.174834437086093	-0.820238410596026	1.98039735099338	0.717615894039735	3.72529801324503			
59	1400	-0.200158940397351	0.0987549668874172	-0.951523178807947	-0.246622516556291	0.135364238410596	-2.30490066225166				0.944953642384106	0.159788079470199	0.237139072847682	2.95390728476821	-5.01218543046358	0.81403973509934				-0.282172185430464	-0.0332715231788079	-0.88794701986755	-1.67258278145695	0.986490066225167	-0.48026490066225				0.480529801324503	-0.208529801324503	-0.789721854304636	1.92291390728477	-0.9364238410596	-2.29562913907285				0.948026490066225	0.0674966887417219	0.165933774834437	3.3117880794702	-0.508079470198675	-0.617483443708608				0.447788079470199	-0.190834437086093	-0.820238410596026	1.14039735099338	0.997615894039735	0.0852980132450323			
60	1420	-0.216158940397351	0.0987549668874172	-0.935523178807947	-0.526622516556291	0.415364238410596	-1.46490066225166				0.928953642384106	0.159788079470199	0.221139072847682	1.83390728476821	-3.61218543046358	1.37403973509934				-0.282172185430464	-0.0332715231788079	-0.88794701986755	-1.39258278145695	0.426490066225167	-0.20026490066225				0.480529801324503	-0.224529801324503	-0.789721854304636	3.04291390728477	-2.0564238410596	-2.01562913907285				0.948026490066225	0.0674966887417219	0.165933774834437	1.9117880794702	-0.228079470198675	-0.337483443708608				0.447788079470199	-0.174834437086093	-0.820238410596026	1.14039735099338	0.717615894039735	0.645298013245032			
61	1440	-0.216158940397351	0.0987549668874172	-0.935523178807947	1.43337748344371	-0.144635761589404	-0.624900662251656				0.960953642384106	0.143788079470199	0.205139072847682	-0.126092715231788	0.0278145695364242	0.53403973509934				-0.266172185430464	-0.0332715231788079	-0.88794701986755	-1.95258278145695	0.426490066225167	-0.48026490066225				0.464529801324503	-0.240529801324503	-0.805721854304636	2.48291390728477	-1.2164238410596	-0.895629139072848				0.948026490066225	0.0674966887417219	0.165933774834437	1.0717880794702	0.331920529801325	-0.617483443708608				0.447788079470199	-0.174834437086093	-0.820238410596026	-0.819602649006623	0.997615894039735	1.20529801324503			
62	1460	-0.200158940397351	0.0987549668874172	-0.935523178807947	-1.08662251655629	-0.984635761589404	-0.624900662251656				0.960953642384106	0.159788079470199	0.221139072847682	-1.24609271523179	2.54781456953642	-0.30596026490066				-0.266172185430464	-0.0492715231788079	-0.87194701986755	-3.07258278145695	-0.133509933774833	0.35973509933775				0.464529801324503	-0.240529801324503	-0.789721854304636	-0.317086092715232	-1.7764238410596	-0.0556291390728476				0.948026490066225	0.0674966887417219	0.165933774834437	-0.888211920529802	0.331920529801325	-1.17748344370861				0.447788079470199	-0.174834437086093	-0.820238410596026	-1.65960264900662	0.157615894039735	1.76529801324503			
63	1480	-0.200158940397351	0.0987549668874172	-0.935523178807947	-0.806622516556291	-0.704635761589404	-0.624900662251656				0.960953642384106	0.127788079470199	0.221139072847682	-1.52609271523179	0.867814569536424	1.09403973509934				-0.282172185430464	-0.0172715231788079	-0.87194701986755	-5.87258278145695	0.146490066225167	0.35973509933775				0.464529801324503	-0.240529801324503	-0.805721854304636	-2.27708609271523	-0.3764238410596	1.06437086092715				0.948026490066225	0.0674966887417219	0.165933774834437	-2.0082119205298	0.331920529801325	-0.617483443708608				0.447788079470199	-0.174834437086093	-0.820238410596026	0.0203973509933773	-0.962384105960265	2.32529801324503			
64	1500	-0.216158940397351	0.114754966887417	-0.951523178807947	0.0333774834437086	-0.144635761589404	-0.344900662251656				0.976953642384106	0.143788079470199	0.205139072847682	-0.406092715231788	0.0278145695364242	1.37403973509934				-0.282172185430464	-0.0332715231788079	-0.87194701986755	-7.83258278145695	-0.693509933774834	0.91973509933775				0.448529801324503	-0.224529801324503	-0.805721854304636	-2.55708609271523	0.1835761589404	2.74437086092715				0.948026490066225	0.0674966887417219	0.149933774834437	-1.1682119205298	0.0519205298013249	-1.45748344370861				0.447788079470199	-0.190834437086093	-0.820238410596026	-1.65960264900662	0.997615894039735	3.72529801324503			
65	1520	-0.216158940397351	0.114754966887417	-0.951523178807947	0.313377483443709	-0.144635761589404	-0.0649006622516557				0.976953642384106	0.159788079470199	0.205139072847682	0.993907284768212	1.42781456953642	0.81403973509934				-0.282172185430464	-0.0332715231788079	-0.88794701986755	-6.71258278145695	0.146490066225167	0.63973509933775				0.448529801324503	-0.240529801324503	-0.805721854304636	-0.877086092715232	0.4635761589404	3.02437086092715				0.948026490066225	0.0674966887417219	0.165933774834437	-5.0882119205298	2.57192052980133	-1.45748344370861				0.431788079470199	-0.190834437086093	-0.836238410596026	-2.49960264900662	1.27761589403974	5.40529801324503			
66	1540	-0.216158940397351	0.0987549668874172	-0.935523178807947	-1.08662251655629	0.135364238410596	0.215099337748344				0.976953642384106	0.159788079470199	0.221139072847682	-0.966092715231788	1.98781456953642	0.53403973509934				-0.298172185430464	-0.0332715231788079	-0.88794701986755	-7.55258278145695	0.146490066225167	0.63973509933775				0.464529801324503	-0.256529801324503	-0.805721854304636	-2.55708609271523	1.0235761589404	3.58437086092715				0.948026490066225	0.0514966887417219	0.165933774834437	-5.6482119205298	6.77192052980133	-0.897483443708608				0.447788079470199	-0.174834437086093	-0.852238410596026	-2.77960264900662	0.997615894039735	5.68529801324503			
67	1560	-0.200158940397351	0.114754966887417	-0.935523178807947	-2.48662251655629	-0.144635761589404	-0.344900662251656				0.992953642384106	0.159788079470199	0.237139072847682	-2.36609271523179	0.0278145695364242	0.25403973509934				-0.282172185430464	-0.0172715231788079	-0.90394701986755	-7.27258278145696	1.54649006622517	1.19973509933775				0.448529801324503	-0.256529801324503	-0.805721854304636	-0.0370860927152318	-2.8964238410596	4.70437086092715				0.964026490066225	0.0514966887417219	0.133933774834437	-7.0482119205298	6.49192052980132	-1.45748344370861				0.447788079470199	-0.174834437086093	-0.852238410596026	-0.539602649006623	1.55761589403974	6.80529801324503			
68	1580	-0.216158940397351	0.130754966887417	-0.951523178807947	-0.806622516556291	-0.424635761589404	-0.624900662251656				1.00895364238411	0.127788079470199	0.205139072847682	-3.48609271523179	-3.05218543046358	0.53403973509934				-0.298172185430464	-0.00127152317880793	-0.88794701986755	-5.31258278145695	0.426490066225167	-0.20026490066225				0.448529801324503	-0.240529801324503	-0.853721854304636	-1.15708609271523	-4.0164238410596	6.10437086092715				0.996026490066225	0.0514966887417219	0.149933774834437	-9.2882119205298	7.89192052980133	-1.73748344370861				0.463788079470199	-0.206834437086093	-0.868238410596026	-3.89960264900662	-0.682384105960265	7.08529801324503			
69	1600	-0.232158940397351	0.114754966887417	-0.951523178807947	-0.526622516556291	0.695364238410596	-0.624900662251656				1.00895364238411	0.143788079470199	0.189139072847682	-3.76609271523179	-6.41218543046358	1.09403973509934				-0.298172185430464	-0.00127152317880793	-0.88794701986755	0.847417218543046	-2.09350993377483	-0.48026490066225				0.464529801324503	-0.272529801324503	-0.869721854304636	-3.39708609271523	-1.4964238410596	7.78437086092715				0.980026490066225	0.0674966887417219	0.149933774834437	-11.5282119205298	6.77192052980133	-2.29748344370861				0.431788079470199	-0.206834437086093	-0.884238410596026	-8.65960264900662	-2.92238410596027	7.08529801324503			
70	1620	-0.216158940397351	0.114754966887417	-0.951523178807947	-1.64662251655629	1.8153642384106	-0.344900662251656				0.976953642384106	0.191788079470199	0.173139072847682	-1.80609271523179	-8.37218543046358	1.09403973509934				-0.298172185430464	-0.0172715231788079	-0.91994701986755	10.647417218543	-2.09350993377483	-1.04026490066225				0.448529801324503	-0.288529801324503	-0.869721854304636	-3.95708609271523	-2.3364238410596	8.90437086092715				0.980026490066225	0.0514966887417219	0.133933774834437	-10.9682119205298	9.01192052980133	-2.01748344370861				0.431788079470199	-0.158834437086093	-0.916238410596027	-11.7396026490066	-7.40238410596027	9.60529801324503			
71	1640	-0.168158940397351	0.130754966887417	-0.935523178807947	-4.44662251655629	2.0953642384106	0.495099337748344				0.992953642384106	0.175788079470199	0.189139072847682	-2.36609271523179	-4.73218543046358	3.33403973509934				-0.266172185430464	-0.00127152317880793	-0.91994701986755	28.8474172185431	-3.21350993377483	-4.68026490066225				0.448529801324503	-0.288529801324503	-0.885721854304636	-8.43708609271523	-4.5764238410596	10.0243708609272				0.996026490066225	0.0674966887417219	0.133933774834437	-11.5282119205298	10.4119205298013	-2.57748344370861				0.431788079470199	-0.126834437086093	-0.948238410596026	-12.5796026490066	-11.6023841059603	11.005298013245			
72	1660	-0.184158940397351	0.0987549668874172	-0.951523178807947	-4.44662251655629	0.695364238410596	1.05509933774834				1.02495364238411	0.143788079470199	0.189139072847682	-1.80609271523179	-5.01218543046358	5.01403973509934				-0.282172185430464	-0.00127152317880793	-0.87194701986755	50.9674172185431	-5.45350993377483	-7.20026490066225				0.464529801324503	-0.288529801324503	-0.885721854304636	-7.87708609271523	-7.3764238410596	13.3843708609272				0.996026490066225	0.0834966887417219	0.101933774834437	-12.6482119205298	10.9719205298013	-1.17748344370861				0.415788079470199	-0.142834437086093	-0.980238410596026	-13.4196026490066	-16.0823841059603	11.005298013245			
73	1680	-0.216158940397351	0.0827549668874172	-0.951523178807947	-2.48662251655629	0.415364238410596	2.17509933774834				1.04095364238411	0.111788079470199	0.141139072847682	-1.80609271523179	-11.1721854304636	4.73403973509934				-0.314172185430464	-0.0652715231788079	-0.79194701986755	42.567417218543	0.426490066225167	-11.6802649006622				0.416529801324503	-0.304529801324503	-0.933721854304636	2.48291390728477	-12.1364238410596	15.9043708609272				0.996026490066225	0.0514966887417219	0.0859337748344371	-8.1682119205298	14.6119205298013	-1.17748344370861				0.399788079470199	-0.126834437086093	-1.01223841059603	-9.21960264900662	-28.6823841059603	11.005298013245			
74	1700	-0.248158940397351	0.0827549668874172	-0.983523178807947	-3.60662251655629	1.8153642384106	3.57509933774835				1.04095364238411	0.143788079470199	0.0931390728476822	-8.24609271523179	-10.8921854304636	2.77403973509934				-0.154172185430464	0.0147284768211921	-0.80794701986755	5.32741721854305	6.58649006622517	-9.72026490066225				0.432529801324503	-0.304529801324503	-0.965721854304636	-5.35708609271523	-18.5764238410596	20.1043708609272				1.01202649006623	0.0514966887417219	0.101933774834437	-5.9282119205298	16.5719205298013	-1.73748344370861				0.351788079470199	-0.142834437086093	-1.04423841059603	-5.85960264900662	-34.2823841059603	14.645298013245			
75	1720	-0.232158940397351	0.0987549668874172	-0.951523178807947	-3.60662251655629	3.2153642384106	4.41509933774834				1.05695364238411	0.175788079470199	0.0931390728476822	-15.2460927152318	-12.0121854304636	1.09403973509934				-0.266172185430464	-0.0332715231788079	-0.88794701986755	7.84741721854305	0.146490066225167	-8.32026490066225				0.432529801324503	-0.352529801324503	-0.997721854304636	-7.87708609271523	-26.1364238410596	21.7843708609272				1.02802649006623	0.0674966887417219	0.101933774834437	-8.7282119205298	12.9319205298013	-0.897483443708608				0.351788079470199	-0.158834437086093	-1.06023841059603	-1.37960264900662	-41.5623841059603	21.925298013245			
76	1740	-0.168158940397351	0.0507549668874172	-0.919523178807947	-12.2866225165563	4.0553642384106	8.05509933774835				1.00895364238411	0.175788079470199	0.0451390728476822	-18.0460927152318	-20.1321854304636	5.85403973509934				-0.218172185430464	-0.0492715231788079	-0.85594701986755	4.76741721854305	-3.77350993377483	-10.5602649006623				0.416529801324503	-0.416529801324503	-1.06172185430464	-11.5170860927152	-30.3364238410596	23.1843708609272				1.04402649006623	0.0674966887417219	0.0379337748344371	-11.8082119205298	12.3719205298013	-2.85748344370861				0.319788079470199	-0.174834437086093	-1.14023841059603	15.1403973509934	-63.6823841059603	30.605298013245			
77	1760	-0.136158940397351	0.0507549668874172	-0.935523178807947	-17.8866225165563	2.6553642384106	10.0150993377483				1.05695364238411	0.143788079470199	-0.0828609271523179	-0.406092715231788	-12.0121854304636	17.0540397350993				-0.234172185430464	-0.0812715231788079	-0.87194701986755	7.56741721854305	-3.49350993377483	-12.2402649006623				0.416529801324503	-0.384529801324503	-1.06172185430464	-29.4370860927152	-38.1764238410596	27.1043708609272				1.07602649006623	0.0834966887417219	0.00593377483443711	-7.3282119205298	14.0519205298013	-2.01748344370861				0.335788079470199	-0.238834437086093	-1.10823841059603	17.6603973509934	-82.4423841059603	44.045298013245			
78	1780	-0.248158940397351	0.0667549668874172	-0.983523178807947	-18.1666225165563	4.0553642384106	8.61509933774835				1.08895364238411	0.0637880794701987	-0.0348609271523178	-23.9260927152318	36.1478145695364	31.3340397350993				-0.314172185430464	-0.193271523178808	-0.91994701986755	8.40741721854305	-8.81350993377484	-13.9202649006623				0.336529801324503	-0.288529801324503	-1.02972185430464	-43.7170860927152	-54.9764238410596	32.7043708609272				1.17202649006623	0.0514966887417219	-0.0260662251655629	-2.8482119205298	10.9719205298013	0.782516556291392				0.271788079470199	-0.270834437086093	-1.15623841059603	7.86039735099338	-97.0023841059603	60.005298013245			
79	1800	-0.344158940397351	0.114754966887417	-1.06352317880795	-16.7666225165563	6.2953642384106	9.17509933774834				0.848953642384106	0.207788079470199	0.317139072847682	-64.2460927152318	46.2278145695364	30.4940397350993				-0.378172185430464	-0.353271523178808	-0.93594701986755	5.88741721854305	0.986490066225167	-11.9602649006623				0.256529801324503	-0.256529801324503	-1.10972185430464	-36.1570860927152	-65.8964238410596	34.6643708609272				1.18802649006623	0.00349668874172187	0.0859337748344371	-3.6882119205298	0.0519205298013249	1.90251655629139				0.0157880794701987	-0.158834437086093	-1.09223841059603	-9.21960264900662	-89.7223841059603	75.125298013245			
80	1820	-0.360158940397351	0.226754966887417	-1.12752317880795	-11.4466225165563	10.7753642384106	13.0950993377483				0.944953642384106	0.207788079470199	0.0291390728476822	-18.0460927152318	31.9478145695364	26.8540397350993				-0.346172185430464	-0.401271523178808	-0.88794701986755	-8.95258278145695	9.10649006622517	0.0797350993377501				0.240529801324503	-0.336529801324503	-1.15772185430464	-34.1970860927152	-68.1364238410596	33.2643708609272				1.07602649006623	0.0514966887417219	0.0859337748344371	-10.1282119205298	-6.10807947019868	4.98251655629139				0.0797880794701987	-0.0148344370860927	-1.09223841059603	-2.49960264900662	-51.3623841059603	74.005298013245			
81	1840	-0.376158940397351	0.194754966887417	-1.12752317880795	-31.8866225165563	26.7353642384106	17.0150993377483				1.23295364238411	0.0957880794701987	0.125139072847682	20.0339072847682	85.1478145695364	29.9340397350993				-0.458172185430464	-0.385271523178808	-1.14394701986755	-17.072582781457	20.0264900662252	10.7197350993378				0.160529801324503	-0.288529801324503	-1.09372185430464	-57.7170860927152	-75.9764238410596	23.4643708609272				1.17202649006623	0.115496688741722	-0.0580662251655629	6.9517880794702	9.57192052980133	10.0225165562914				0.0637880794701987	-0.0468344370860927	-1.14023841059603	42.8603973509934	-73.2023841059603	76.245298013245			
82	1860	-0.440158940397351	0.162754966887417	-0.807523178807947	-36.0866225165563	44.0953642384106	14.4950993377483				1.18495364238411	0.111788079470199	0.301139072847682	-33.7260927152318	81.7878145695364	23.4940397350993				-0.522172185430464	-0.209271523178808	-1.01594701986755	-11.472582781457	38.2264900662252	26.3997350993378				0.192529801324503	-0.208529801324503	-0.981721854304636	-79.5570860927152	-71.2164238410596	10.3043708609272				1.30002649006623	0.0194966887417219	-0.0100662251655629	17.8717880794702	12.0919205298013	6.10251655629139				-0.0482119205298013	-0.126834437086093	-0.948238410596026	58.8203973509934	-80.7623841059603	79.325298013245			
83	1880	-0.472158940397351	0.194754966887417	-0.919523178807947	-16.2066225165563	33.4553642384106	18.1350993377483				1.10495364238411	0.239788079470199	0.189139072847682	-17.4860927152318	33.9078145695364	20.4140397350993				-0.522172185430464	0.0467284768211921	-0.88794701986755	-50.952582781457	39.6264900662252	23.8797350993378				0.144529801324503	-0.128529801324503	-1.01372185430464	-46.7970860927152	-54.1364238410596	11.4243708609272				1.23602649006623	0.0194966887417219	0.133933774834437	32.1517880794702	5.65192052980133	6.94251655629139				-0.0642119205298013	-0.302834437086093	-0.900238410596026	33.9003973509934	-47.1623841059603	68.685298013245			
84	1900	-0.488158940397351	0.0827549668874172	-1.06352317880795	-32.7266225165563	47.4553642384106	18.9750993377483				1.26495364238411	0.0317880794701987	0.221139072847682	-3.20609271523179	68.3478145695364	28.5340397350993				-0.666172185430464	0.286728476821192	-1.19194701986755	-21.552582781457	46.0664900662252	21.6397350993378				0.208529801324503	-0.144529801324503	-0.997721854304636	-5.35708609271523	-24.1764238410596	3.58437086092715				1.17202649006623	0.00349668874172187	0.309933774834437	46.1517880794702	17.9719205298013	7.22251655629139				0.239788079470199	-0.190834437086093	-0.980238410596026	-7.25960264900662	-7.12238410596027	49.085298013245			
85	1920	-0.408158940397351	0.226754966887417	-1.03152317880795	-24.3266225165563	52.2153642384106	24.0150993377483				1.40895364238411	-0.0642119205298013	0.765139072847682	-56.6860927152318	105.307814569536	31.8940397350993				-0.634172185430464	0.158728476821192	-0.90394701986755	-12.312582781457	58.3864900662252	23.0397350993378				0.368529801324503	-0.0485298013245033	-0.981721854304636	7.52291390728477	2.1435761589404	1.90437086092715				1.09202649006623	0.0514966887417219	0.533933774834437	3.8717880794702	1.17192052980133	-4.53748344370861				0.271788079470199	-0.190834437086093	-1.01223841059603	27.1803973509934	-9.64238410596027	20.805298013245			
86	1940	-0.344158940397351	0.226754966887417	-1.01552317880795	-14.5266225165563	60.8953642384106	31.2950993377483				1.29695364238411	0.335788079470199	0.653139072847682	-60.3260927152318	44.2678145695364	12.5740397350993				-0.474172185430464	0.142728476821192	-1.04794701986755	-17.352582781457	69.0264900662252	16.0397350993378				0.496529801324503	-0.112529801324503	-1.10972185430464	32.1629139072848	12.5035761589404	12.5443708609272				1.20402649006623	0.179496688741722	0.453933774834437	-22.4482119205298	-2.46807947019868	-6.77748344370861				0.223788079470199	-0.302834437086093	-1.04423841059603	30.8203973509934	13.0376158940397	-0.194701986754968			
87	1960	-0.136158940397351	0.242754966887417	-1.04752317880795	-13.1266225165563	71.8153642384106	36.8950993377483				0	0	0	0	0	0				0	0	0	0	0	0				0.512529801324503	-0.336529801324503	-1.22172185430464	52.6029139072848	34.3435761589404	19.5443708609272				1.25202649006623	0.227496688741722	0.389933774834437	6.6717880794702	-3.58807947019868	-5.37748344370861				0.319788079470199	-0.494834437086093	-1.06023841059603	21.0203973509934	27.5976158940397	0.645298013245032			
88	2080	0	0	0	0	0	0				0	0	0	0	0	0				0	0	0	0	0	0				0	0	0	0	0	0				1.17202649006623	0.131496688741722	0.469933774834437	-3.1282119205298	22.1719205298013	-12.0974834437086				0	0	0	0	0	0			
89	2100	0	0	0	0	0	0				1.05695364238411	0.0957880794701987	0.573139072847682	-5.16609271523179	8.98781456953643	0.81403973509934				0.213827814569536	0.0307284768211921	-0.93594701986755	2.80741721854305	121.106490066225	8.75973509933775				0.640529801324503	-0.144529801324503	-1.01372185430464	26.2829139072848	60.6635761589404	17.5843708609272				1.18802649006623	0.0834966887417219	0.517933774834437	-6.4882119205298	19.9319205298013	-9.85748344370861				0.351788079470199	-0.510834437086093	-0.948238410596026	-17.0596026490066	64.2776158940397	-6.07470198675497			
90	2120	0.439841059602649	0.130754966887417	-0.967523178807947	26.0733774834437	132.855364238411	7.77509933774834				1.04095364238411	-0.000211920529801304	0.669139072847682	0.993907284768212	-8.09218543046358	-8.14596026490066				0.213827814569536	-0.0492715231788079	-0.90394701986755	7.84741721854305	121.386490066225	11.8397350993378				0.704529801324503	-0.240529801324503	-0.997721854304636	13.4029139072848	55.0635761589404	15.0643708609272				1.09202649006623	0.163496688741722	0.485933774834437	-14.3282119205298	15.4519205298013	-7.89748344370861				0.463788079470199	-0.446834437086093	-1.04423841059603	-43.3796026490066	76.5976158940397	-10.834701986755			
91	2140	0.487841059602649	0.146754966887417	-0.919523178807947	21.8733774834437	142.375364238411	4.41509933774834				1.07295364238411	-0.128211920529801	0.653139072847682	-24.4860927152318	4.78781456953642	-13.1859602649007				0.261827814569536	-0.0812715231788079	-0.87194701986755	-4.75258278145695	124.186490066225	12.9597350993378				0.704529801324503	-0.224529801324503	-0.949721854304636	-1.43708609271523	47.7835761589404	11.7043708609272				1.04402649006623	0.131496688741722	0.437933774834437	-10.4082119205298	13.4919205298013	-8.73748344370861				0.495788079470199	-0.366834437086093	-1.02823841059603	-40.2996026490066	78.8376158940397	-9.71470198675497			
92	2160	0.455841059602649	0.162754966887417	-0.855523178807947	16.2733774834437	144.615364238411	5.81509933774834				1.10495364238411	0.0797880794701987	0.573139072847682	-5.44609271523179	35.3078145695364	-0.30596026490066				0.357827814569536	-0.00127152317880793	-0.80794701986755	-10.352582781457	124.746490066225	11.5597350993378				0.656529801324503	-0.160529801324503	-0.869721854304636	-3.11708609271523	44.9835761589404	4.70437086092715				1.04402649006623	0.115496688741722	0.421933774834437	-5.9282119205298	10.1319205298013	-6.77748344370861				0.495788079470199	-0.334834437086093	-0.916238410596027	-32.7396026490066	75.4776158940397	-5.79470198675497			
93	2180	0.487841059602649	0.114754966887417	-0.823523178807947	13.4733774834437	143.215364238411	8.61509933774835				0.912953642384106	0.159788079470199	0.445139072847682	56.9939072847682	-10.0521854304636	-2.82596026490066				0.357827814569536	0.142728476821192	-0.85594701986755	1.12741721854305	126.146490066225	7.07973509933775				0.560529801324503	-0.128529801324503	-0.805721854304636	4.44291390728477	44.1435761589404	5.54437086092715				0.996026490066225	0.147496688741722	0.421933774834437	-8.4482119205298	9.85192052980133	-3.69748344370861				0.479788079470199	-0.318834437086093	-0.900238410596026	-20.9796026490066	62.0376158940397	-8.87470198675497			
94	2200	0.615841059602649	0.0347549668874172	-0.775523178807947	12.0733774834437	139.015364238411	8.89509933774834				0.816953642384106	0.0797880794701987	0.461139072847682	44.3939072847682	-42.5321854304636	-12.0659602649007				0.357827814569536	0.126728476821192	-0.72794701986755	6.16741721854305	127.826490066225	6.51973509933775				0.512529801324503	-0.0965298013245033	-0.757721854304636	10.6029139072848	44.9835761589404	4.70437086092715				0.884026490066225	0.115496688741722	0.373933774834437	-1.7282119205298	11.8119205298013	-2.57748344370861				0.431788079470199	-0.334834437086093	-0.820238410596026	-0.539602649006623	53.3576158940397	-9.99470198675497			
95	2220	0.567841059602649	0.0187549668874172	-0.759523178807947	0.313377483443709	129.495364238411	10.5750993377483				0.800953642384106	-0.0962119205298013	0.589139072847682	18.3539072847682	-40.5721854304636	-13.4659602649007				0.421827814569536	0.0947284768211921	-0.72794701986755	13.167417218543	127.826490066225	2.59973509933775				0.544529801324503	-0.176529801324503	-0.725721854304636	7.52291390728477	41.3435761589404	6.66437086092715				0.836026490066225	0.115496688741722	0.357933774834437	-3.1282119205298	2.85192052980133	-7.89748344370861				0.415788079470199	-0.302834437086093	-0.788238410596027	2.54039735099338	42.9976158940397	-7.19470198675497			
96	2240	0.471841059602649	0.0827549668874172	-0.711523178807947	-3.60662251655629	124.175364238411	12.8150993377483				0.816953642384106	-0.176211920529801	0.429139072847682	18.9139072847682	-43.3721854304636	-6.18596026490066				0.469827814569536	0.0307284768211921	-0.67994701986755	10.927417218543	129.786490066225	-2.72026490066225				0.544529801324503	-0.144529801324503	-0.693721854304636	11.1629139072848	34.6235761589404	2.46437086092715				0.820026490066225	0.0834966887417219	0.341933774834437	-5.3682119205298	-1.34807947019868	-5.93748344370861				0.383788079470199	-0.254834437086093	-0.708238410596026	-13.9796026490066	43.5576158940397	-6.07470198675497			
97	2260	0.423841059602649	0.0667549668874172	-0.679523178807947	3.67337748344371	120.535364238411	11.6950993377483				0.816953642384106	0.207788079470199	0.0611390728476822	31.7939072847682	-53.4521854304636	-5.34596026490066				0.501827814569536	-0.00127152317880793	-0.64794701986755	-1.39258278145695	132.306490066225	-8.04026490066225				0.448529801324503	-0.112529801324503	-0.597721854304636	11.1629139072848	27.6235761589404	1.06437086092715				0.804026490066225	0.0194966887417219	0.293933774834437	-8.1682119205298	-13.1080794701987	0.222516556291392				0.399788079470199	-0.142834437086093	-0.660238410596027	-34.6996026490066	48.3176158940397	-9.99470198675497			
98	2280	0.503841059602649	0.0187549668874172	-0.631523178807947	-3.32662251655629	119.135364238411	10.8550993377483				0.800953642384106	0.351788079470199	0.0931390728476822	55.3139072847682	-66.8921854304636	4.45403973509934				0.405827814569536	0.0787284768211921	-0.67994701986755	-3.35258278145695	131.186490066225	-16.7202649006623				0.416529801324503	-0.144529801324503	-0.549721854304636	10.3229139072848	20.9035761589404	3.58437086092715				0.724026490066225	0.0994966887417219	0.245933774834437	-20.2082119205298	-23.4680794701987	-1.17748344370861				0.399788079470199	-0.0948344370860927	-0.660238410596027	-29.0996026490066	40.1976158940397	-21.474701986755			
99	2300	0.583841059602649	0.0987549668874172	-0.599523178807947	-6.40662251655629	117.735364238411	9.45509933774835				0.688953642384106	0.0637880794701987	0.381139072847682	33.1939072847682	-91.2521854304636	1.93403973509934				0.373827814569536	0.126728476821192	-0.63194701986755	4.20741721854305	132.026490066225	-14.7602649006622				0.432529801324503	-0.112529801324503	-0.597721854304636	13.9629139072848	15.5835761589404	4.42437086092715				0.628026490066225	0.211496688741722	0.213933774834437	-29.1682119205298	-21.7880794701987	-5.93748344370861				0.383788079470199	-0.174834437086093	-0.612238410596026	-18.4596026490066	28.7176158940397	-22.874701986755			
100	2320	0.599841059602649	0.114754966887417	-0.551523178807947	-3.88662251655629	116.055364238411	11.1350993377483				0.640953642384106	-0.192211920529801	0.333139072847682	14.4339072847682	-90.9721854304636	2.21403973509934				0.421827814569536	0.0947284768211921	-0.59994701986755	11.207417218543	131.466490066225	-16.1602649006623				0.448529801324503	-0.0645298013245033	-0.581721854304636	20.1229139072848	17.5435761589404	-2.85562913907285				0.644026490066225	0.195496688741722	0.245933774834437	-9.8482119205298	-8.62807947019868	-4.81748344370861				0.367788079470199	-0.142834437086093	-0.532238410596027	-27.6996026490066	34.5976158940397	-20.354701986755			
101	2340	0.599841059602649	0.0347549668874172	-0.615523178807947	-1.08662251655629	113.255364238411	15.0550993377483				0.688953642384106	-0.0802119205298013	0.205139072847682	16.3939072847682	-66.3321854304636	-6.74596026490066				0.469827814569536	0.0467284768211921	-0.56794701986755	3.92741721854305	134.266490066225	-23.4402649006623				0.416529801324503	-0.128529801324503	-0.517721854304636	19.8429139072848	19.5035761589404	-6.49562913907285				0.692026490066225	0.0514966887417219	0.261933774834437	9.7517880794702	-6.94807947019868	2.46251655629139				0.303788079470199	-0.0628344370860927	-0.580238410596026	-41.9796026490066	41.0376158940397	-22.874701986755			
102	2360	0.551841059602649	0.0667549668874172	-0.567523178807947	-3.88662251655629	116.335364238411	16.4550993377483				0.816953642384106	0.207788079470199	0.221139072847682	34.3139072847682	-80.3321854304636	-10.3859602649007				0.517827814569536	0.0627284768211921	-0.53594701986755	6.16741721854305	125.306490066225	-24.8402649006623				0.352529801324503	-0.176529801324503	-0.453721854304636	4.72291390728477	13.6235761589404	0.784370860927152				0.644026490066225	-0.0125033112582781	0.213933774834437	0.231788079470198	-15.3480794701987	6.38251655629139				0.303788079470199	-0.0308344370860927	-0.676238410596026	-15.3796026490066	25.9176158940397	-29.034701986755			
103	2380	0.535841059602649	0.146754966887417	-0.503523178807947	0.0333774834437086	112.975364238411	11.6950993377483				0.800953642384106	0.159788079470199	0.109139072847682	43.8339072847682	-103.292185430464	-6.18596026490066				0.549827814569536	-0.0172715231788079	-0.45594701986755	5.04741721854305	123.346490066225	-21.4802649006623				0.288529801324503	-0.112529801324503	-0.453721854304636	10.3229139072848	11.3835761589404	8.34437086092715				0.628026490066225	0.0514966887417219	0.213933774834437	-15.4482119205298	-19.2680794701987	2.74251655629139				0.319788079470199	-0.126834437086093	-0.676238410596026	11.2203973509934	8.83761589403974	-29.034701986755			
104	2400	0.583841059602649	0.242754966887417	-0.455523178807947	6.47337748344371	109.615364238411	6.93509933774835				0.560953642384106	-0.0482119205298013	0.0611390728476822	34.5939072847682	-89.2921854304636	-3.94596026490066				0.549827814569536	0.0147284768211921	-0.53594701986755	2.52741721854305	125.866490066225	-19.2402649006623				0.272529801324503	-0.0965298013245033	-0.517721854304636	38.8829139072848	19.2235761589404	6.38437086092715				0.644026490066225	0.0994966887417219	0.181933774834437	-20.4882119205298	-19.8280794701987	0.502516556291392				0.287788079470199	-0.222834437086093	-0.564238410596026	-0.539602649006623	13.0376158940397	-21.474701986755			
105	2420	0.647841059602649	0.178754966887417	-0.455523178807947	17.9533774834437	107.095364238411	8.89509933774834				0.480953642384106	-0.000211920529801304	0.0291390728476822	17.7939072847682	-74.4521854304636	-7.30596026490066				0.549827814569536	-0.0492715231788079	-0.55194701986755	15.407417218543	118.866490066225	-22.8802649006623				0.304529801324503	-0.224529801324503	-0.549721854304636	47.5629139072848	28.7435761589404	3.02437086092715				0.628026490066225	0.0834966887417219	0.101933774834437	-7.8882119205298	-17.0280794701987	6.10251655629139				0.271788079470199	-0.158834437086093	-0.500238410596026	-29.0996026490066	32.9176158940397	-14.474701986755			
106	2440	0.727841059602649	0.0827549668874172	-0.487523178807947	12.9133774834437	104.575364238411	6.37509933774834				0.608953642384106	0.143788079470199	0.0451390728476822	14.1539072847682	-62.1321854304636	-5.34596026490066				0.661827814569536	-0.0492715231788079	-0.48794701986755	0.00741721854304636	118.866490066225	-24.5602649006623				0.304529801324503	-0.320529801324503	-0.549721854304636	25.7229139072848	20.9035761589404	1.90437086092715				0.628026490066225	-0.0445033112582781	0.0539337748344371	5.8317880794702	-9.18807947019868	7.78251655629139				0.287788079470199	-0.0468344370860927	-0.596238410596026	-24.3396026490066	21.7176158940397	-15.034701986755			
107	2460	0.759841059602649	0.114754966887417	-0.439523178807947	11.5133774834437	98.4153642384106	1.05509933774834				0.784953642384106	0.127788079470199	0.0931390728476822	18.0739072847682	-36.9321854304636	-5.34596026490066				0.661827814569536	-0.0812715231788079	-0.43994701986755	-15.672582781457	104.586490066225	-18.1202649006623				0.288529801324503	-0.224529801324503	-0.565721854304636	14.2429139072848	8.5835761589404	4.98437086092715				0.628026490066225	0.00349668874172187	0.149933774834437	-16.8482119205298	-6.94807947019868	1.34251655629139				0.319788079470199	-0.0308344370860927	-0.708238410596026	-3.89960264900662	-0.682384105960265	-18.954701986755			
108	2480	0.727841059602649	0.162754966887417	-0.471523178807947	13.7533774834437	86.0953642384106	-3.14490066225166				0.656953642384106	0.0157880794701987	0.125139072847682	37.9539072847682	-58.7721854304636	-9.82596026490066				0.645827814569536	-0.145271523178808	-0.45594701986755	-17.352582781457	93.3864900662252	-8.88026490066225				0.336529801324503	-0.160529801324503	-0.581721854304636	22.0829139072848	6.9035761589404	2.18437086092715				0.692026490066225	0.0994966887417219	0.133933774834437	-21.0482119205298	-17.0280794701987	3.02251655629139				0.271788079470199	-0.0948344370860927	-0.596238410596026	-1.65960264900662	6.03761589403974	-14.754701986755			
109	2500	0.711841059602649	0.178754966887417	-0.487523178807947	21.8733774834437	79.3753642384106	-2.58490066225166				0.512953642384106	0.0957880794701987	0.0451390728476822	32.3539072847682	-56.5321854304636	-14.0259602649007				0.741827814569536	-0.0972715231788079	-0.50394701986755	-12.312582781457	86.1064900662252	-4.12026490066225				0.352529801324503	-0.224529801324503	-0.533721854304636	24.6029139072848	9.1435761589404	-3.97562913907285				0.692026490066225	0.0354966887417219	0.101933774834437	-3.4082119205298	-17.8680794701987	5.82251655629139				0.207788079470199	-0.0468344370860927	-0.564238410596026	-11.4596026490066	17.5176158940397	-12.514701986755			
110	2520	0.727841059602649	0.0667549668874172	-0.455523178807947	20.4733774834437	71.2553642384106	-0.904900662251656				0.608953642384106	0.175788079470199	0.0451390728476822	23.9539072847682	-35.5321854304636	-15.7059602649007				0.869827814569536	-0.0492715231788079	-0.55194701986755	-13.712582781457	66.7864900662252	1.75973509933775				0.304529801324503	-0.256529801324503	-0.517721854304636	17.6029139072848	6.9035761589404	-7.89562913907285				0.628026490066225	0.00349668874172187	0.0859337748344371	-4.5282119205298	-15.3480794701987	4.98251655629139				0.191788079470199	0.0331655629139073	-0.660238410596027	-1.65960264900662	9.39761589403974	-18.954701986755			
111	2540	0.775841059602649	0.0187549668874172	-0.407523178807947	29.9933774834437	62.2953642384106	1.05509933774834				0.752953642384106	0.0477880794701987	0.0451390728476822	20.3139072847682	-16.2121854304636	-12.0659602649007				0.853827814569536	-0.0812715231788079	-0.47194701986755	-12.312582781457	50.2664900662252	11.2797350993378				0.336529801324503	-0.192529801324503	-0.597721854304636	19.0029139072848	3.2635761589404	-10.9756291390728				0.644026490066225	0.0834966887417219	0.0859337748344371	-9.0082119205298	-12.8280794701987	3.86251655629139				0.303788079470199	-0.0308344370860927	-0.692238410596026	7.02039735099338	2.11761589403974	-24.274701986755			
112	2560	0.823841059602649	-0.0932450331125828	-0.423523178807947	19.3533774834437	53.3353642384106	1.89509933774834				0.784953642384106	0.0477880794701987	0.0931390728476822	20.8739072847682	-5.85218543046358	-12.0659602649007				0.853827814569536	-0.0652715231788079	-0.50394701986755	-16.232582781457	39.9064900662252	16.3197350993378				0.432529801324503	-0.224529801324503	-0.597721854304636	30.2029139072848	12.7835761589404	-10.4156291390728				0.756026490066225	0.131496688741722	0.149933774834437	10.8717880794702	-11.9880794701987	6.38251655629139				0.367788079470199	-0.0628344370860927	-0.644238410596026	-2.21960264900662	16.1176158940397	-26.234701986755			
113	2580	0.823841059602649	-0.0772450331125828	-0.407523178807947	8.43337748344371	42.4153642384106	4.97509933774835				0.832953642384106	0.111788079470199	0.0931390728476822	11.0739072847682	-11.7321854304636	-11.5059602649007				0.885827814569536	-0.0332715231788079	-0.47194701986755	-17.912582781457	25.3464900662252	16.5997350993378				0.480529801324503	-0.336529801324503	-0.613721854304636	33.5629139072848	20.0635761589404	-9.01562913907285				0.804026490066225	0.0514966887417219	0.149933774834437	19.2717880794702	-6.94807947019868	6.38251655629139				0.383788079470199	-0.0308344370860927	-0.596238410596026	-9.49960264900662	27.5976158940397	-25.394701986755			
114	2600	0.823841059602649	-0.0452450331125828	-0.407523178807947	5.91337748344371	39.3353642384106	6.37509933774834				0.880953642384106	0.143788079470199	0.0771390728476822	2.67390728476821	-8.93218543046358	-12.6259602649007				0.885827814569536	0.0627284768211921	-0.40794701986755	-16.792582781457	15.2664900662252	15.4797350993378				0.464529801324503	-0.304529801324503	-0.661721854304636	27.4029139072848	19.2235761589404	-12.0956291390728				0.788026490066225	0.0514966887417219	0.197933774834437	12.5517880794702	-3.02807947019868	3.02251655629139				0.383788079470199	-0.0628344370860927	-0.628238410596026	-0.819602649006623	23.1176158940397	-29.034701986755			
115	2620	0.871841059602649	-0.0452450331125828	-0.423523178807947	-0.526622516556291	34.5753642384106	9.17509933774834				0.928953642384106	0.0797880794701987	0.125139072847682	-0.126092715231788	-2.49218543046358	-9.82596026490066				0.885827814569536	0.110728476821192	-0.39194701986755	-11.752582781457	7.98649006622517	9.59973509933775				0.512529801324503	-0.288529801324503	-0.725721854304636	24.3229139072848	18.1035761589404	-8.45562913907285				0.820026490066225	0.0994966887417219	0.261933774834437	11.1517880794702	-3.86807947019868	0.222516556291392				0.495788079470199	-0.126834437086093	-0.676238410596026	-3.05960264900662	23.6776158940397	-32.954701986755			
116	2640	0.919841059602649	-0.0132450331125828	-0.423523178807947	4.23337748344371	28.9753642384106	6.37509933774834				0.992953642384106	0.0317880794701987	0.125139072847682	-0.406092715231788	-2.77218543046358	-2.82596026490066				0.885827814569536	0.110728476821192	-0.34394701986755	0.287417218543046	6.30649006622517	0.0797350993377501				0.624529801324503	-0.384529801324503	-0.773721854304636	26.8429139072848	15.8635761589404	-3.13562913907285				0.948026490066225	0.115496688741722	0.277933774834437	15.9117880794702	-9.18807947019868	-0.617483443708608				0.639788079470199	-0.158834437086093	-0.788238410596027	-12.0196026490066	25.0776158940397	-27.914701986755			
117	2660	0.887841059602649	0.0347549668874172	-0.375523178807947	0.593377483443709	26.4553642384106	1.33509933774834				1.00895364238411	0.0957880794701987	0.0771390728476822	2.67390728476821	-10.8921854304636	-0.86596026490066				0.853827814569536	0.0787284768211921	-0.34394701986755	2.52741721854305	6.86649006622517	-4.68026490066225				0.624529801324503	-0.448529801324503	-0.789721854304636	11.7229139072848	8.3035761589404	-2.85562913907285				0.996026490066225	0.0194966887417219	0.213933774834437	16.4717880794702	-2.46807947019868	-0.337483443708608				0.703788079470199	-0.158834437086093	-0.772238410596026	-11.1796026490066	21.1576158940397	-22.034701986755			
118	2680	0.919841059602649	0.0667549668874172	-0.279523178807947	2.55337748344371	24.2153642384106	-0.624900662251656				0.992953642384106	0.0637880794701987	0.0611390728476822	2.67390728476821	-6.69218543046358	0.81403973509934				0.837827814569536	0.0467284768211921	-0.34394701986755	3.08741721854305	10.2264900662252	-6.36026490066225				0.592529801324503	-0.384529801324503	-0.757721854304636	-7.87708609271523	2.1435761589404	-2.29562913907285				0.964026490066225	0.0194966887417219	0.293933774834437	2.4717880794702	2.85192052980133	-1.73748344370861				0.687788079470199	-0.190834437086093	-0.772238410596026	-8.93960264900662	15.2776158940397	-16.434701986755			
119	2700	0.887841059602649	0.0827549668874172	-0.215523178807947	3.67337748344371	18.6153642384106	2.45509933774835				0.960953642384106	0.0797880794701987	0.0611390728476822	1.83390728476821	-6.13218543046358	-0.585960264900661				0.853827814569536	-0.00127152317880793	-0.37594701986755	3.92741721854305	11.6264900662252	-6.92026490066225				0.560529801324503	-0.272529801324503	-0.677721854304636	-8.99708609271523	0.4635761589404	-1.73562913907285				0.980026490066225	0.0354966887417219	0.325933774834437	-2.0082119205298	-1.34807947019868	-2.01748344370861				0.687788079470199	-0.222834437086093	-0.788238410596027	-11.7396026490066	7.99761589403974	-12.514701986755			
120	2720	0.967841059602649	0.0187549668874172	-0.311523178807947	4.51337748344371	21.4153642384106	3.29509933774834				1.04095364238411	0.0637880794701987	0.0451390728476822	0.433907284768212	-7.25218543046358	1.65403973509934				0.885827814569536	-0.0172715231788079	-0.35994701986755	4.48741721854305	7.42649006622517	-6.64026490066225				0.560529801324503	-0.256529801324503	-0.677721854304636	-4.23708609271523	-0.3764238410596	-0.335629139072848				1.01202649006623	0.0354966887417219	0.261933774834437	-5.9282119205298	-7.78807947019868	-0.617483443708608				0.687788079470199	-0.174834437086093	-0.804238410596027	-12.2996026490066	4.35761589403974	-6.63470198675497			
121	2740	0.935841059602649	0.00275496688741723	-0.279523178807947	-4.44662251655629	20.0153642384106	-0.904900662251656				1.04095364238411	0.111788079470199	0.0131390728476822	-3.20609271523179	-13.1321854304636	-3.10596026490066				0.901827814569536	-0.0172715231788079	-0.34394701986755	0.00741721854304636	9.66649006622517	-3.00026490066225				0.576529801324503	-0.304529801324503	-0.661721854304636	3.60291390728477	1.3035761589404	1.62437086092715				0.996026490066225	0.0514966887417219	0.277933774834437	-11.8082119205298	-9.74807947019868	1.34251655629139				0.655788079470199	-0.110834437086093	-0.820238410596026	-11.7396026490066	3.23761589403974	-3.83470198675497			
122	2760	0.887841059602649	0.0507549668874172	-0.263523178807947	-4.44662251655629	20.0153642384106	-3.42490066225166				0.976953642384106	0.0957880794701987	0.0131390728476822	-2.36609271523179	-20.4121854304636	-5.62596026490066				0.885827814569536	-0.0332715231788079	-0.35994701986755	-3.07258278145695	7.70649006622517	0.91973509933775				0.608529801324503	-0.304529801324503	-0.645721854304636	3.88291390728477	3.8235761589404	1.06437086092715				0.964026490066225	0.0354966887417219	0.261933774834437	-14.6082119205298	-11.9880794701987	2.74251655629139				0.607788079470199	-0.0948344370860927	-0.788238410596027	-2.49960264900662	-0.682384105960265	-6.35470198675497			
123	2780	0.887841059602649	0.0667549668874172	-0.311523178807947	-0.526622516556291	16.6553642384106	-3.70490066225166				0.912953642384106	0.111788079470199	0.0291390728476822	1.27390728476821	-11.1721854304636	-11.7859602649007				0.869827814569536	-0.0652715231788079	-0.37594701986755	-3.07258278145695	9.94649006622517	2.59973509933775				0.608529801324503	-0.272529801324503	-0.645721854304636	3.60291390728477	4.1035761589404	-1.45562913907285				0.932026490066225	0.0514966887417219	0.245933774834437	-12.9282119205298	-13.6680794701987	5.26251655629139				0.607788079470199	-0.0788344370860927	-0.804238410596027	-3.89960264900662	-0.402384105960265	-8.03470198675497			
124	2800	0.919841059602649	0.0507549668874172	-0.327523178807947	-3.60662251655629	18.6153642384106	-2.02490066225166				0.944953642384106	0.111788079470199	-0.0188609271523178	6.59390728476821	-10.3321854304636	-15.1459602649007				0.869827814569536	-0.0332715231788079	-0.37594701986755	-6.99258278145695	6.30649006622517	3.15973509933775				0.608529801324503	-0.256529801324503	-0.661721854304636	8.92291390728477	-0.3764238410596	-0.0556291390728476				0.916026490066225	0.0994966887417219	0.229933774834437	-11.8082119205298	-15.9080794701987	7.22251655629139				0.559788079470199	-0.0628344370860927	-0.772238410596026	-2.21960264900662	0.717615894039735	-5.23470198675497			
125	2820	0.919841059602649	0.0187549668874172	-0.327523178807947	3.67337748344371	18.8953642384106	-0.0649006622516557				1.04095364238411	0.159788079470199	0.0291390728476822	0.153907284768212	-11.7321854304636	-14.0259602649007				0.885827814569536	0.0147284768211921	-0.37594701986755	-14.832582781457	5.46649006622517	2.03973509933775				0.624529801324503	-0.304529801324503	-0.677721854304636	11.4429139072848	-2.3364238410596	2.18437086092715				0.932026490066225	0.115496688741722	0.213933774834437	-9.2882119205298	-19.5480794701987	7.50251655629139				0.543788079470199	-0.0308344370860927	-0.740238410596026	-5.01960264900662	0.437615894039735	-3.27470198675497			
126	2840	0.903841059602649	-0.0292450331125828	-0.311523178807947	1.99337748344371	18.8953642384106	-0.624900662251656				1.00895364238411	0.191788079470199	0.0771390728476822	-8.24609271523179	-19.5721854304636	-9.26596026490066				0.901827814569536	0.0787284768211921	-0.39194701986755	-13.712582781457	5.46649006622517	2.03973509933775				0.592529801324503	-0.368529801324503	-0.693721854304636	5.84291390728477	-0.0964238410596001	-0.0556291390728476				0.916026490066225	0.0834966887417219	0.181933774834437	-5.9282119205298	-17.0280794701987	6.38251655629139				0.527788079470199	0.00116556291390731	-0.740238410596026	2.26039735099338	-4.04238410596027	-5.51470198675497			
127	2860	0.919841059602649	0.0187549668874172	-0.263523178807947	-1.64662251655629	13.0153642384106	-2.86490066225166				0.944953642384106	0.159788079470199	0.0611390728476822	-11.8860927152318	-20.6921854304636	-4.78596026490066				0.853827814569536	0.0787284768211921	-0.39194701986755	-6.43258278145695	3.22649006622517	0.0797350993377501				0.560529801324503	-0.352529801324503	-0.709721854304636	5.56291390728477	1.3035761589404	-0.615629139072848				0.932026490066225	0.0834966887417219	0.165933774834437	-5.6482119205298	-11.7080794701987	3.86251655629139				0.543788079470199	-0.0148344370860927	-0.772238410596026	0.580397350993377	-5.16238410596027	-9.43470198675497			
128	2880	0.919841059602649	0.0827549668874172	-0.279523178807947	-8.08662251655629	4.3353642384106	-1.74490066225166				0.880953642384106	0.191788079470199	0.0131390728476822	1.55390728476821	-20.6921854304636	-8.42596026490066				0.853827814569536	0.0627284768211921	-0.37594701986755	-5.03258278145695	3.78649006622517	-0.76026490066225				0.560529801324503	-0.320529801324503	-0.725721854304636	8.92291390728477	1.8635761589404	-0.0556291390728476				0.932026490066225	0.0994966887417219	0.181933774834437	-5.9282119205298	-8.90807947019868	2.46251655629139				0.527788079470199	-0.0308344370860927	-0.724238410596026	3.10039735099338	-2.64238410596027	-9.71470198675497			
129	2900	0.919841059602649	0.0827549668874172	-0.231523178807947	0.0333774834437086	4.8953642384106	0.495099337748344				0.976953642384106	0.191788079470199	-0.00286092715231785	9.39390728476821	-12.8521854304636	-5.34596026490066				0.885827814569536	0.0467284768211921	-0.40794701986755	2.80741721854305	6.02649006622517	-1.04026490066225				0.608529801324503	-0.352529801324503	-0.725721854304636	6.12291390728477	-0.6564238410596	1.34437086092715				0.900026490066225	0.0834966887417219	0.165933774834437	-4.2482119205298	-10.8680794701987	1.62251655629139				0.495788079470199	-0.0148344370860927	-0.708238410596026	1.14039735099338	-2.92238410596027	-9.99470198675497			
130	2920	0.935841059602649	0.0507549668874172	-0.247523178807947	6.47337748344371	9.0953642384106	0.775099337748344				0.992953642384106	0.159788079470199	-0.0188609271523178	2.11390728476821	-12.2921854304636	-1.14596026490066				0.901827814569536	0.0467284768211921	-0.39194701986755	-0.272582781456954	5.18649006622517	-1.04026490066225				0.528529801324503	-0.320529801324503	-0.725721854304636	-4.79708609271523	-3.1764238410596	-0.895629139072848				0.916026490066225	0.0834966887417219	0.133933774834437	-4.2482119205298	-8.90807947019868	0.502516556291392				0.495788079470199	-0.0308344370860927	-0.756238410596026	-2.77960264900662	-1.52238410596026	-9.71470198675497			
131	2940	0.935841059602649	0.0507549668874172	-0.279523178807947	7.31337748344371	9.0953642384106	-1.74490066225166				0.960953642384106	0.159788079470199	-0.0188609271523178	-7.40609271523179	-17.8921854304636	0.25403973509934				0.885827814569536	0.0467284768211921	-0.39194701986755	-0.832582781456954	3.78649006622517	-2.16026490066225				0.496529801324503	-0.304529801324503	-0.709721854304636	-6.47708609271523	-2.8964238410596	-2.29562913907285				0.964026490066225	0.0674966887417219	0.149933774834437	-3.6882119205298	-4.70807947019868	0.782516556291392				0.495788079470199	0.00116556291390731	-0.788238410596027	-6.69960264900662	1.27761589403974	-9.99470198675497			
132	2960	0.919841059602649	0.0827549668874172	-0.263523178807947	1.43337748344371	4.0553642384106	-4.54490066225166				0.928953642384106	0.223788079470199	-0.0668609271523178	-5.72609271523179	-24.3321854304636	-3.38596026490066				0.853827814569536	0.0307284768211921	-0.37594701986755	0.287417218543046	3.78649006622517	-1.04026490066225				0.528529801324503	-0.336529801324503	-0.709721854304636	2.76291390728477	-0.3764238410596	-0.895629139072848				0.964026490066225	0.0674966887417219	0.101933774834437	-0.608211920529802	-2.46807947019868	0.502516556291392				0.527788079470199	0.0171655629139073	-0.820238410596026	-1.93960264900662	5.47761589403974	-8.31470198675497			
133	2980	0	0	0	0	0	0				0	0	0	0	0	0				0	0	0	0	0	0				0.544529801324503	-0.368529801324503	-0.709721854304636	1.36291390728477	1.0235761589404	1.62437086092715				0	0	0	0	0	0				0	0	0	0	0	0			
134	3100	0	0	0	0	0	0				0	0	0	0	0	0				0.901827814569536	0.0307284768211921	-0.37594701986755	3.36741721854305	0.426490066225167	-1.04026490066225				0	0	0	0	0	0				0.964026490066225	0.0194966887417219	0.149933774834437	-5.0882119205298	-0.788079470198675	1.06251655629139				0.559788079470199	-0.0628344370860927	-0.788238410596027	-0.539602649006623	1.27761589403974	11.005298013245			
135	3120	0.935841059602649	0.0347549668874172	-0.263523178807947	-1.92662251655629	4.3353642384106	-1.18490066225166				0.992953642384106	0.143788079470199	-0.0828609271523179	-9.92609271523179	1.14781456953642	0.81403973509934				0.869827814569536	0.0307284768211921	-0.37594701986755	-2.51258278145695	0.146490066225167	-0.48026490066225				0.560529801324503	-0.368529801324503	-0.725721854304636	-0.597086092715232	6.3435761589404	9.46437086092715				0.964026490066225	0.0354966887417219	0.149933774834437	-7.0482119205298	-0.228079470198675	1.34251655629139				0.575788079470199	-0.0468344370860927	-0.756238410596026	-1.65960264900662	2.67761589403974	11.285298013245			
136	3140	0.919841059602649	0.0347549668874172	-0.279523178807947	-6.40662251655629	3.7753642384106	-2.30490066225166				0.976953642384106	0.143788079470199	-0.0508609271523178	-7.68609271523179	-1.93218543046358	0.53403973509934				0.869827814569536	0.0467284768211921	-0.35994701986755	-5.31258278145695	1.82649006622517	0.0797350993377501				0.592529801324503	-0.368529801324503	-0.709721854304636	-3.39708609271523	6.3435761589404	7.78437086092715				0.964026490066225	0.0354966887417219	0.165933774834437	-6.2082119205298	0.0519205298013249	1.62251655629139				0.575788079470199	-0.0308344370860927	-0.772238410596026	-1.37960264900662	4.07761589403974	9.32529801324503			
137	3160	0.935841059602649	0.0667549668874172	-0.263523178807947	-6.96662251655629	4.0553642384106	-1.74490066225166				0.976953642384106	0.175788079470199	-0.0508609271523178	-5.44609271523179	-0.532185430463576	-1.42596026490066				0.901827814569536	0.0467284768211921	-0.35994701986755	-5.31258278145695	0.986490066225167	0.63973509933775				0.592529801324503	-0.320529801324503	-0.693721854304636	-2.27708609271523	6.3435761589404	6.94437086092715				0.964026490066225	0.0514966887417219	0.149933774834437	-6.7682119205298	-0.508079470198675	0.502516556291392				0.543788079470199	-0.0308344370860927	-0.756238410596026	0.300397350993377	3.79761589403974	7.64529801324503			
138	3180	0.935841059602649	0.0507549668874172	-0.263523178807947	-5.56662251655629	6.2953642384106	-0.904900662251656				0.976953642384106	0.207788079470199	-0.0348609271523178	-6.56609271523179	0.587814569536424	-2.26596026490066				0.901827814569536	0.0307284768211921	-0.39194701986755	-3.63258278145695	0.146490066225167	0.0797350993377501				0.576529801324503	-0.320529801324503	-0.677721854304636	-0.0370860927152318	5.7835761589404	5.26437086092715				0.948026490066225	0.0514966887417219	0.165933774834437	-7.0482119205298	-3.02807947019868	0.782516556291392				0.527788079470199	-0.0308344370860927	-0.756238410596026	-3.61960264900662	2.95761589403974	6.80529801324503			
139	3200	0.919841059602649	0.0507549668874172	-0.247523178807947	-3.32662251655629	4.6153642384106	-0.904900662251656				0.976953642384106	0.159788079470199	-0.00286092715231785	-9.92609271523179	3.94781456953642	0.53403973509934				0.869827814569536	0.0307284768211921	-0.39194701986755	-6.43258278145695	0.146490066225167	0.91973509933775				0.592529801324503	-0.368529801324503	-0.693721854304636	0.242913907284768	4.6635761589404	5.82437086092715				0.932026490066225	0.0514966887417219	0.149933774834437	-6.7682119205298	-4.42807947019868	0.782516556291392				0.543788079470199	-0.0148344370860927	-0.788238410596027	-3.89960264900662	4.07761589403974	5.96529801324503			
140	3220	0.935841059602649	0.0507549668874172	-0.215523178807947	-3.04662251655629	4.6153642384106	-1.18490066225166				0.960953642384106	0.143788079470199	-0.0348609271523178	-4.04609271523179	5.62781456953642	3.33403973509934				0.869827814569536	0.0467284768211921	-0.39194701986755	-7.83258278145695	0.426490066225167	1.47973509933775				0.592529801324503	-0.368529801324503	-0.693721854304636	-0.597086092715232	3.8235761589404	5.26437086092715				0.948026490066225	0.0514966887417219	0.149933774834437	-1.7282119205298	0.611920529801325	0.222516556291392				0.559788079470199	0.00116556291390731	-0.788238410596027	0.300397350993377	3.79761589403974	3.72529801324503			
141	3240	0.951841059602649	0.0507549668874172	-0.231523178807947	-4.44662251655629	2.6553642384106	-1.74490066225166				0.992953642384106	0.191788079470199	-0.0668609271523178	3.51390728476821	-0.252185430463576	3.05403973509934				0.885827814569536	0.0787284768211921	-0.37594701986755	-7.55258278145695	0.426490066225167	1.19973509933775				0.608529801324503	-0.336529801324503	-0.677721854304636	-1.15708609271523	3.5435761589404	2.46437086092715				0.964026490066225	0.0514966887417219	0.149933774834437	-1.1682119205298	3.13192052980133	-0.337483443708608				0.543788079470199	-0.0308344370860927	-0.756238410596026	4.50039735099338	0.717615894039735	2.04529801324503			
142	3260	0.951841059602649	0.0507549668874172	-0.247523178807947	-3.88662251655629	1.2553642384106	-1.18490066225166				0.960953642384106	0.175788079470199	-0.0668609271523178	1.27390728476821	-2.77218543046358	0.53403973509934				0.885827814569536	0.0787284768211921	-0.39194701986755	-1.95258278145695	0.426490066225167	-0.20026490066225				0.592529801324503	-0.336529801324503	-0.661721854304636	-1.99708609271523	3.2635761589404	0.504370860927152				0.964026490066225	0.0514966887417219	0.165933774834437	-0.328211920529802	2.57192052980133	-0.897483443708608				0.527788079470199	-0.0788344370860927	-0.756238410596026	-0.819602649006623	2.67761589403974	1.76529801324503			
143	3280	0.919841059602649	0.0667549668874172	-0.231523178807947	0.593377483443709	1.2553642384106	-2.02490066225166				0.944953642384106	0.175788079470199	-0.0508609271523178	-2.92609271523179	2.54781456953642	-0.0259602649006601				0.869827814569536	0.0787284768211921	-0.39194701986755	1.12741721854305	-0.693509933774834	-1.32026490066225				0.576529801324503	-0.336529801324503	-0.677721854304636	-0.597086092715232	2.1435761589404	0.224370860927152				0.948026490066225	0.0514966887417219	0.181933774834437	-1.4482119205298	1.45192052980132	-0.897483443708608				0.543788079470199	-0.0628344370860927	-0.772238410596026	-3.05960264900662	4.63761589403974	2.60529801324503			
144	3300	0.935841059602649	0.0667549668874172	-0.199523178807947	0.873377483443709	1.8153642384106	-1.74490066225166				0.960953642384106	0.159788079470199	-0.0188609271523178	-1.52609271523179	6.18781456953642	1.93403973509934				0.869827814569536	0.0787284768211921	-0.39194701986755	3.92741721854305	0.706490066225167	-1.60026490066225				0.576529801324503	-0.336529801324503	-0.661721854304636	-2.83708609271523	1.8635761589404	-1.73562913907285				0.948026490066225	0.0514966887417219	0.149933774834437	0.791788079470198	1.45192052980132	-1.17748344370861				0.559788079470199	-0.0308344370860927	-0.756238410596026	-1.09960264900662	5.19761589403974	2.60529801324503			
145	3320	0.935841059602649	0.0507549668874172	-0.215523178807947	3.95337748344371	0.415364238410596	-1.18490066225166				0.976953642384106	0.127788079470199	-0.0188609271523178	4.91390728476821	4.78781456953642	0.53403973509934				0.885827814569536	0.0627284768211921	-0.40794701986755	5.88741721854305	-0.413509933774833	-3.00026490066225				0.592529801324503	-0.336529801324503	-0.661721854304636	2.20291390728477	2.9835761589404	-1.73562913907285				0.932026490066225	0.0514966887417219	0.197933774834437	1.3517880794702	5.93192052980133	-1.45748344370861				0.559788079470199	-0.0308344370860927	-0.756238410596026	2.54039735099338	3.79761589403974	-0.754701986754968			
