No	Time	12-AccX	12-AccY	12-AccZ	12-GyroX	12-GyroY	12-GyroZ	13-AccX	13-AccY	13-AccZ	13-GyroX	13-GyroY	13-GyroZ	14-AccX	14-AccY	14-AccZ	14-GyroX	14-GyroY	14-GyroZ	15-AccX	15-AccY	15-AccZ	15-GyroX	15-GyroY	15-GyroZ	16-AccX	16-AccY	16-AccZ	16-GyroX	16-GyroY	16-GyroZ	17-AccX	17-AccY	17-AccZ	17-GyroX	17-GyroY	17-GyroZ
0	100	-0.216158940397351	0.0987549668874172	-0.951523178807947	-1.92662251655629	0.695364238410596	-1.18490066225166				0.992953642384106	0.127788079470199	0.157139072847682	-3.20609271523179	-19.5721854304636	-5.90596026490066				-0.250172185430464	-0.0652715231788079	-0.90394701986755	-1.39258278145695	-0.413509933774833	0.91973509933775				0	0	0	0	0	0				0	0	0	0	0	0				0	0	0	0	0	0			
1	120	-0.200158940397351	0.114754966887417	-0.967523178807947	-2.48662251655629	-0.144635761589404	-0.344900662251656				1.00895364238411	0.127788079470199	0.157139072847682	5.75390728476821	-30.2121854304636	-4.78596026490066				-0.234172185430464	-0.0652715231788079	-0.90394701986755	-0.272582781456954	1.26649006622517	1.47973509933775				0.304529801324503	-0.128529801324503	-0.949721854304636	1.08291390728477	4.3835761589404	2.18437086092715				0.948026490066225	0.0834966887417219	0.277933774834437	-4.8082119205298	1.17192052980133	-3.97748344370861				0.239788079470199	-0.254834437086093	-0.900238410596026	-2.21960264900662	0.717615894039735	-4.95470198675497			
2	140	-0.200158940397351	0.114754966887417	-0.967523178807947	-1.08662251655629	0.975364238410596	0.775099337748344				0.976953642384106	0.127788079470199	0.125139072847682	11.0739072847682	-35.2521854304636	-2.82596026490066				-0.250172185430464	-0.0652715231788079	-0.90394701986755	0.567417218543046	2.38649006622517	0.0797350993377501				0.336529801324503	-0.0965298013245033	-0.933721854304636	-1.43708609271523	3.8235761589404	1.62437086092715				0.948026490066225	0.0994966887417219	0.293933774834437	-6.2082119205298	-0.228079470198675	-4.81748344370861				0.239788079470199	-0.270834437086093	-0.884238410596026	0.0203973509933773	1.27761589403974	-4.11470198675497			
3	160	-0.200158940397351	0.114754966887417	-0.951523178807947	0.0333774834437086	1.8153642384106	0.775099337748344				0.944953642384106	0.127788079470199	0.0131390728476822	14.7139072847682	-30.7721854304636	-3.38596026490066				-0.234172185430464	-0.0492715231788079	-0.88794701986755	0.567417218543046	2.66649006622517	0.35973509933775				0.336529801324503	-0.0645298013245033	-0.917721854304636	-3.39708609271523	0.4635761589404	1.90437086092715				0.916026490066225	0.0994966887417219	0.325933774834437	-8.7282119205298	-1.90807947019868	-4.53748344370861				0.255788079470199	-0.286834437086093	-0.884238410596026	-1.09960264900662	2.39761589403974	-2.71470198675497			
4	180	-0.200158940397351	0.114754966887417	-0.935523178807947	1.15337748344371	0.975364238410596	-0.0649006622516557				0.944953642384106	0.143788079470199	-0.0828609271523179	16.1139072847682	-21.5321854304636	-1.14596026490066				-0.234172185430464	-0.0652715231788079	-0.87194701986755	0.287417218543046	1.54649006622517	0.35973509933775				0.336529801324503	-0.0805298013245033	-0.933721854304636	-3.95708609271523	-1.7764238410596	-0.615629139072848				0.916026490066225	0.115496688741722	0.357933774834437	-10.4082119205298	-1.06807947019868	-3.97748344370861				0.255788079470199	-0.286834437086093	-0.868238410596026	-1.93960264900662	3.23761589403974	-1.31470198675497			
5	200	-0.200158940397351	0.114754966887417	-0.935523178807947	0.0333774834437086	0.695364238410596	-0.0649006622516557				0.944953642384106	0.143788079470199	-0.00286092715231785	17.5139072847682	-5.85218543046358	1.09403973509934				-0.234172185430464	-0.0652715231788079	-0.87194701986755	-1.11258278145695	1.26649006622517	-0.48026490066225				0.320529801324503	-0.0965298013245033	-0.981721854304636	-1.43708609271523	1.0235761589404	-0.895629139072848				0.932026490066225	0.131496688741722	0.341933774834437	-6.7682119205298	-3.30807947019868	-2.57748344370861				0.255788079470199	-0.270834437086093	-0.916238410596027	-3.33960264900662	1.83761589403974	-1.31470198675497			
6	220	-0.216158940397351	0.114754966887417	-0.919523178807947	-0.246622516556291	0.415364238410596	-0.904900662251656				0.976953642384106	0.143788079470199	-0.0668609271523178	18.6339072847682	-1.65218543046358	5.57403973509934				-0.234172185430464	-0.0652715231788079	-0.87194701986755	-1.67258278145695	-1.53350993377483	-0.76026490066225				0.352529801324503	-0.144529801324503	-0.933721854304636	-3.67708609271523	4.9435761589404	-1.73562913907285				0.948026490066225	0.0994966887417219	0.309933774834437	3.3117880794702	-4.98807947019868	-1.45748344370861				0.239788079470199	-0.254834437086093	-0.900238410596026	0.0203973509933773	2.11761589403974	-0.474701986754968			
7	240	-0.216158940397351	0.114754966887417	-0.935523178807947	0.313377483443709	-0.424635761589404	-1.74490066225166				0.992953642384106	0.159788079470199	-0.0828609271523179	9.39390728476821	7.58781456953643	4.17403973509934				-0.266172185430464	-0.0492715231788079	-0.87194701986755	-1.95258278145695	-2.37350993377483	0.0797350993377501				0.320529801324503	-0.0965298013245033	-0.869721854304636	-5.91708609271523	-2.0564238410596	-3.69562913907285				0.916026490066225	0.0994966887417219	0.293933774834437	-4.8082119205298	-1.34807947019868	-5.09748344370861				0.223788079470199	-0.270834437086093	-0.852238410596026	-2.49960264900662	2.11761589403974	1.76529801324503			
8	260	-0.216158940397351	0.0987549668874172	-0.919523178807947	1.15337748344371	-0.144635761589404	-2.02490066225166				0.976953642384106	0.143788079470199	-0.0668609271523178	6.87390728476821	2.26781456953642	3.89403973509934				-0.266172185430464	-0.0492715231788079	-0.87194701986755	0.567417218543046	-0.693509933774834	0.35973509933775				0.320529801324503	-0.0645298013245033	-0.885721854304636	-8.43708609271523	-5.4164238410596	-4.25562913907285				0.868026490066225	0.115496688741722	0.325933774834437	-5.3682119205298	0.611920529801325	-4.25748344370861				0.223788079470199	-0.254834437086093	-0.852238410596026	-3.89960264900662	0.437615894039735	4.28529801324503			
9	280	-0.216158940397351	0.0987549668874172	-0.935523178807947	-0.526622516556291	-0.424635761589404	-1.74490066225166				0.976953642384106	0.143788079470199	-0.0988609271523179	3.79390728476821	0.307814569536424	0.53403973509934				-0.250172185430464	-0.0332715231788079	-0.88794701986755	2.24741721854305	-1.53350993377483	0.63973509933775				0.320529801324503	-0.0805298013245033	-0.853721854304636	-4.79708609271523	-4.2964238410596	-0.895629139072848				0.884026490066225	0.0994966887417219	0.325933774834437	-0.888211920529802	0.0519205298013249	-2.85748344370861				0.239788079470199	-0.238834437086093	-0.868238410596026	-4.17960264900662	-1.80238410596026	2.04529801324503			
10	300	-0.216158940397351	0.0987549668874172	-0.967523178807947	-0.806622516556291	-0.424635761589404	-1.46490066225166				0.976953642384106	0.127788079470199	-0.146860927152318	-0.406092715231788	3.10781456953642	-0.86596026490066				-0.250172185430464	-0.0652715231788079	-0.88794701986755	3.08741721854305	0.986490066225167	1.75973509933775				0.336529801324503	-0.112529801324503	-0.885721854304636	-2.55708609271523	-3.4564238410596	1.34437086092715				0.932026490066225	0.0834966887417219	0.309933774834437	-2.5682119205298	-3.30807947019868	-2.85748344370861				0.255788079470199	-0.254834437086093	-0.868238410596026	-1.65960264900662	-1.80238410596026	-0.754701986754968			
11	320	-0.200158940397351	0.0827549668874172	-0.951523178807947	0.0333774834437086	0.415364238410596	-1.46490066225166				0.960953642384106	0.127788079470199	-0.0988609271523179	-10.2060927152318	16.2678145695364	-1.70596026490066				-0.234172185430464	-0.0652715231788079	-0.90394701986755	0.567417218543046	0.706490066225167	1.19973509933775				0.320529801324503	-0.0965298013245033	-0.917721854304636	-0.317086092715232	0.1835761589404	3.86437086092715				0.916026490066225	0.115496688741722	0.357933774834437	0.791788079470198	-0.788079470198675	-1.45748344370861				0.239788079470199	-0.254834437086093	-0.900238410596026	-0.819602649006623	1.55761589403974	-1.87470198675497			
12	340	-0.200158940397351	0.0827549668874172	-0.935523178807947	0.593377483443709	0.975364238410596	-0.904900662251656				0.992953642384106	0.143788079470199	0.0131390728476822	-13.0060927152318	19.0678145695364	-1.70596026490066				-0.234172185430464	-0.0492715231788079	-0.87194701986755	0.00741721854304636	-0.973509933774833	0.35973509933775				0.320529801324503	-0.0965298013245033	-0.917721854304636	5.28291390728477	2.7035761589404	4.42437086092715				0.948026490066225	0.0994966887417219	0.309933774834437	3.5917880794702	0.891920529801325	-0.617483443708608				0.239788079470199	-0.254834437086093	-0.900238410596026	0.0203973509933773	2.11761589403974	-3.83470198675497			
13	360	-0.200158940397351	0.0827549668874172	-0.935523178807947	-0.246622516556291	0.135364238410596	0.215099337748344				0.992953642384106	0.127788079470199	0.0931390728476822	-6.00609271523179	14.5878145695364	-1.42596026490066				-0.250172185430464	-0.0492715231788079	-0.88794701986755	0.567417218543046	-0.973509933774833	-0.48026490066225				0.336529801324503	-0.0965298013245033	-0.949721854304636	5.00291390728477	1.0235761589404	4.98437086092715				0.948026490066225	0.0994966887417219	0.293933774834437	3.3117880794702	0.611920529801325	-0.0574834437086077				0.239788079470199	-0.270834437086093	-0.900238410596026	-2.49960264900662	0.437615894039735	-5.23470198675497			
14	380	-0.216158940397351	0.0987549668874172	-0.951523178807947	-1.36662251655629	-1.2646357615894	-0.344900662251656				1.02495364238411	0.111788079470199	0.125139072847682	3.23390728476821	1.14781456953642	-0.0259602649006601				-0.250172185430464	-0.0652715231788079	-0.90394701986755	1.40741721854305	-1.81350993377483	-0.20026490066225				0.320529801324503	-0.0965298013245033	-0.965721854304636	-0.317086092715232	-0.6564238410596	4.42437086092715				0.932026490066225	0.115496688741722	0.309933774834437	3.5917880794702	-2.18807947019868	-0.0574834437086077				0.255788079470199	-0.286834437086093	-0.900238410596026	-0.539602649006623	-1.80238410596026	-3.27470198675497			
15	400	-0.216158940397351	0.0987549668874172	-0.967523178807947	-1.36662251655629	0.415364238410596	0.215099337748344				1.02495364238411	0.111788079470199	0.125139072847682	5.75390728476821	-12.5721854304636	2.77403973509934				-0.250172185430464	-0.0812715231788079	-0.90394701986755	3.92741721854305	0.426490066225167	-0.76026490066225				0.304529801324503	-0.0805298013245033	-0.933721854304636	-3.95708609271523	-1.4964238410596	1.90437086092715				0.932026490066225	0.131496688741722	0.309933774834437	1.3517880794702	-3.30807947019868	-0.897483443708608				0.239788079470199	-0.286834437086093	-0.900238410596026	-1.09960264900662	-0.122384105960265	-1.31470198675497			
16	420	-0.216158940397351	0.0827549668874172	-0.967523178807947	-1.08662251655629	1.2553642384106	-0.344900662251656				0.992953642384106	0.111788079470199	0.0451390728476822	7.71390728476821	-18.7321854304636	4.73403973509934				-0.250172185430464	-0.0812715231788079	-0.88794701986755	0.00741721854304636	1.54649006622517	-0.76026490066225				0.288529801324503	-0.0645298013245033	-0.917721854304636	-3.39708609271523	-2.3364238410596	-1.73562913907285				0.916026490066225	0.115496688741722	0.309933774834437	-1.4482119205298	-1.34807947019868	-2.57748344370861				0.223788079470199	-0.254834437086093	-0.868238410596026	-1.65960264900662	2.11761589403974	0.925298013245032			
17	440	-0.200158940397351	0.0827549668874172	-0.951523178807947	-0.246622516556291	2.3753642384106	-0.344900662251656				0.960953642384106	0.127788079470199	-0.0348609271523178	11.6339072847682	-20.1321854304636	3.05403973509934				-0.250172185430464	-0.0812715231788079	-0.88794701986755	-1.67258278145695	1.54649006622517	-1.32026490066225				0.288529801324503	-0.0645298013245033	-0.901721854304636	-4.23708609271523	-2.3364238410596	-3.69562913907285				0.900026490066225	0.0994966887417219	0.325933774834437	0.231788079470198	1.17192052980133	-1.45748344370861				0.239788079470199	-0.254834437086093	-0.900238410596026	-1.93960264900662	1.27761589403974	2.60529801324503			
18	460	-0.200158940397351	0.0987549668874172	-0.935523178807947	-1.64662251655629	1.8153642384106	-1.18490066225166				0.944953642384106	0.127788079470199	-0.0828609271523179	8.27390728476821	-8.93218543046358	2.21403973509934				-0.234172185430464	-0.0812715231788079	-0.87194701986755	-0.272582781456954	1.54649006622517	-1.04026490066225				0.320529801324503	-0.0805298013245033	-0.901721854304636	-3.39708609271523	-3.1764238410596	-1.73562913907285				0.900026490066225	0.115496688741722	0.341933774834437	-0.0482119205298018	1.73192052980133	-0.0574834437086077				0.255788079470199	-0.254834437086093	-0.900238410596026	1.14039735099338	0.717615894039735	3.44529801324503			
19	480	-0.200158940397351	0.114754966887417	-0.951523178807947	-1.92662251655629	0.695364238410596	-0.904900662251656				0.960953642384106	0.143788079470199	-0.0668609271523178	5.75390728476821	-0.532185430463576	0.25403973509934				-0.234172185430464	-0.0652715231788079	-0.87194701986755	-0.552582781456954	0.426490066225167	-0.76026490066225				0.320529801324503	-0.112529801324503	-0.901721854304636	-6.19708609271523	-2.3364238410596	-0.615629139072848				0.932026490066225	0.115496688741722	0.325933774834437	0.791788079470198	2.57192052980133	0.782516556291392				0.255788079470199	-0.254834437086093	-0.884238410596026	1.42039735099338	1.27761589403974	4.28529801324503			
20	500	-0.200158940397351	0.130754966887417	-0.935523178807947	0.0333774834437086	0.415364238410596	-0.344900662251656				0.944953642384106	0.143788079470199	-0.0828609271523179	3.79390728476821	2.26781456953642	0.81403973509934				-0.250172185430464	-0.0492715231788079	-0.87194701986755	-1.11258278145695	1.26649006622517	0.0797350993377501				0.320529801324503	-0.0965298013245033	-0.869721854304636	-3.39708609271523	2.1435761589404	1.62437086092715				0.932026490066225	0.115496688741722	0.309933774834437	-0.328211920529802	2.29192052980133	0.782516556291392				0.239788079470199	-0.254834437086093	-0.868238410596026	0.860397350993377	1.55761589403974	2.88529801324503			
21	520	-0.216158940397351	0.114754966887417	-0.935523178807947	0.593377483443709	0.415364238410596	-0.344900662251656				0.960953642384106	0.143788079470199	-0.130860927152318	0.993907284768212	10.3878145695364	-0.30596026490066				-0.250172185430464	-0.0492715231788079	-0.87194701986755	0.00741721854304636	1.54649006622517	0.91973509933775				0.320529801324503	-0.0805298013245033	-0.869721854304636	2.20291390728477	1.8635761589404	3.58437086092715				0.884026490066225	0.0994966887417219	0.341933774834437	-0.608211920529802	0.0519205298013249	-0.0574834437086077				0.239788079470199	-0.254834437086093	-0.852238410596026	1.98039735099338	0.717615894039735	1.20529801324503			
22	540	-0.216158940397351	0.0987549668874172	-0.935523178807947	1.15337748344371	0.695364238410596	-0.344900662251656				0.976953642384106	0.143788079470199	-0.0988609271523179	-9.64609271523179	24.9478145695364	-1.42596026490066				-0.234172185430464	-0.0652715231788079	-0.87194701986755	-0.552582781456954	0.146490066225167	1.19973509933775				0.320529801324503	-0.0805298013245033	-0.901721854304636	4.16291390728477	1.3035761589404	4.14437086092715				0.868026490066225	0.115496688741722	0.357933774834437	0.791788079470198	2.29192052980133	0.222516556291392				0.255788079470199	-0.238834437086093	-0.884238410596026	2.26039735099338	0.717615894039735	0.365298013245032			
23	560	-0.216158940397351	0.0987549668874172	-0.919523178807947	0.593377483443709	-0.144635761589404	-1.18490066225166				0.976953642384106	0.143788079470199	-0.0508609271523178	-14.4060927152318	21.5878145695364	-2.54596026490066				-0.250172185430464	-0.0492715231788079	-0.87194701986755	0.567417218543046	-2.09350993377483	1.19973509933775				0.320529801324503	-0.0965298013245033	-0.917721854304636	3.04291390728477	2.7035761589404	4.98437086092715				0.916026490066225	0.0994966887417219	0.309933774834437	4.4317880794702	2.85192052980133	1.62251655629139				0.255788079470199	-0.254834437086093	-0.868238410596026	2.82039735099338	0.437615894039735	-0.194701986754968			
24	580	-0.200158940397351	0.0987549668874172	-0.919523178807947	0.313377483443709	-0.144635761589404	-1.74490066225166				0.976953642384106	0.127788079470199	-0.0348609271523178	-14.4060927152318	24.9478145695364	-5.06596026490066				-0.250172185430464	-0.0492715231788079	-0.87194701986755	0.287417218543046	-1.53350993377483	1.19973509933775				0.336529801324503	-0.0965298013245033	-0.885721854304636	-0.597086092715232	1.3035761589404	4.14437086092715				0.900026490066225	0.0994966887417219	0.341933774834437	8.6317880794702	5.65192052980133	3.30251655629139				0.239788079470199	-0.270834437086093	-0.852238410596026	1.42039735099338	0.437615894039735	-0.474701986754968			
25	600	-0.216158940397351	0.0987549668874172	-0.935523178807947	0.593377483443709	-0.984635761589404	-1.46490066225166				0.976953642384106	0.127788079470199	0.0771390728476822	-8.52609271523179	25.7878145695364	-4.78596026490066				-0.250172185430464	-0.0492715231788079	-0.87194701986755	1.96741721854305	-0.133509933774833	0.91973509933775				0.320529801324503	-0.0645298013245033	-0.901721854304636	-3.95708609271523	-3.1764238410596	3.02437086092715				0.932026490066225	0.115496688741722	0.325933774834437	2.4717880794702	6.49192052980132	2.74251655629139				0.239788079470199	-0.254834437086093	-0.868238410596026	-0.539602649006623	0.157615894039735	0.645298013245032			
26	620	-0.216158940397351	0.0987549668874172	-0.967523178807947	-0.526622516556291	-1.5446357615894	-0.904900662251656				1.02495364238411	0.127788079470199	0.141139072847682	-3.76609271523179	13.1878145695364	-2.54596026490066				-0.250172185430464	-0.0492715231788079	-0.90394701986755	2.80741721854305	0.146490066225167	0.0797350993377501				0.320529801324503	-0.0805298013245033	-0.901721854304636	-0.0370860927152318	-1.7764238410596	3.30437086092715				0.932026490066225	0.115496688741722	0.293933774834437	6.1117880794702	2.29192052980133	3.30251655629139				0.239788079470199	-0.254834437086093	-0.884238410596026	-0.819602649006623	0.717615894039735	0.365298013245032			
27	640	-0.216158940397351	0.0827549668874172	-0.983523178807947	-1.08662251655629	0.415364238410596	-0.344900662251656				1.00895364238411	0.143788079470199	0.125139072847682	-4.32609271523179	-3.33218543046358	-0.585960264900661				-0.250172185430464	-0.0652715231788079	-0.90394701986755	1.96741721854305	0.146490066225167	-0.48026490066225				0.320529801324503	-0.0965298013245033	-0.933721854304636	3.32291390728477	-1.7764238410596	5.26437086092715				0.932026490066225	0.115496688741722	0.325933774834437	5.5517880794702	-0.228079470198675	1.90251655629139				0.239788079470199	-0.270834437086093	-0.900238410596026	3.10039735099338	-0.122384105960265	0.0852980132450323			
28	660	-0.200158940397351	0.0827549668874172	-0.951523178807947	0.313377483443709	1.2553642384106	-0.904900662251656				0.992953642384106	0.127788079470199	0.109139072847682	-0.126092715231788	-13.9721854304636	0.25403973509934				-0.250172185430464	-0.0652715231788079	-0.88794701986755	-0.272582781456954	1.26649006622517	-0.48026490066225				0.304529801324503	-0.112529801324503	-0.933721854304636	-0.597086092715232	-1.2164238410596	4.42437086092715				0.916026490066225	0.115496688741722	0.325933774834437	1.6317880794702	0.611920529801325	1.06251655629139				0.223788079470199	-0.286834437086093	-0.884238410596026	3.66039735099338	0.157615894039735	1.48529801324503			
29	680	-0.200158940397351	0.114754966887417	-0.951523178807947	0.0333774834437086	0.135364238410596	-0.904900662251656				0.992953642384106	0.127788079470199	0.0771390728476822	4.63390728476821	-20.9721854304636	0.53403973509934				-0.234172185430464	-0.0652715231788079	-0.88794701986755	-0.832582781456954	0.146490066225167	-0.76026490066225				0.288529801324503	-0.0965298013245033	-0.917721854304636	-2.27708609271523	-0.0964238410596001	3.02437086092715				0.932026490066225	0.0994966887417219	0.309933774834437	0.231788079470198	1.17192052980133	0.502516556291392				0.239788079470199	-0.270834437086093	-0.868238410596026	0.0203973509933773	0.997615894039735	2.88529801324503			
30	700	-0.216158940397351	0.114754966887417	-0.967523178807947	0.0333774834437086	0.135364238410596	-0.0649006622516557				0.976953642384106	0.127788079470199	0.0291390728476822	5.47390728476821	-23.2121854304636	1.65403973509934				-0.234172185430464	-0.0812715231788079	-0.90394701986755	1.12741721854305	0.706490066225167	-0.76026490066225				0.304529801324503	-0.0645298013245033	-0.917721854304636	-1.99708609271523	1.0235761589404	2.74437086092715				0.932026490066225	0.0834966887417219	0.309933774834437	-3.4082119205298	0.331920529801325	-0.617483443708608				0.239788079470199	-0.270834437086093	-0.884238410596026	-0.259602649006623	1.55761589403974	3.44529801324503			
31	720	-0.200158940397351	0.114754966887417	-0.951523178807947	-0.246622516556291	0.415364238410596	-0.344900662251656				0.960953642384106	0.127788079470199	-0.0188609271523178	4.63390728476821	-14.5321854304636	2.21403973509934				-0.218172185430464	-0.0812715231788079	-0.88794701986755	1.68741721854305	-0.133509933774833	-1.32026490066225				0.304529801324503	-0.0645298013245033	-0.949721854304636	-0.0370860927152318	1.8635761589404	3.30437086092715				0.916026490066225	0.115496688741722	0.341933774834437	-4.5282119205298	0.0519205298013249	-0.897483443708608				0.255788079470199	-0.270834437086093	-0.868238410596026	1.70039735099338	2.67761589403974	1.76529801324503			
32	740	-0.200158940397351	0.0987549668874172	-0.951523178807947	0.873377483443709	0.975364238410596	-0.0649006622516557				0.960953642384106	0.159788079470199	-0.0188609271523178	9.11390728476821	-4.45218543046358	3.05403973509934				-0.234172185430464	-0.0652715231788079	-0.87194701986755	0.847417218543046	1.26649006622517	-1.32026490066225				0.320529801324503	-0.0965298013245033	-0.949721854304636	2.20291390728477	6.3435761589404	3.58437086092715				0.916026490066225	0.0994966887417219	0.357933774834437	3.0317880794702	-3.02807947019868	1.62251655629139				0.271788079470199	-0.270834437086093	-0.900238410596026	2.54039735099338	4.35761589403974	1.48529801324503			
33	760	-0.200158940397351	0.0987549668874172	-0.951523178807947	0.593377483443709	0.975364238410596	-0.624900662251656				0.992953642384106	0.143788079470199	0.0131390728476822	12.1939072847682	1.42781456953642	6.97403973509934				-0.234172185430464	-0.0652715231788079	-0.88794701986755	-1.67258278145695	0.986490066225167	-0.20026490066225				0.352529801324503	-0.112529801324503	-0.901721854304636	-0.877086092715232	2.1435761589404	1.34437086092715				0.932026490066225	0.115496688741722	0.309933774834437	-0.0482119205298018	1.45192052980132	-0.0574834437086077				0.255788079470199	-0.286834437086093	-0.852238410596026	0.300397350993377	3.79761589403974	2.88529801324503			
34	780	-0.200158940397351	0.114754966887417	-0.919523178807947	0.593377483443709	0.415364238410596	-1.18490066225166				0.976953642384106	0.143788079470199	-0.0348609271523178	8.55390728476821	3.10781456953642	5.57403973509934				-0.234172185430464	-0.0652715231788079	-0.87194701986755	-1.39258278145695	-0.413509933774833	0.35973509933775				0.352529801324503	-0.0965298013245033	-0.901721854304636	-5.63708609271523	-2.6164238410596	-0.615629139072848				0.900026490066225	0.115496688741722	0.325933774834437	-0.888211920529802	2.57192052980133	-0.337483443708608				0.271788079470199	-0.270834437086093	-0.868238410596026	-1.09960264900662	3.23761589403974	4.84529801324503			
35	800	-0.216158940397351	0.0987549668874172	-0.935523178807947	1.15337748344371	-0.144635761589404	-0.904900662251656				0.976953642384106	0.143788079470199	-0.0348609271523178	2.67390728476821	1.98781456953642	3.89403973509934				-0.234172185430464	-0.0492715231788079	-0.88794701986755	-2.79258278145695	-1.81350993377483	0.35973509933775				0.352529801324503	-0.0805298013245033	-0.885721854304636	-5.35708609271523	-2.6164238410596	1.06437086092715				0.884026490066225	0.0994966887417219	0.357933774834437	2.4717880794702	2.01192052980133	-0.337483443708608				0.255788079470199	-0.254834437086093	-0.868238410596026	-1.09960264900662	1.27761589403974	4.00529801324503			
36	820	-0.216158940397351	0.0987549668874172	-0.951523178807947	0.0333774834437086	-0.704635761589404	-2.02490066225166				0.976953642384106	0.159788079470199	-0.0668609271523178	0.153907284768212	0.587814569536424	2.77403973509934				-0.250172185430464	-0.0492715231788079	-0.88794701986755	0.847417218543046	-0.133509933774833	1.19973509933775				0.336529801324503	-0.0805298013245033	-0.869721854304636	-3.67708609271523	-2.8964238410596	3.30437086092715				0.916026490066225	0.115496688741722	0.325933774834437	-0.0482119205298018	-1.06807947019868	-0.337483443708608				0.255788079470199	-0.238834437086093	-0.852238410596026	0.0203973509933773	-0.122384105960265	2.32529801324503			
37	840	-0.216158940397351	0.0987549668874172	-0.967523178807947	-0.246622516556291	-0.984635761589404	-2.02490066225166				0.960953642384106	0.127788079470199	-0.114860927152318	-3.76609271523179	8.98781456953643	0.25403973509934				-0.250172185430464	-0.0492715231788079	-0.87194701986755	1.40741721854305	0.426490066225167	1.19973509933775				0.320529801324503	-0.0805298013245033	-0.853721854304636	-1.71708609271523	-2.8964238410596	4.42437086092715				0.916026490066225	0.0834966887417219	0.341933774834437	-0.888211920529802	-2.46807947019868	0.222516556291392				0.255788079470199	-0.254834437086093	-0.868238410596026	2.54039735099338	-0.962384105960265	0.365298013245032			
38	860	-0.216158940397351	0.0987549668874172	-0.967523178807947	0.873377483443709	-0.144635761589404	-0.904900662251656				0.976953642384106	0.127788079470199	-0.0188609271523178	-10.7660927152318	24.9478145695364	-0.86596026490066				-0.250172185430464	-0.0492715231788079	-0.88794701986755	1.40741721854305	0.426490066225167	0.35973509933775				0.304529801324503	-0.0805298013245033	-0.885721854304636	2.76291390728477	-1.2164238410596	5.26437086092715				0.900026490066225	0.0994966887417219	0.373933774834437	0.791788079470198	0.0519205298013249	1.06251655629139				0.255788079470199	-0.286834437086093	-0.868238410596026	1.14039735099338	0.997615894039735	-0.474701986754968			
39	880	-0.200158940397351	0.0827549668874172	-0.935523178807947	0.873377483443709	0.135364238410596	-0.624900662251656				1.00895364238411	0.127788079470199	0.0611390728476822	-12.4460927152318	22.7078145695364	-1.42596026490066				-0.234172185430464	-0.0492715231788079	-0.87194701986755	1.96741721854305	-0.693509933774834	0.0797350993377501				0.320529801324503	-0.0805298013245033	-0.901721854304636	7.52291390728477	2.9835761589404	5.54437086092715				0.916026490066225	0.115496688741722	0.325933774834437	-0.608211920529802	0.611920529801325	1.06251655629139				0.255788079470199	-0.270834437086093	-0.884238410596026	0.860397350993377	2.11761589403974	-1.03470198675497			
40	900	-0.200158940397351	0.0827549668874172	-0.935523178807947	0.313377483443709	0.695364238410596	-0.904900662251656				0.992953642384106	0.127788079470199	0.109139072847682	-7.40609271523179	14.0278145695364	-1.98596026490066				-0.250172185430464	-0.0652715231788079	-0.88794701986755	0.847417218543046	-0.693509933774834	-0.48026490066225				0.320529801324503	-0.0965298013245033	-0.949721854304636	6.40291390728477	4.1035761589404	5.82437086092715				0.932026490066225	0.0994966887417219	0.309933774834437	3.8717880794702	-0.788079470198675	2.74251655629139				0.239788079470199	-0.254834437086093	-0.868238410596026	0.0203973509933773	1.83761589403974	-1.31470198675497			
41	920	-0.216158940397351	0.0827549668874172	-0.951523178807947	-0.806622516556291	-0.984635761589404	-1.46490066225166				0.992953642384106	0.127788079470199	0.109139072847682	0.993907284768212	4.22781456953642	-0.86596026490066				-0.234172185430464	-0.0652715231788079	-0.88794701986755	2.52741721854305	0.426490066225167	-1.32026490066225				0	0	0	0	0	0				0	0	0	0	0	0				0	0	0	0	0	0			
42	1040	-0.216158940397351	0.114754966887417	-0.935523178807947	-0.246622516556291	0.415364238410596	-0.904900662251656				0.960953642384106	0.143788079470199	-0.0668609271523178	1.55390728476821	8.70781456953642	-0.0259602649006601				-0.234172185430464	-0.0652715231788079	-0.88794701986755	-1.11258278145695	0.426490066225167	1.19973509933775				0.336529801324503	-0.0805298013245033	-0.885721854304636	3.04291390728477	1.3035761589404	1.06437086092715				0.916026490066225	0.0994966887417219	0.325933774834437	-2.8482119205298	-0.508079470198675	1.34251655629139				0.255788079470199	-0.286834437086093	-0.868238410596026	0.300397350993377	1.27761589403974	1.76529801324503			
43	1060	-0.200158940397351	0.0987549668874172	-0.935523178807947	1.71337748344371	0.695364238410596	0.215099337748344				0.960953642384106	0.159788079470199	-0.114860927152318	-7.40609271523179	26.0678145695364	-1.70596026490066				-0.250172185430464	-0.0492715231788079	-0.88794701986755	-0.832582781456954	0.706490066225167	1.19973509933775				0.352529801324503	-0.0965298013245033	-0.901721854304636	3.88291390728477	1.3035761589404	1.62437086092715				0.900026490066225	0.115496688741722	0.357933774834437	-2.2882119205298	-0.788079470198675	-0.337483443708608				0.255788079470199	-0.270834437086093	-0.852238410596026	1.14039735099338	0.717615894039735	0.645298013245032			
44	1080	-0.200158940397351	0.0987549668874172	-0.935523178807947	0.593377483443709	0.975364238410596	-0.344900662251656				0.976953642384106	0.143788079470199	-0.00286092715231785	-13.5660927152318	31.6678145695364	0.53403973509934				-0.234172185430464	-0.0492715231788079	-0.88794701986755	-1.11258278145695	-0.413509933774833	0.91973509933775				0.352529801324503	-0.112529801324503	-0.901721854304636	3.04291390728477	2.1435761589404	1.34437086092715				0.916026490066225	0.0994966887417219	0.325933774834437	-1.1682119205298	0.611920529801325	-0.0574834437086077				0.239788079470199	-0.270834437086093	-0.836238410596026	2.26039735099338	0.157615894039735	0.925298013245032			
45	1100	-0.200158940397351	0.114754966887417	-0.919523178807947	-0.246622516556291	0.415364238410596	-0.904900662251656				0.976953642384106	0.127788079470199	0.0451390728476822	-8.24609271523179	31.1078145695364	-1.98596026490066				-0.250172185430464	-0.0492715231788079	-0.85594701986755	-1.95258278145695	0.146490066225167	1.19973509933775				0.320529801324503	-0.0965298013245033	-0.885721854304636	1.36291390728477	1.3035761589404	1.06437086092715				0.900026490066225	0.0994966887417219	0.325933774834437	2.4717880794702	0.0519205298013249	0.782516556291392				0.239788079470199	-0.270834437086093	-0.836238410596026	1.14039735099338	0.437615894039735	0.645298013245032			
46	1120	-0.200158940397351	0.114754966887417	-0.935523178807947	-0.526622516556291	-0.424635761589404	-0.904900662251656				0.976953642384106	0.143788079470199	0.109139072847682	-3.76609271523179	18.5078145695364	-3.38596026490066				-0.250172185430464	-0.0332715231788079	-0.87194701986755	-0.552582781456954	-0.133509933774833	0.91973509933775				0.320529801324503	-0.0645298013245033	-0.885721854304636	0.522913907284768	-1.4964238410596	1.62437086092715				0.900026490066225	0.0994966887417219	0.325933774834437	2.4717880794702	0.331920529801325	1.06251655629139				0.239788079470199	-0.270834437086093	-0.836238410596026	-0.539602649006623	0.717615894039735	-0.474701986754968			
47	1140	-0.200158940397351	0.114754966887417	-0.951523178807947	-0.806622516556291	-1.2646357615894	-0.624900662251656				0.992953642384106	0.127788079470199	0.0291390728476822	-2.92609271523179	12.0678145695364	-3.66596026490066				-0.250172185430464	-0.0492715231788079	-0.90394701986755	1.96741721854305	-0.973509933774833	0.63973509933775				0.304529801324503	-0.0645298013245033	-0.901721854304636	2.48291390728477	-1.7764238410596	1.62437086092715				0.900026490066225	0.115496688741722	0.341933774834437	3.5917880794702	-0.788079470198675	2.46251655629139				0.255788079470199	-0.254834437086093	-0.868238410596026	-1.93960264900662	-0.122384105960265	-1.03470198675497			
48	1160	-0.200158940397351	0.0987549668874172	-0.951523178807947	-1.36662251655629	-1.2646357615894	-1.18490066225166				1.02495364238411	0.127788079470199	0.0931390728476822	-6.28609271523179	9.26781456953642	-6.18596026490066				-0.250172185430464	-0.0492715231788079	-0.90394701986755	1.12741721854305	-0.133509933774833	-0.20026490066225				0.304529801324503	-0.0805298013245033	-0.885721854304636	1.08291390728477	-2.6164238410596	2.46437086092715				0.916026490066225	0.0994966887417219	0.325933774834437	7.5117880794702	-1.06807947019868	4.70251655629139				0.255788079470199	-0.238834437086093	-0.868238410596026	-0.819602649006623	0.157615894039735	-2.15470198675497			
49	1180	-0.216158940397351	0.0987549668874172	-0.935523178807947	0.313377483443709	0.135364238410596	-1.74490066225166				1.00895364238411	0.143788079470199	0.0931390728476822	-5.72609271523179	0.307814569536424	-6.46596026490066				-0.234172185430464	-0.0652715231788079	-0.90394701986755	0.00741721854304636	0.986490066225167	-0.76026490066225				0.320529801324503	-0.112529801324503	-0.901721854304636	-0.0370860927152318	-3.7364238410596	2.18437086092715				0.932026490066225	0.0994966887417219	0.325933774834437	1.3517880794702	0.891920529801325	3.02251655629139				0.271788079470199	-0.270834437086093	-0.884238410596026	0.0203973509933773	0.997615894039735	-3.27470198675497			
50	1200	-0.200158940397351	0.0987549668874172	-0.951523178807947	0.593377483443709	0.135364238410596	-1.74490066225166				0.976953642384106	0.143788079470199	0.125139072847682	-4.32609271523179	-1.65218543046358	-6.18596026490066				-0.250172185430464	-0.0492715231788079	-0.88794701986755	-0.272582781456954	1.82649006622517	-2.16026490066225				0.304529801324503	-0.0965298013245033	-0.917721854304636	1.08291390728477	-1.4964238410596	3.86437086092715				0.932026490066225	0.115496688741722	0.341933774834437	-0.328211920529802	2.01192052980133	1.90251655629139				0.255788079470199	-0.286834437086093	-0.884238410596026	0.580397350993377	1.55761589403974	-2.43470198675497			
51	1220	-0.200158940397351	0.114754966887417	-0.951523178807947	-0.246622516556291	0.135364238410596	-1.74490066225166				0.992953642384106	0.143788079470199	0.141139072847682	-2.92609271523179	-3.61218543046358	-4.78596026490066				-0.250172185430464	-0.0652715231788079	-0.87194701986755	-0.832582781456954	1.54649006622517	-1.60026490066225				0.304529801324503	-0.0805298013245033	-0.933721854304636	8.36291390728477	3.2635761589404	6.10437086092715				0.932026490066225	0.0994966887417219	0.341933774834437	2.7517880794702	1.45192052980132	3.02251655629139				0.271788079470199	-0.270834437086093	-0.900238410596026	-0.259602649006623	2.67761589403974	-2.15470198675497			
52	1240	-0.200158940397351	0.114754966887417	-0.935523178807947	0.873377483443709	0.415364238410596	-0.0649006622516557				0.992953642384106	0.143788079470199	0.0931390728476822	-2.64609271523179	-7.53218543046358	-4.22596026490066				-0.250172185430464	-0.0652715231788079	-0.87194701986755	-0.272582781456954	2.66649006622517	-0.76026490066225				0.304529801324503	-0.0965298013245033	-0.933721854304636	8.92291390728477	5.2235761589404	6.66437086092715				0.932026490066225	0.0834966887417219	0.325933774834437	2.4717880794702	-3.58807947019868	3.30251655629139				0.271788079470199	-0.270834437086093	-0.884238410596026	1.70039735099338	2.11761589403974	-0.754701986754968			
53	1260	-0.216158940397351	0.0827549668874172	-0.951523178807947	1.15337748344371	0.415364238410596	-0.0649006622516557				0.976953642384106	0.143788079470199	0.109139072847682	-2.08609271523179	-13.1321854304636	-4.22596026490066				-0.250172185430464	-0.0812715231788079	-0.88794701986755	1.40741721854305	2.66649006622517	-1.32026490066225				0.320529801324503	-0.0965298013245033	-0.917721854304636	7.52291390728477	1.8635761589404	5.82437086092715				0.916026490066225	0.0834966887417219	0.325933774834437	-2.8482119205298	-4.98807947019868	2.46251655629139				0.271788079470199	-0.270834437086093	-0.900238410596026	0.0203973509933773	1.27761589403974	1.20529801324503			
54	1280	-0.216158940397351	0.0987549668874172	-0.935523178807947	0.593377483443709	0.415364238410596	-2.02490066225166				0.976953642384106	0.143788079470199	0.109139072847682	-0.126092715231788	-21.2521854304636	-3.10596026490066				-0.234172185430464	-0.0812715231788079	-0.88794701986755	0.567417218543046	1.82649006622517	-1.32026490066225				0.320529801324503	-0.0965298013245033	-0.917721854304636	0.802913907284768	-2.0564238410596	4.14437086092715				0.916026490066225	0.0994966887417219	0.325933774834437	-10.4082119205298	-5.54807947019868	1.06251655629139				0.287788079470199	-0.270834437086093	-0.884238410596026	-0.539602649006623	2.11761589403974	2.04529801324503			
55	1300	-0.216158940397351	0.0987549668874172	-0.951523178807947	-0.526622516556291	0.415364238410596	-2.02490066225166				0.976953642384106	0.143788079470199	0.0931390728476822	1.83390728476821	-26.5721854304636	-2.26596026490066				-0.250172185430464	-0.0652715231788079	-0.87194701986755	-0.272582781456954	2.10649006622517	-1.04026490066225				0.304529801324503	-0.0805298013245033	-0.901721854304636	-1.43708609271523	-4.2964238410596	4.42437086092715				0.916026490066225	0.0994966887417219	0.293933774834437	-13.2082119205298	-5.26807947019868	2.18251655629139				0.287788079470199	-0.270834437086093	-0.868238410596026	0.0203973509933773	1.55761589403974	3.16529801324503			
56	1320	-0.200158940397351	0.0987549668874172	-0.951523178807947	0.0333774834437086	0.135364238410596	-1.46490066225166				0.960953642384106	0.143788079470199	0.0451390728476822	4.91390728476821	-32.1721854304636	-1.98596026490066				-0.250172185430464	-0.0652715231788079	-0.87194701986755	-0.272582781456954	1.54649006622517	0.35973509933775				0.272529801324503	-0.0805298013245033	-0.901721854304636	0.242913907284768	-4.5764238410596	4.42437086092715				0.916026490066225	0.0674966887417219	0.293933774834437	-13.4882119205298	-6.94807947019868	2.74251655629139				0.271788079470199	-0.238834437086093	-0.868238410596026	1.70039735099338	2.11761589403974	2.88529801324503			
57	1340	-0.216158940397351	0.0987549668874172	-0.951523178807947	0.313377483443709	0.975364238410596	-1.18490066225166				0.944953642384106	0.143788079470199	-0.0508609271523178	4.91390728476821	-26.8521854304636	-2.54596026490066				-0.234172185430464	-0.0652715231788079	-0.90394701986755	1.12741721854305	-0.693509933774834	-0.20026490066225				0.288529801324503	-0.0805298013245033	-0.901721854304636	-1.15708609271523	-4.5764238410596	5.54437086092715				0.900026490066225	0.0994966887417219	0.325933774834437	-10.4082119205298	-5.54807947019868	3.30251655629139				0.255788079470199	-0.238834437086093	-0.884238410596026	3.66039735099338	6.03761589403974	3.44529801324503			
58	1360	-0.200158940397351	0.114754966887417	-0.951523178807947	0.313377483443709	0.415364238410596	-1.18490066225166				0.960953642384106	0.159788079470199	-0.0668609271523178	2.95390728476821	-15.9321854304636	-0.585960264900661				-0.234172185430464	-0.0652715231788079	-0.88794701986755	-0.272582781456954	-1.53350993377483	-0.20026490066225				0.288529801324503	-0.0645298013245033	-0.901721854304636	-0.597086092715232	-4.2964238410596	6.94437086092715				0.932026490066225	0.115496688741722	0.325933774834437	-13.7682119205298	-3.86807947019868	4.14251655629139				0.271788079470199	-0.270834437086093	-0.868238410596026	5.06039735099338	4.91761589403974	2.60529801324503			
59	1380	-0.216158940397351	0.0987549668874172	-0.951523178807947	0.873377483443709	0.415364238410596	-0.344900662251656				0.992953642384106	0.175788079470199	-0.00286092715231785	2.11390728476821	-2.49218543046358	0.53403973509934				-0.234172185430464	-0.0492715231788079	-0.88794701986755	1.96741721854305	1.26649006622517	0.0797350993377501				0.288529801324503	-0.0965298013245033	-0.901721854304636	2.48291390728477	-2.0564238410596	6.94437086092715				0.948026490066225	0.0834966887417219	0.325933774834437	-15.4482119205298	-3.02807947019868	4.42251655629139				0.287788079470199	-0.302834437086093	-0.852238410596026	3.10039735099338	4.63761589403974	1.76529801324503			
60	1400	-0.216158940397351	0.0987549668874172	-0.951523178807947	0.0333774834437086	0.415364238410596	-0.624900662251656				0.992953642384106	0.191788079470199	0.0131390728476822	-1.24609271523179	-5.57218543046358	1.93403973509934				-0.250172185430464	-0.0492715231788079	-0.88794701986755	1.12741721854305	1.26649006622517	0.63973509933775				0.304529801324503	-0.128529801324503	-0.949721854304636	5.28291390728477	0.4635761589404	6.66437086092715				0.948026490066225	0.0514966887417219	0.325933774834437	-15.7282119205298	-3.02807947019868	3.30251655629139				0.287788079470199	-0.334834437086093	-0.868238410596026	0.0203973509933773	4.91761589403974	1.76529801324503			
61	1420	-0.216158940397351	0.0987549668874172	-0.935523178807947	0.313377483443709	-0.144635761589404	-0.0649006622516557				0.960953642384106	0.175788079470199	-0.00286092715231785	-6.28609271523179	-3.33218543046358	3.33403973509934				-0.250172185430464	-0.0492715231788079	-0.88794701986755	1.96741721854305	0.706490066225167	-0.48026490066225				0.320529801324503	-0.160529801324503	-0.965721854304636	4.72291390728477	1.8635761589404	5.54437086092715				0.932026490066225	0.0514966887417219	0.357933774834437	-13.7682119205298	-4.14807947019868	1.62251655629139				0.287788079470199	-0.334834437086093	-0.836238410596026	-2.21960264900662	4.07761589403974	0.925298013245032			
62	1440	-0.216158940397351	0.0987549668874172	-0.935523178807947	0.593377483443709	-0.144635761589404	0.495099337748344				0.976953642384106	0.143788079470199	0.0131390728476822	-4.60609271523179	-1.09218543046358	2.21403973509934				-0.266172185430464	-0.0492715231788079	-0.87194701986755	2.80741721854305	0.706490066225167	0.0797350993377501				0.352529801324503	-0.160529801324503	-0.949721854304636	2.76291390728477	1.0235761589404	2.18437086092715				0.916026490066225	0.0674966887417219	0.341933774834437	-11.2482119205298	-3.58807947019868	-0.0574834437086077				0.255788079470199	-0.302834437086093	-0.852238410596026	-5.57960264900662	2.11761589403974	-0.474701986754968			
63	1460	-0.216158940397351	0.0987549668874172	-0.951523178807947	0.0333774834437086	0.695364238410596	0.495099337748344				0.992953642384106	0.143788079470199	0.0131390728476822	-1.24609271523179	-4.45218543046358	-0.0259602649006601				-0.250172185430464	-0.0492715231788079	-0.88794701986755	3.64741721854305	1.26649006622517	1.19973509933775				0.368529801324503	-0.144529801324503	-0.917721854304636	1.64291390728477	-0.9364238410596	1.06437086092715				0.900026490066225	0.0674966887417219	0.341933774834437	-6.2082119205298	-2.18807947019868	-1.17748344370861				0.255788079470199	-0.270834437086093	-0.836238410596026	-4.45960264900662	-0.682384105960265	-0.194701986754968			
64	1480	-0.200158940397351	0.0987549668874172	-0.935523178807947	0.0333774834437086	0.975364238410596	0.215099337748344				0.992953642384106	0.143788079470199	0.0291390728476822	-1.52609271523179	-7.81218543046358	-0.585960264900661				-0.234172185430464	-0.0652715231788079	-0.88794701986755	2.80741721854305	1.26649006622517	0.63973509933775				0.384529801324503	-0.128529801324503	-0.917721854304636	-1.15708609271523	-3.7364238410596	2.18437086092715				0.900026490066225	0.0674966887417219	0.341933774834437	-1.1682119205298	-2.18807947019868	-0.337483443708608				0.239788079470199	-0.270834437086093	-0.852238410596026	-3.33960264900662	-1.80238410596026	-0.754701986754968			
65	1500	-0.200158940397351	0.0987549668874172	-0.951523178807947	0.313377483443709	0.975364238410596	-0.344900662251656				0.976953642384106	0.143788079470199	0.0131390728476822	-2.36609271523179	-8.09218543046358	0.25403973509934				-0.234172185430464	-0.0652715231788079	-0.88794701986755	2.24741721854305	1.54649006622517	-0.76026490066225				0.368529801324503	-0.128529801324503	-0.901721854304636	-0.877086092715232	-4.0164238410596	3.86437086092715				0.916026490066225	0.0834966887417219	0.341933774834437	5.5517880794702	-2.74807947019868	0.222516556291392				0.255788079470199	-0.270834437086093	-0.868238410596026	-3.05960264900662	-1.52238410596026	0.365298013245032			
66	1520	-0.200158940397351	0.0987549668874172	-0.951523178807947	-1.08662251655629	-0.144635761589404	-0.0649006622516557				0.960953642384106	0.143788079470199	0.0291390728476822	-1.52609271523179	-10.3321854304636	1.09403973509934				-0.234172185430464	-0.0812715231788079	-0.88794701986755	1.40741721854305	0.986490066225167	-0.20026490066225				0.352529801324503	-0.128529801324503	-0.885721854304636	-0.317086092715232	-4.5764238410596	4.14437086092715				0.916026490066225	0.0674966887417219	0.325933774834437	8.3517880794702	-3.02807947019868	1.34251655629139				0.255788079470199	-0.270834437086093	-0.852238410596026	-4.17960264900662	-1.52238410596026	0.365298013245032			
67	1540	-0.200158940397351	0.0827549668874172	-0.951523178807947	-1.64662251655629	-0.144635761589404	-0.904900662251656				0.976953642384106	0.127788079470199	0.0291390728476822	0.713907284768212	-14.8121854304636	1.93403973509934				-0.234172185430464	-0.0652715231788079	-0.88794701986755	0.567417218543046	-0.133509933774833	-1.04026490066225				0.320529801324503	-0.112529801324503	-0.885721854304636	-0.877086092715232	-4.0164238410596	4.42437086092715				0.916026490066225	0.0834966887417219	0.325933774834437	11.4317880794702	-0.788079470198675	3.02251655629139				0.255788079470199	-0.254834437086093	-0.868238410596026	-4.45960264900662	-2.64238410596027	-0.194701986754968			
68	1560	-0.200158940397351	0.0987549668874172	-0.951523178807947	-0.806622516556291	0.135364238410596	-1.18490066225166				0.976953642384106	0.143788079470199	-0.0188609271523178	2.95390728476821	-13.9721854304636	1.65403973509934				-0.234172185430464	-0.0652715231788079	-0.88794701986755	1.40741721854305	-2.09350993377483	-1.88026490066225				0.304529801324503	-0.0805298013245033	-0.869721854304636	2.20291390728477	-3.1764238410596	6.10437086092715				0.948026490066225	0.0834966887417219	0.325933774834437	11.4317880794702	-2.18807947019868	3.58251655629139				0.287788079470199	-0.254834437086093	-0.900238410596026	-2.49960264900662	-3.20238410596026	0.0852980132450323			
69	1580	-0.216158940397351	0.114754966887417	-0.951523178807947	-0.806622516556291	0.415364238410596	-1.74490066225166				0.976953642384106	0.143788079470199	-0.0348609271523178	1.83390728476821	-6.13218543046358	1.93403973509934				-0.250172185430464	-0.0652715231788079	-0.88794701986755	-1.67258278145695	-2.09350993377483	-1.32026490066225				0.304529801324503	-0.128529801324503	-0.917721854304636	5.56291390728477	-2.3364238410596	8.62437086092715				0.948026490066225	0.0834966887417219	0.309933774834437	6.9517880794702	-6.38807947019868	4.70251655629139				0.319788079470199	-0.270834437086093	-0.900238410596026	-4.73960264900662	-1.24238410596026	0.365298013245032			
70	1600	-0.216158940397351	0.114754966887417	-0.935523178807947	-1.08662251655629	0.695364238410596	-1.46490066225166				0.976953642384106	0.159788079470199	0.0131390728476822	0.153907284768212	-3.05218543046358	1.09403973509934				-0.234172185430464	-0.0812715231788079	-0.88794701986755	-0.552582781456954	0.146490066225167	-0.20026490066225				0.320529801324503	-0.160529801324503	-0.901721854304636	6.40291390728477	1.3035761589404	6.94437086092715				0.916026490066225	0.0514966887417219	0.309933774834437	1.3517880794702	-7.78807947019868	4.98251655629139				0.303788079470199	-0.254834437086093	-0.884238410596026	-0.539602649006623	0.717615894039735	0.0852980132450323			
71	1620	-0.232158940397351	0.114754966887417	-0.935523178807947	-0.246622516556291	0.695364238410596	-1.46490066225166				0.976953642384106	0.143788079470199	-0.00286092715231785	-1.24609271523179	-7.81218543046358	-0.86596026490066				-0.234172185430464	-0.0652715231788079	-0.88794701986755	0.287417218543046	1.54649006622517	-0.20026490066225				0.288529801324503	-0.112529801324503	-0.869721854304636	0.802913907284768	-0.9364238410596	4.98437086092715				0.916026490066225	0.0514966887417219	0.309933774834437	5.2717880794702	-3.86807947019868	6.10251655629139				0.287788079470199	-0.270834437086093	-0.820238410596026	0.580397350993377	-0.122384105960265	-0.754701986754968			
72	1640	-0.216158940397351	0.0987549668874172	-0.935523178807947	-0.526622516556291	0.415364238410596	-2.02490066225166				0.976953642384106	0.143788079470199	-0.0508609271523178	-0.966092715231788	-8.93218543046358	-2.26596026490066				-0.234172185430464	-0.0652715231788079	-0.88794701986755	-0.272582781456954	0.146490066225167	0.35973509933775				0.256529801324503	-0.0485298013245033	-0.885721854304636	0.802913907284768	-1.7764238410596	8.62437086092715				0.948026490066225	0.0674966887417219	0.325933774834437	4.7117880794702	-7.22807947019868	5.82251655629139				0.287788079470199	-0.286834437086093	-0.820238410596026	-2.21960264900662	-2.92238410596027	-0.754701986754968			
73	1660	-0.216158940397351	0.0987549668874172	-0.951523178807947	-1.08662251655629	0.135364238410596	-1.74490066225166				0.960953642384106	0.159788079470199	-0.0668609271523178	-4.60609271523179	-5.01218543046358	-3.38596026490066				-0.234172185430464	-0.0652715231788079	-0.87194701986755	-0.552582781456954	-1.53350993377483	1.19973509933775				0.256529801324503	-0.0965298013245033	-0.901721854304636	11.7229139072848	2.4235761589404	11.1443708609272				0.932026490066225	0.0674966887417219	0.325933774834437	3.8717880794702	-11.1480794701987	7.22251655629139				0.271788079470199	-0.286834437086093	-0.852238410596026	-7.53960264900662	-0.962384105960265	-1.87470198675497			
74	1680	-0.200158940397351	0.0827549668874172	-0.951523178807947	-1.08662251655629	0.975364238410596	-0.904900662251656				0.960953642384106	0.159788079470199	-0.00286092715231785	-9.36609271523179	-3.61218543046358	-1.42596026490066				-0.250172185430464	-0.0652715231788079	-0.88794701986755	-0.552582781456954	-0.693509933774834	0.91973509933775				0.256529801324503	-0.160529801324503	-0.933721854304636	13.9629139072848	3.8235761589404	8.34437086092715				0.900026490066225	0.0194966887417219	0.325933774834437	-3.4082119205298	-8.06807947019868	4.42251655629139				0.255788079470199	-0.286834437086093	-0.868238410596026	-7.53960264900662	2.95761589403974	-6.07470198675497			
75	1700	-0.200158940397351	0.0987549668874172	-0.951523178807947	-0.526622516556291	0.975364238410596	-1.18490066225166				0.992953642384106	0.143788079470199	0.0291390728476822	-10.4860927152318	-9.21218543046358	-1.98596026490066				-0.234172185430464	-0.0652715231788079	-0.88794701986755	-0.552582781456954	-0.133509933774833	0.63973509933775				0.272529801324503	-0.176529801324503	-0.933721854304636	6.40291390728477	2.1435761589404	3.30437086092715				0.900026490066225	0.00349668874172187	0.309933774834437	-13.4882119205298	-4.42807947019868	-0.897483443708608				0.255788079470199	-0.286834437086093	-0.836238410596026	-6.69960264900662	2.67761589403974	-9.15470198675497			
76	1720	-0.200158940397351	0.0987549668874172	-0.935523178807947	-1.08662251655629	0.415364238410596	-0.0649006622516557				0.976953642384106	0.143788079470199	-0.00286092715231785	-7.12609271523179	-13.6921854304636	-5.06596026490066				-0.234172185430464	-0.0492715231788079	-0.87194701986755	-0.832582781456954	-0.133509933774833	1.19973509933775				0.320529801324503	-0.160529801324503	-0.901721854304636	1.64291390728477	-1.2164238410596	-0.895629139072848				0.900026490066225	0.0194966887417219	0.325933774834437	-13.4882119205298	-2.74807947019868	-2.57748344370861				0.255788079470199	-0.286834437086093	-0.836238410596026	-9.21960264900662	1.27761589403974	-8.87470198675497			
77	1740	-0.200158940397351	0.0987549668874172	-0.951523178807947	-0.526622516556291	-0.144635761589404	0.495099337748344				0.976953642384106	0.159788079470199	-0.0188609271523178	-6.00609271523179	-15.6521854304636	-7.58596026490066				-0.234172185430464	-0.0652715231788079	-0.88794701986755	1.40741721854305	0.426490066225167	0.91973509933775				0.336529801324503	-0.160529801324503	-0.901721854304636	0.242913907284768	-4.2964238410596	-3.13562913907285				0.916026490066225	0.0514966887417219	0.293933774834437	-12.6482119205298	-3.58807947019868	-2.85748344370861				0.255788079470199	-0.270834437086093	-0.868238410596026	-10.0596026490066	-0.402384105960265	-9.43470198675497			
78	1760	-0.216158940397351	0.0987549668874172	-0.935523178807947	-1.36662251655629	-0.424635761589404	0.495099337748344				0.960953642384106	0.159788079470199	-0.0508609271523178	-7.12609271523179	-15.0921854304636	-5.90596026490066				-0.250172185430464	-0.0652715231788079	-0.88794701986755	1.68741721854305	-0.133509933774833	0.91973509933775				0.352529801324503	-0.144529801324503	-0.917721854304636	0.242913907284768	-4.2964238410596	-1.73562913907285				0.932026490066225	0.0834966887417219	0.293933774834437	-9.8482119205298	-7.22807947019868	-2.85748344370861				0.255788079470199	-0.254834437086093	-0.884238410596026	-6.41960264900662	-4.60238410596027	-8.59470198675497			
79	1780	-0.216158940397351	0.0987549668874172	-0.951523178807947	-1.92662251655629	0.135364238410596	0.495099337748344				0.960953642384106	0.159788079470199	-0.0668609271523178	-7.12609271523179	-11.7321854304636	-3.94596026490066				-0.250172185430464	-0.0652715231788079	-0.88794701986755	0.00741721854304636	-0.133509933774833	-0.48026490066225				0.352529801324503	-0.128529801324503	-0.885721854304636	5.00291390728477	-3.7364238410596	1.34437086092715				0.932026490066225	0.0994966887417219	0.309933774834437	-3.1282119205298	-10.0280794701987	-0.337483443708608				0.271788079470199	-0.238834437086093	-0.900238410596026	-4.17960264900662	-5.16238410596027	-5.23470198675497			
80	1800	-0.216158940397351	0.114754966887417	-0.951523178807947	-1.92662251655629	-0.144635761589404	-0.624900662251656				0.976953642384106	0.159788079470199	-0.0508609271523178	-6.00609271523179	-4.17218543046358	-2.26596026490066				-0.266172185430464	-0.0652715231788079	-0.88794701986755	-2.79258278145695	-1.81350993377483	-0.48026490066225				0.352529801324503	-0.128529801324503	-0.853721854304636	8.08291390728477	-2.6164238410596	5.26437086092715				0.932026490066225	0.0994966887417219	0.325933774834437	0.231788079470198	-11.4280794701987	3.02251655629139				0.271788079470199	-0.238834437086093	-0.900238410596026	-3.05960264900662	-4.32238410596027	-1.03470198675497			
81	1820	-0.200158940397351	0.114754966887417	-0.951523178807947	-0.806622516556291	-0.144635761589404	-0.344900662251656				0.992953642384106	0.175788079470199	-0.0348609271523178	-3.76609271523179	-1.37218543046358	-2.26596026490066				-0.250172185430464	-0.0492715231788079	-0.88794701986755	-1.95258278145695	-0.133509933774833	0.0797350993377501				0.352529801324503	-0.144529801324503	-0.885721854304636	10.3229139072848	-1.2164238410596	6.66437086092715				0.932026490066225	0.0834966887417219	0.309933774834437	0.791788079470198	-11.9880794701987	3.58251655629139				0.287788079470199	-0.254834437086093	-0.884238410596026	-2.21960264900662	-5.72238410596027	1.76529801324503			
82	1840	-0.200158940397351	0.130754966887417	-0.935523178807947	-1.92662251655629	0.695364238410596	-0.904900662251656				0.992953642384106	0.175788079470199	-0.0348609271523178	-2.08609271523179	-8.09218543046358	-1.98596026490066				-0.250172185430464	-0.0492715231788079	-0.87194701986755	-1.67258278145695	-0.693509933774834	0.0797350993377501				0.352529801324503	-0.144529801324503	-0.901721854304636	11.4429139072848	0.1835761589404	7.78437086092715				0.948026490066225	0.0514966887417219	0.309933774834437	2.4717880794702	-12.5480794701987	4.70251655629139				0.271788079470199	-0.254834437086093	-0.884238410596026	-3.61960264900662	-6.56238410596027	0.645298013245032			
83	1860	-0.200158940397351	0.114754966887417	-0.935523178807947	-2.48662251655629	1.2553642384106	-0.344900662251656				0.976953642384106	0.175788079470199	-0.0508609271523178	-2.08609271523179	-13.4121854304636	-2.82596026490066				-0.234172185430464	-0.0492715231788079	-0.88794701986755	1.96741721854305	-1.25350993377483	0.0797350993377501				0.336529801324503	-0.144529801324503	-0.917721854304636	12.2829139072848	1.0235761589404	7.78437086092715				0.948026490066225	0.0514966887417219	0.309933774834437	2.1917880794702	-14.5080794701987	3.30251655629139				0.271788079470199	-0.238834437086093	-0.916238410596027	-3.61960264900662	-6.00238410596027	-2.15470198675497			
84	1880	-0.216158940397351	0.114754966887417	-0.951523178807947	-1.64662251655629	0.695364238410596	-0.624900662251656				0.960953642384106	0.175788079470199	-0.0668609271523178	-0.966092715231788	-11.1721854304636	-1.98596026490066				-0.250172185430464	-0.0492715231788079	-0.88794701986755	0.567417218543046	-0.973509933774833	0.0797350993377501				0.320529801324503	-0.160529801324503	-0.949721854304636	12.5629139072848	1.3035761589404	7.78437086092715				0.948026490066225	0.0514966887417219	0.309933774834437	3.0317880794702	-15.0680794701987	3.58251655629139				0.271788079470199	-0.238834437086093	-0.900238410596026	-3.61960264900662	-5.16238410596027	-3.55470198675497			
85	1900	-0.200158940397351	0.114754966887417	-0.935523178807947	-1.92662251655629	0.695364238410596	-1.18490066225166				0.960953642384106	0.175788079470199	-0.0828609271523179	0.153907284768212	-5.57218543046358	-2.54596026490066				-0.250172185430464	-0.0492715231788079	-0.90394701986755	0.567417218543046	0.986490066225167	-0.48026490066225				0.320529801324503	-0.208529801324503	-0.933721854304636	12.2829139072848	2.4235761589404	5.82437086092715				0.932026490066225	0.0354966887417219	0.277933774834437	6.1117880794702	-16.1880794701987	4.14251655629139				0.271788079470199	-0.254834437086093	-0.884238410596026	-5.85960264900662	-5.16238410596027	-4.11470198675497			
86	1920	-0.200158940397351	0.0987549668874172	-0.951523178807947	-1.08662251655629	0.415364238410596	-0.904900662251656				0.976953642384106	0.175788079470199	-0.0508609271523178	-0.966092715231788	-3.89218543046358	-3.66596026490066				-0.234172185430464	-0.0492715231788079	-0.88794701986755	-0.272582781456954	-0.133509933774833	-0.76026490066225				0.320529801324503	-0.208529801324503	-0.933721854304636	8.64291390728477	0.4635761589404	3.02437086092715				0.932026490066225	0.0194966887417219	0.261933774834437	4.1517880794702	-14.2280794701987	1.90251655629139				0.239788079470199	-0.254834437086093	-0.868238410596026	-5.57960264900662	-6.84238410596027	-4.11470198675497			
87	1940	-0.200158940397351	0.0987549668874172	-0.935523178807947	-1.08662251655629	0.695364238410596	-0.344900662251656				0	0	0	0	0	0				0	0	0	0	0	0				0.288529801324503	-0.192529801324503	-0.933721854304636	3.88291390728477	-3.4564238410596	1.34437086092715				0.948026490066225	0.0354966887417219	0.245933774834437	1.6317880794702	-15.3480794701987	-0.337483443708608				0	0	0	0	0	0			
88	2060	-0.200158940397351	0.114754966887417	-0.951523178807947	-0.526622516556291	-0.984635761589404	-0.344900662251656				0.944953642384106	0.191788079470199	-0.0668609271523178	-3.48609271523179	0.867814569536424	-2.26596026490066				-0.234172185430464	-0.0652715231788079	-0.87194701986755	0.00741721854304636	0.426490066225167	-0.76026490066225				0.240529801324503	-0.144529801324503	-0.885721854304636	1.36291390728477	-1.2164238410596	-5.09562913907285				0.932026490066225	0.0674966887417219	0.181933774834437	-3.4082119205298	-8.90807947019868	-2.29748344370861				0.207788079470199	-0.190834437086093	-0.916238410596027	-3.89960264900662	-7.12238410596027	-0.194701986754968			
89	2080	-0.200158940397351	0.114754966887417	-0.951523178807947	-1.08662251655629	-0.704635761589404	-0.624900662251656				0.944953642384106	0.175788079470199	-0.0668609271523178	-4.04609271523179	4.50781456953642	0.53403973509934				-0.250172185430464	-0.0652715231788079	-0.87194701986755	0.287417218543046	0.706490066225167	-0.48026490066225				0.256529801324503	-0.144529801324503	-0.901721854304636	1.92291390728477	-0.3764238410596	-6.49562913907285				0.932026490066225	0.0834966887417219	0.181933774834437	-4.8082119205298	-8.34807947019868	-2.29748344370861				0.191788079470199	-0.190834437086093	-0.900238410596026	-1.65960264900662	-7.12238410596027	0.0852980132450323			
90	2100	-0.216158940397351	0.114754966887417	-0.951523178807947	-1.08662251655629	-0.704635761589404	-0.624900662251656				0.960953642384106	0.175788079470199	-0.0668609271523178	-3.20609271523179	7.02781456953642	1.65403973509934				-0.234172185430464	-0.0652715231788079	-0.88794701986755	0.847417218543046	0.426490066225167	-1.60026490066225				0.224529801324503	-0.160529801324503	-0.917721854304636	1.64291390728477	0.4635761589404	-5.37562913907285				0.916026490066225	0.0834966887417219	0.181933774834437	-1.4482119205298	-6.10807947019868	-1.17748344370861				0.191788079470199	-0.190834437086093	-0.900238410596026	-1.09960264900662	-6.28238410596027	0.365298013245032			
91	2120	-0.200158940397351	0.114754966887417	-0.935523178807947	-0.246622516556291	0.415364238410596	-0.904900662251656				0.976953642384106	0.191788079470199	-0.0828609271523179	-2.36609271523179	3.66781456953642	1.09403973509934				-0.250172185430464	-0.0652715231788079	-0.88794701986755	-0.832582781456954	-2.93350993377483	-1.60026490066225				0.224529801324503	-0.176529801324503	-0.917721854304636	0.802913907284768	1.0235761589404	-4.25562913907285				0.932026490066225	0.0674966887417219	0.181933774834437	1.9117880794702	-0.788079470198675	-0.617483443708608				0.175788079470199	-0.174834437086093	-0.916238410596027	-0.539602649006623	-3.20238410596026	0.365298013245032			
92	2140	-0.200158940397351	0.0987549668874172	-0.951523178807947	-0.246622516556291	-0.144635761589404	-1.46490066225166				0.976953642384106	0.175788079470199	-0.0668609271523178	-1.52609271523179	1.70781456953642	2.77403973509934				-0.250172185430464	-0.0652715231788079	-0.88794701986755	-0.552582781456954	-1.25350993377483	-1.32026490066225				0.224529801324503	-0.192529801324503	-0.917721854304636	-0.317086092715232	1.5835761589404	-3.13562913907285				0.948026490066225	0.0674966887417219	0.165933774834437	0.791788079470198	2.85192052980133	-0.0574834437086077				0.175788079470199	-0.190834437086093	-0.900238410596026	1.70039735099338	-2.36238410596027	0.925298013245032			
93	2160	-0.216158940397351	0.114754966887417	-0.951523178807947	-3.32662251655629	-0.144635761589404	-1.18490066225166				0.976953642384106	0.191788079470199	-0.0828609271523179	-0.126092715231788	1.42781456953642	2.77403973509934				-0.234172185430464	-0.0492715231788079	-0.88794701986755	1.12741721854305	0.426490066225167	-1.88026490066225				0.240529801324503	-0.176529801324503	-0.933721854304636	-0.0370860927152318	2.1435761589404	-2.01562913907285				0.948026490066225	0.0514966887417219	0.165933774834437	1.3517880794702	5.93192052980133	-0.0574834437086077				0.175788079470199	-0.206834437086093	-0.916238410596027	1.14039735099338	-1.24238410596026	3.16529801324503			
94	2180	-0.200158940397351	0.114754966887417	-0.935523178807947	-1.92662251655629	0.135364238410596	-0.904900662251656				0.960953642384106	0.207788079470199	-0.0988609271523179	1.27390728476821	1.42781456953642	3.05403973509934				-0.234172185430464	-0.0652715231788079	-0.87194701986755	0.00741721854304636	0.426490066225167	-1.32026490066225				0.240529801324503	-0.192529801324503	-0.949721854304636	1.08291390728477	3.2635761589404	0.784370860927152				0.980026490066225	0.0514966887417219	0.181933774834437	1.0717880794702	6.21192052980133	-1.17748344370861				0.191788079470199	-0.222834437086093	-0.916238410596027	1.98039735099338	-0.962384105960265	2.88529801324503			
95	2200	-0.216158940397351	0.114754966887417	-0.951523178807947	-0.246622516556291	-1.8246357615894	-0.344900662251656				0.976953642384106	0.207788079470199	-0.114860927152318	1.83390728476821	1.98781456953642	3.33403973509934				-0.250172185430464	-0.0492715231788079	-0.87194701986755	1.68741721854305	-0.693509933774834	-1.04026490066225				0.240529801324503	-0.208529801324503	-0.949721854304636	0.802913907284768	4.1035761589404	3.02437086092715				0.980026490066225	0.0514966887417219	0.181933774834437	1.3517880794702	5.93192052980133	0.502516556291392				0.191788079470199	-0.206834437086093	-0.948238410596026	0.580397350993377	0.717615894039735	2.32529801324503			
96	2220	-0.216158940397351	0.114754966887417	-0.951523178807947	-0.806622516556291	-1.2646357615894	0.215099337748344				1.00895364238411	0.191788079470199	-0.114860927152318	1.83390728476821	2.82781456953642	4.73403973509934				-0.250172185430464	-0.0492715231788079	-0.88794701986755	1.12741721854305	-1.53350993377483	-1.04026490066225				0.224529801324503	-0.208529801324503	-0.981721854304636	1.92291390728477	2.4235761589404	3.30437086092715				1.01202649006623	0.0514966887417219	0.149933774834437	-2.8482119205298	5.93192052980133	-0.617483443708608				0.207788079470199	-0.206834437086093	-0.964238410596026	1.70039735099338	0.157615894039735	2.32529801324503			
97	2240	-0.200158940397351	0.114754966887417	-0.983523178807947	-1.36662251655629	-1.5446357615894	1.05509933774834				0.992953642384106	0.175788079470199	-0.114860927152318	0.713907284768212	2.26781456953642	5.85403973509934				-0.266172185430464	-0.0492715231788079	-0.90394701986755	2.80741721854305	0.426490066225167	-1.60026490066225				0.240529801324503	-0.208529801324503	-0.997721854304636	5.00291390728477	-0.9364238410596	4.14437086092715				1.01202649006623	0.0514966887417219	0.165933774834437	-2.8482119205298	7.89192052980133	-1.17748344370861				0.175788079470199	-0.222834437086093	-0.980238410596026	0.300397350993377	-2.36238410596027	3.16529801324503			
98	2260	-0.184158940397351	0.114754966887417	-0.919523178807947	-11.7266225165563	-2.3846357615894	2.45509933774835				1.00895364238411	0.207788079470199	-0.0988609271523179	0.153907284768212	3.66781456953642	8.93403973509934				-0.234172185430464	-0.0652715231788079	-0.88794701986755	5.88741721854305	2.10649006622517	-3.56026490066225				0.240529801324503	-0.192529801324503	-1.02972185430464	4.72291390728477	-2.0564238410596	3.02437086092715				1.01202649006623	0.0674966887417219	0.181933774834437	-7.6082119205298	8.73192052980133	-2.29748344370861				0.159788079470199	-0.238834437086093	-0.980238410596026	-0.259602649006623	-5.72238410596027	7.08529801324503			
99	2280	-0.184158940397351	0.0987549668874172	-0.967523178807947	-2.20662251655629	-2.1046357615894	0.775099337748344				1.04095364238411	0.175788079470199	-0.114860927152318	2.67390728476821	-3.89218543046358	12.2940397350993				-0.218172185430464	-0.0652715231788079	-0.85594701986755	2.52741721854305	-3.49350993377483	-5.52026490066225				0.224529801324503	-0.208529801324503	-1.04572185430464	3.32291390728477	-0.9364238410596	1.62437086092715				1.02802649006623	0.0674966887417219	0.165933774834437	-5.6482119205298	9.29192052980133	-1.73748344370861				0.143788079470199	-0.254834437086093	-0.980238410596026	-4.17960264900662	-6.00238410596027	11.845298013245			
100	2300	-0.152158940397351	0.114754966887417	-0.935523178807947	-8.92662251655629	-0.984635761589404	1.61509933774834				1.04095364238411	0.191788079470199	-0.162860927152318	0.713907284768212	-5.85218543046358	16.4940397350993				-0.186172185430464	-0.0652715231788079	-0.85594701986755	2.52741721854305	-5.73350993377484	-8.32026490066225				0.208529801324503	-0.208529801324503	-1.01372185430464	11.1629139072848	-6.2564238410596	-1.45562913907285				1.04402649006623	0.0354966887417219	0.133933774834437	-2.8482119205298	9.29192052980133	-1.17748344370861				0.143788079470199	-0.238834437086093	-1.02823841059603	-17.0596026490066	-8.52238410596027	16.325298013245			
101	2320	-0.200158940397351	0.114754966887417	-0.935523178807947	-6.96662251655629	-4.9046357615894	2.73509933774834				1.04095364238411	0.207788079470199	-0.162860927152318	3.23390728476821	-3.89218543046358	19.8540397350993				-0.234172185430464	-0.0492715231788079	-0.90394701986755	0.287417218543046	-5.73350993377484	-8.32026490066225				0.160529801324503	-0.160529801324503	-1.07772185430464	5.28291390728477	-10.4564238410596	-2.85562913907285				1.07602649006623	0.0514966887417219	0.133933774834437	-6.7682119205298	12.6519205298013	-0.617483443708608				0.0477880794701987	-0.238834437086093	-1.10823841059603	-3.89960264900662	-3.48238410596027	19.685298013245			
102	2340	-0.216158940397351	0.114754966887417	-0.999523178807947	-5.84662251655629	-5.1846357615894	1.89509933774834				1.04095364238411	0.191788079470199	-0.178860927152318	13.3139072847682	-4.17218543046358	24.6140397350993				-0.282172185430464	-0.0652715231788079	-0.93594701986755	0.847417218543046	-6.57350993377483	-8.60026490066225				0.192529801324503	-0.224529801324503	-1.12572185430464	7.80291390728477	-8.4964238410596	-10.9756291390728				1.07602649006623	0.0674966887417219	0.0859337748344371	-11.2482119205298	13.7719205298013	-2.85748344370861				0.0957880794701987	-0.142834437086093	-1.06023841059603	10.6603973509934	8.27761589403974	23.885298013245			
103	2360	-0.248158940397351	0.130754966887417	-0.967523178807947	-11.4466225165563	-7.7046357615894	2.45509933774835				1.07295364238411	0.143788079470199	-0.258860927152318	13.5939072847682	4.78781456953642	27.4140397350993				-0.250172185430464	-0.0652715231788079	-0.93594701986755	3.64741721854305	-3.77350993377483	-10.5602649006623				0.224529801324503	-0.256529801324503	-1.12572185430464	1.36291390728477	-10.4564238410596	-18.8156291390729				1.07602649006623	0.0994966887417219	0.0859337748344371	-3.4082119205298	17.9719205298013	-0.337483443708608				0.0317880794701987	-0.206834437086093	-1.07623841059603	11.7803973509934	-1.52238410596026	32.005298013245			
104	2380	-0.280158940397351	0.130754966887417	-0.951523178807947	-4.44662251655629	-2.1046357615894	0.495099337748344				1.02495364238411	0.159788079470199	-0.274860927152318	-13.8460927152318	18.5078145695364	25.1740397350993				-0.298172185430464	-0.0652715231788079	-0.91994701986755	5.88741721854305	0.426490066225167	-10.8402649006623				0.144529801324503	-0.192529801324503	-1.10972185430464	-19.9170860927152	-15.2164238410596	-31.6956291390729				1.12402649006623	0.0514966887417219	0.0539337748344371	4.4317880794702	18.5319205298013	1.90251655629139				-0.0642119205298013	-0.302834437086093	-1.04423841059603	16.2603973509934	2.11761589403974	44.605298013245			
105	2400	-0.264158940397351	0.146754966887417	-0.967523178807947	-8.92662251655629	3.4953642384106	-0.904900662251656				0.960953642384106	0.319788079470199	-0.242860927152318	-31.4860927152318	31.1078145695364	20.4140397350993				-0.314172185430464	-0.0652715231788079	-0.91994701986755	0.287417218543046	-1.25350993377483	-10.8402649006623				0.0805298013245033	-0.176529801324503	-1.06172185430464	-31.1170860927152	-19.4164238410596	-43.1756291390729				1.09202649006623	0.0354966887417219	-0.0100662251655629	4.9917880794702	18.5319205298013	-0.617483443708608				-0.128211920529801	-0.254834437086093	-1.01223841059603	3.94039735099338	29.2776158940397	57.485298013245			
106	2420	-0.264158940397351	0.146754966887417	-0.967523178807947	-3.60662251655629	6.0153642384106	1.61509933774834				0.960953642384106	0.239788079470199	-0.258860927152318	-0.966092715231788	34.1878145695364	26.0140397350993				-0.282172185430464	-0.0492715231788079	-0.87194701986755	1.96741721854305	1.26649006622517	-10.5602649006623				0.144529801324503	-0.192529801324503	-1.04572185430464	-36.7170860927152	-23.0564238410596	-49.0556291390728				1.02802649006623	0.0834966887417219	-0.0100662251655629	4.4317880794702	17.6919205298013	-0.897483443708608				-0.0802119205298013	-0.222834437086093	-0.948238410596026	4.22039735099338	30.3976158940397	66.725298013245			
107	2440	-0.280158940397351	0.162754966887417	-0.951523178807947	-0.246622516556291	5.1753642384106	3.85509933774834				0.864953642384106	0.0637880794701987	-0.258860927152318	22.2739072847682	24.9478145695364	31.8940397350993				-0.330172185430464	-0.0492715231788079	-0.83994701986755	6.72741721854305	-4.33350993377483	-8.88026490066225				0.0805298013245033	-0.0965298013245033	-1.02972185430464	-48.7570860927152	-27.8164238410596	-58.5756291390729				1.04402649006623	0.0994966887417219	0.0219337748344371	-0.0482119205298018	20.2119205298013	1.90251655629139				-0.0322119205298013	-0.238834437086093	-1.02823841059603	9.82039735099338	26.1976158940397	70.925298013245			
108	2460	-0.264158940397351	0.130754966887417	-0.839523178807947	2.27337748344371	5.4553642384106	3.57509933774835				0.768953642384106	0.159788079470199	-0.354860927152318	23.6739072847682	32.5078145695364	24.0540397350993				-0.330172185430464	-0.0652715231788079	-0.82394701986755	8.96741721854305	-2.37350993377483	-7.76026490066225				0.0165298013245033	-0.160529801324503	-0.965721854304636	-46.7970860927152	-23.3364238410596	-65.5756291390729				1.06002649006623	0.0514966887417219	-0.0260662251655629	6.6717880794702	17.1319205298013	6.94251655629139				-0.0162119205298013	-0.174834437086093	-0.996238410596026	24.1003973509934	21.9976158940397	78.765298013245			
109	2480	-0.280158940397351	0.0987549668874172	-0.871523178807947	-1.64662251655629	2.9353642384106	1.89509933774834				0.800953642384106	0.303788079470199	-0.482860927152318	14.9939072847682	60.5078145695364	26.8540397350993				-0.362172185430464	-0.0812715231788079	-0.83994701986755	7.84741721854305	2.10649006622517	-9.16026490066225				0.0485298013245033	-0.192529801324503	-0.965721854304636	-38.6770860927152	-25.0164238410596	-66.9756291390729				1.04402649006623	0.00349668874172187	-0.0580662251655629	11.1517880794702	9.29192052980133	6.66251655629139				-0.0482119205298013	-0.174834437086093	-0.948238410596026	24.9403973509934	23.6776158940397	83.245298013245			
110	2500	-0.376158940397351	0.114754966887417	-0.999523178807947	-11.4466225165563	6.0153642384106	1.61509933774834				0.944953642384106	0.159788079470199	-0.402860927152318	23.3939072847682	92.9878145695364	38.6140397350993				-0.410172185430464	-0.0812715231788079	-0.88794701986755	11.487417218543	7.98649006622517	-9.16026490066225				0.128529801324503	-0.144529801324503	-0.949721854304636	-25.7970860927152	-30.6164238410596	-68.3756291390729				0.980026490066225	0.0514966887417219	-0.0580662251655629	5.2717880794702	-0.508079470198675	4.14251655629139				-0.0802119205298013	-0.222834437086093	-0.916238410596027	23.5403973509934	20.0376158940397	86.885298013245			
111	2520	-0.424158940397351	0.130754966887417	-0.935523178807947	-20.9666225165563	6.5753642384106	3.01509933774834				0.848953642384106	-0.000211920529801304	-0.306860927152318	8.83390728476821	98.5878145695364	33.8540397350993				-0.410172185430464	-0.0332715231788079	-0.85594701986755	20.727417218543	6.86649006622517	-9.16026490066225				0.128529801324503	-0.192529801324503	-1.01372185430464	-15.1570860927152	-38.4564238410596	-70.6156291390729				0.948026490066225	0.0514966887417219	-0.0260662251655629	15.6317880794702	-4.98807947019868	8.34251655629139				-0.0962119205298013	-0.222834437086093	-0.868238410596026	39.2203973509934	20.0376158940397	99.205298013245			
112	2540	-0.392158940397351	0.130754966887417	-0.903523178807947	-21.2466225165563	14.6953642384106	6.09509933774834				0.848953642384106	-0.0162119205298013	-0.242860927152318	-20.2860927152318	99.9878145695364	26.2940397350993				-0.362172185430464	-0.00127152317880793	-0.83994701986755	27.727417218543	7.98649006622517	-8.60026490066225				0.112529801324503	-0.208529801324503	-1.06172185430464	-15.4370860927152	-55.8164238410596	-72.0156291390729				0.980026490066225	-0.0285033112582781	0.00593377483443711	32.4317880794702	-7.50807947019868	10.8625165562914				-0.128211920529801	-0.254834437086093	-0.884238410596026	36.9803973509934	27.0376158940397	105.925298013245			
113	2560	-0.360158940397351	0.0987549668874172	-0.967523178807947	-26.2866225165563	12.4553642384106	6.65509933774834				0.928953642384106	0.0797880794701987	-0.0348609271523178	-32.6060927152318	107.547814569536	21.2540397350993				-0.410172185430464	-0.0332715231788079	-0.95194701986755	22.407417218543	0.706490066225167	-6.92026490066225				0.0805298013245033	-0.240529801324503	-0.981721854304636	-33.0770860927152	-65.8964238410596	-74.8156291390729				1.01202649006623	-0.0925033112582781	0.0219337748344371	33.5517880794702	-18.7080794701987	9.18251655629139				-0.0962119205298013	-0.238834437086093	-0.836238410596026	39.7803973509934	29.2776158940397	105.085298013245			
114	2580	-0.328158940397351	0.114754966887417	-0.999523178807947	-29.3666225165563	18.8953642384106	6.09509933774834				0.720953642384106	0.0957880794701987	0.173139072847682	0.433907284768212	123.227814569536	27.6940397350993				-0.394172185430464	-0.0492715231788079	-0.96794701986755	41.1674172185431	9.38649006622517	-7.48026490066225				0.0485298013245033	-0.224529801324503	-0.981721854304636	-52.1170860927152	-65.6164238410596	-84.0556291390728				0.932026490066225	-0.0765033112582781	0.0379337748344371	37.1917880794702	-24.5880794701987	6.10251655629139				-0.112211920529801	-0.222834437086093	-0.884238410596026	26.3403973509934	28.9976158940397	102.285298013245			
115	2600	-0.296158940397351	0.162754966887417	-1.04752317880795	-42.8066225165563	23.3753642384106	8.89509933774834				0.960953642384106	0.0957880794701987	0.125139072847682	27.0339072847682	148.987814569536	26.2940397350993				-0.362172185430464	-0.145271523178808	-0.91994701986755	31.927417218543	16.1064900662252	-5.80026490066225				-0.191470198675497	-0.224529801324503	-0.821721854304636	-77.0370860927152	-63.9364238410596	-87.4156291390729				0.884026490066225	-0.0285033112582781	-0.0420662251655629	25.7117880794702	-11.1480794701987	-3.41748344370861				-0.0802119205298013	-0.174834437086093	-0.788238410596027	8.14039735099338	29.8376158940397	101.725298013245			
116	2620	-0.216158940397351	0.210754966887417	-0.983523178807947	-35.5266225165563	28.1353642384106	12.5350993377483				0.944953642384106	0.143788079470199	0.221139072847682	18.0739072847682	143.107814569536	18.1740397350993				-0.330172185430464	-0.129271523178808	-0.96794701986755	25.4874172185431	17.5064900662252	-9.44026490066225				-0.127470198675497	-0.0485298013245033	-0.773721854304636	-73.6770860927152	-53.0164238410596	-73.6956291390729				0.900026490066225	-0.0925033112582781	-0.0580662251655629	30.1917880794702	2.01192052980133	-8.73748344370861				0.0317880794701987	-0.0628344370860927	-0.772238410596026	5.34039735099338	29.5576158940397	89.965298013245			
117	2640	-0.280158940397351	0.130754966887417	-1.07952317880795	-36.3666225165563	35.6953642384106	20.3750993377483				0.944953642384106	-0.208211920529801	0.525139072847682	24.5139072847682	131.627814569536	36.6540397350993				-0.330172185430464	-0.0812715231788079	-0.91994701986755	32.7674172185431	18.3464900662252	-8.32026490066225				-0.303470198675497	0.0154701986754967	-0.965721854304636	-10.1170860927152	-21.3764238410596	-59.1356291390729				0.980026490066225	-0.0445033112582781	0.165933774834437	30.1917880794702	18.5319205298013	-22.1774834437086				0.0477880794701987	-0.142834437086093	-0.852238410596026	2.26039735099338	35.1576158940397	70.645298013245			
118	2660	-0.360158940397351	0.114754966887417	-1.03152317880795	-52.3266225165563	43.2553642384106	26.2550993377483				1.05695364238411	-0.0642119205298013	0.685139072847682	25.3539072847682	140.027814569536	17.6140397350993				-0.298172185430464	-0.0652715231788079	-0.96794701986755	50.1274172185431	24.7864900662252	-10.2802649006622				-0.255470198675497	-0.112529801324503	-0.837721854304636	40.0029139072848	22.0235761589404	-42.3356291390729				0.772026490066225	0.291496688741722	0.501933774834437	89.2717880794702	33.0919205298013	-19.9374834437086				0.127788079470199	-0.222834437086093	-0.884238410596026	-11.1796026490066	55.3176158940397	49.925298013245			
119	2680	-0.360158940397351	0.242754966887417	-1.15952317880795	-58.2066225165563	49.9753642384106	32.4150993377484				1.10495364238411	-0.000211920529801304	0.669139072847682	22.5539072847682	131.627814569536	14.5340397350993				-0.378172185430464	-0.225271523178808	-1.09594701986755	27.447417218543	32.6264900662252	-5.80026490066225				0.224529801324503	0.127470198675497	-0.693721854304636	60.7229139072848	22.5835761589404	-7.33562913907285				0.980026490066225	0.291496688741722	0.213933774834437	30.7517880794702	65.0119205298013	-5.37748344370861				0.303788079470199	-0.286834437086093	-0.948238410596026	-22.3796026490066	82.7576158940397	36.765298013245			
120	2700	-0.312158940397351	0.354754966887417	-1.20752317880795	-51.2066225165563	61.4553642384106	39.6950993377484				0.912953642384106	-0.0802119205298013	0.717139072847682	-2.64609271523179	138.627814569536	27.1340397350993				-0.394172185430464	-0.305271523178808	-0.96794701986755	26.3274172185431	36.2664900662252	-5.52026490066225				0.592529801324503	0.223470198675497	-0.949721854304636	122.042913907285	40.7835761589404	21.7843708609272				1.09202649006623	0.179496688741722	0.453933774834437	77.7917880794702	41.7719205298013	3.86251655629139				0.463788079470199	-0.622834437086093	-0.980238410596026	-8.37960264900662	91.7176158940397	47.965298013245			
121	2720	-0.168158940397351	0.386754966887417	-0.887523178807947	-42.8066225165563	69.8553642384106	41.9350993377484				1.15295364238411	-0.240211920529801	0.941139072847682	5.47390728476821	155.427814569536	16.7740397350993				-0.330172185430464	-0.289271523178808	-0.91994701986755	35.567417218543	55.8664900662252	-11.1202649006623				0.496529801324503	-0.128529801324503	-1.41372185430464	107.762913907285	55.0635761589404	20.3843708609272				0.964026490066225	0.0994966887417219	0.869933774834437	102.99178807947	32.5319205298013	12.2625165562914				0.591788079470199	-1.03883443708609	-1.17223841059603	-32.4596026490066	76.8776158940397	78.765298013245			
122	2740	-0.200158940397351	0.370754966887417	-0.951523178807947	-32.7266225165563	69.5753642384106	40.8150993377484				1.42495364238411	-0.176211920529801	0.941139072847682	-2.08609271523179	115.107814569536	-5.62596026490066				-0.298172185430464	-0.321271523178808	-1.06394701986755	2.52741721854305	62.0264900662252	-10.8402649006623				0.224529801324503	-0.240529801324503	-1.50972185430464	25.4429139072848	30.1435761589404	-10.4156291390728				1.09202649006623	-0.188503311258278	1.12593377483444	82.8317880794702	63.3319205298013	0.502516556291392				0.575788079470199	-1.05483443708609	-1.04423841059603	-64.0996026490066	62.8776158940397	79.885298013245			
123	2760	-0.200158940397351	0.562754966887417	-0.999523178807947	-27.9666225165563	74.0553642384106	40.8150993377484				1.21695364238411	-0.0162119205298013	1.11713907284768	13.8739072847682	47.3478145695364	-20.4659602649007				-0.394172185430464	-0.209271523178808	-1.04794701986755	-12.032582781457	73.2264900662252	-9.16026490066225				0.416529801324503	-0.0165298013245033	-1.33372185430464	-20.7570860927152	21.7435761589404	-17.9756291390729				1.38002649006623	-0.0125033112582781	1.15793377483444	-3.4082119205298	53.2519205298013	-15.7374834437086				0.719788079470199	-0.846834437086093	-0.900238410596026	-23.2196026490066	58.6776158940397	31.725298013245			
124	2780	-0.152158940397351	0.530754966887417	-0.999523178807947	-2.76662251655629	88.6153642384106	40.5350993377483				1.18495364238411	0.0637880794701987	1.32513907284768	22.2739072847682	12.3478145695364	-23.5459602649007				-0.234172185430464	-0.145271523178808	-1.03194701986755	-13.152582781457	85.2664900662252	-8.04026490066225				0.608529801324503	0.223470198675497	-1.31772185430464	-24.1170860927152	25.3835761589404	-19.9356291390729				1.28402649006623	0.419496688741722	0.693933774834437	-11.2482119205298	28.0519205298013	-17.9774834437086				0.671788079470199	-0.734834437086093	-0.980238410596026	40.6203973509934	-7.40238410596027	-24.834701986755			
125	2800	-0.056158940397351	0.450754966887417	-1.04752317880795	-6.68662251655629	99.8153642384106	32.1350993377484				1.31295364238411	-0.0322119205298013	0.861139072847682	25.0739072847682	-13.4121854304636	-17.9459602649007				-0.0421721854304636	-0.305271523178808	-1.03194701986755	-5.31258278145695	96.4664900662252	-9.72026490066225				0.512529801324503	0.239470198675497	-1.23772185430464	-3.11708609271523	60.3835761589404	-2.01562913907285				1.20402649006623	0.451496688741722	0.853933774834437	-0.608211920529802	31.9719205298013	-16.2974834437086				0.527788079470199	-0.638834437086093	-0.916238410596027	57.7003973509934	-19.1623841059603	-38.834701986755			
126	2820	0.151841059602649	0.450754966887417	-1.01552317880795	3.11337748344371	113.815364238411	30.1750993377483				1.26495364238411	0.303788079470199	0.813139072847682	3.23390728476821	-6.13218543046358	-24.1059602649007				-0.0421721854304636	-0.305271523178808	-1.07994701986755	-3.07258278145695	104.306490066225	-11.1202649006623				0.480529801324503	0.111470198675497	-1.26972185430464	42.5229139072848	102.66357615894	3.02437086092715				1.30002649006623	0.323496688741722	0.693933774834437	-6.2082119205298	28.3319205298013	-17.1374834437086				0.575788079470199	-0.638834437086093	-0.884238410596026	57.4203973509934	44.1176158940397	-49.754701986755			
127	2840	0.231841059602649	0.466754966887417	-1.01552317880795	8.99337748344371	117.735364238411	31.2950993377483				1.20095364238411	0.175788079470199	1.02113907284768	28.1539072847682	2.26781456953642	-8.98596026490066				-0.0581721854304636	-0.273271523178808	-1.19194701986755	7.28741721854305	116.066490066225	-11.1202649006623				0.512529801324503	-0.000529801324503289	-1.39772185430464	29.0829139072848	115.26357615894	-10.4156291390728				1.38002649006623	0.275496688741722	0.629933774834437	0.791788079470198	29.7319205298013	-17.6974834437086				0.623788079470199	-0.686834437086093	-0.916238410596027	57.9803973509934	81.6376158940397	-71.314701986755			
128	2860	0.215841059602649	0.402754966887417	-1.03152317880795	22.1533774834437	130.055364238411	34.3750993377484				1.26495364238411	0.111788079470199	1.11713907284768	29.2739072847682	8.14781456953643	-8.98596026490066				0.0378278145695364	-0.161271523178808	-1.15994701986755	-0.832582781456954	126.146490066225	-15.0402649006623				0.432529801324503	-0.0645298013245033	-1.41372185430464	6.40291390728477	121.42357615894	-3.13562913907285				1.39602649006623	0.355496688741722	0.677933774834437	-4.2482119205298	30.8519205298013	-23.8574834437086				0.543788079470199	-0.830834437086093	-1.02823841059603	43.1403973509934	79.3976158940397	-69.354701986755			
129	2880	0.279841059602649	0.178754966887417	-0.983523178807947	28.0333774834437	148.255364238411	38.2950993377484				1.34495364238411	0.0157880794701987	0.733139072847682	36.2739072847682	-28.2521854304636	-7.86596026490066				0.0698278145695364	-0.161271523178808	-1.04794701986755	2.24741721854305	136.226490066225	-25.1202649006623				0.512529801324503	0.0634701986754967	-1.39772185430464	12.8429139072848	122.82357615894	3.02437086092715				1.36402649006623	0.355496688741722	0.629933774834437	-0.888211920529802	18.2519205298013	-21.3374834437086				0.607788079470199	-0.846834437086093	-0.980238410596026	1.98039735099338	95.0776158940397	-57.034701986755			
130	2900	0.199841059602649	0.242754966887417	-1.01552317880795	30.2733774834437	152.175364238411	35.4950993377484				1.32895364238411	0.0477880794701987	0.813139072847682	7.71390728476821	-35.2521854304636	-4.22596026490066				0.0218278145695364	-0.273271523178808	-0.99994701986755	-9.23258278145695	143.786490066225	-30.7202649006623				0.656529801324503	0.0314701986754967	-1.28572185430464	37.7629139072848	120.02357615894	6.10437086092715				1.36402649006623	0.275496688741722	0.677933774834437	-6.4882119205298	10.9719205298013	-19.3774834437086				0.831788079470199	-0.718834437086093	-0.868238410596026	-24.0596026490066	124.75761589404	-43.874701986755			
131	2920	0.295841059602649	0.274754966887417	-0.951523178807947	27.7533774834437	166.175364238411	33.8150993377484				1.31295364238411	0.111788079470199	0.733139072847682	21.4339072847682	-26.2921854304636	-15.1459602649007				0.165827814569536	-0.305271523178808	-0.98394701986755	-14.552582781457	158.066490066225	-27.9202649006623				0.848529801324503	-0.160529801324503	-1.17372185430464	45.6029139072848	129.26357615894	6.94437086092715				1.31602649006623	0.195496688741722	0.725933774834437	1.3517880794702	-0.228079470198675	-17.1374834437086				0.895788079470199	-0.606834437086093	-0.916238410596027	-24.0596026490066	132.87761589404	-55.074701986755			
132	2940	0.391841059602649	0.242754966887417	-0.903523178807947	35.8733774834437	171.215364238411	36.0550993377484				1.40895364238411	0.143788079470199	0.573139072847682	37.9539072847682	-31.3321854304636	-4.78596026490066				0.261827814569536	-0.209271523178808	-0.93594701986755	-16.792582781457	166.746490066225	-21.2002649006623				0.864529801324503	-0.176529801324503	-1.07772185430464	21.2429139072848	127.58357615894	3.02437086092715				1.31602649006623	0.227496688741722	0.677933774834437	-6.4882119205298	-4.42807947019868	-18.8174834437086				0.911788079470199	-0.478834437086093	-0.884238410596026	30.8203973509934	124.75761589404	-78.594701986755			
133	2960	0	0	0	0	0	0				0	0	0	0	0	0				0	0	0	0	0	0				0.560529801324503	-0.240529801324503	-0.789721854304636	-8.99708609271523	-11.2964238410596	0.224370860927152				0.964026490066225	0.163496688741722	0.165933774834437	-3.4082119205298	-4.14807947019868	-2.57748344370861				0.591788079470199	-0.206834437086093	-0.756238410596026	11.7803973509934	-3.20238410596026	-1.31470198675497			
134	2980	0.967841059602649	0.0187549668874172	0.104476821192053	0.313377483443709	-4.6246357615894	-4.54490066225166				0	0	0	0	0	0				1.01382781456954	-0.0332715231788079	-0.00794701986754963	-1.39258278145695	-4.05350993377483	-3.00026490066225				0.592529801324503	-0.208529801324503	-0.821721854304636	-9.27708609271523	-7.0964238410596	3.02437086092715				0.964026490066225	0.195496688741722	0.181933774834437	-1.1682119205298	-4.98807947019868	-2.57748344370861				0.575788079470199	-0.158834437086093	-0.708238410596026	15.1403973509934	3.79761589403974	0.925298013245032			
135	3000	0.983841059602649	-0.0132450331125828	0.136476821192053	0.593377483443709	-4.3446357615894	-3.42490066225166				0.960953642384106	0.111788079470199	0.269139072847682	1.27390728476821	-2.21218543046358	-2.54596026490066				0.997827814569536	-0.0652715231788079	-0.0239470198675496	-1.67258278145695	-0.413509933774833	-3.28026490066225				0.496529801324503	-0.288529801324503	-0.789721854304636	-10.9570860927152	-9.8964238410596	4.70437086092715				0.948026490066225	0.163496688741722	0.149933774834437	1.0717880794702	-7.22807947019868	-4.25748344370861				0.575788079470199	-0.206834437086093	-0.660238410596027	-5.29960264900662	1.27761589403974	1.20529801324503			
136	3020	0.967841059602649	-0.0132450331125828	0.120476821192053	-5.84662251655629	-3.2246357615894	-2.02490066225166				0.944953642384106	0.111788079470199	0.269139072847682	-1.52609271523179	-1.09218543046358	-2.54596026490066				1.01382781456954	-0.0652715231788079	-0.0399470198675496	-2.51258278145695	-4.61350993377483	-2.72026490066225				0.432529801324503	-0.288529801324503	-0.789721854304636	-17.3970860927152	-16.8964238410596	5.54437086092715				0.948026490066225	0.147496688741722	0.149933774834437	1.6317880794702	-5.54807947019868	-4.25748344370861				0.655788079470199	-0.270834437086093	-0.676238410596026	-12.5796026490066	2.95761589403974	-1.31470198675497			
137	3040	0.951841059602649	0.0187549668874172	0.120476821192053	-12.8466225165563	-2.3846357615894	-2.58490066225166				0.928953642384106	0.127788079470199	0.285139072847682	-0.686092715231788	-3.89218543046358	-1.70596026490066				0.949827814569536	-0.0492715231788079	-0.0559470198675496	-0.272582781456954	-6.29350993377483	-2.44026490066225				0.448529801324503	-0.208529801324503	-0.789721854304636	-20.7570860927152	-11.8564238410596	7.50437086092715				0.948026490066225	0.147496688741722	0.165933774834437	1.3517880794702	-5.26807947019868	-3.41748344370861				0.655788079470199	-0.206834437086093	-0.708238410596026	-9.77960264900662	2.95761589403974	-6.07470198675497			
138	3060	0.967841059602649	0.0827549668874172	0.120476821192053	-10.8866225165563	-1.8246357615894	-3.70490066225166				0.960953642384106	0.127788079470199	0.285139072847682	4.07390728476821	-1.37218543046358	-2.54596026490066				0.933827814569536	-0.00127152317880793	-0.0399470198675496	0.00741721854304636	-4.89350993377483	-1.32026490066225				0.496529801324503	-0.192529801324503	-0.789721854304636	-7.03708609271523	-2.6164238410596	5.54437086092715				0.948026490066225	0.163496688741722	0.181933774834437	2.7517880794702	-3.86807947019868	-3.97748344370861				0.415788079470199	-0.206834437086093	-0.532238410596027	-84.2596026490066	161.99761589404	-92.034701986755			
139	3080	0.679841059602649	0.0667549668874172	-0.359523178807947	-2.48662251655629	225.815364238411	31.0150993377483				0.384953642384106	0.0477880794701987	0.141139072847682	-24.4860927152318	-66.0521854304636	-17.1059602649007				0.597827814569536	-0.0492715231788079	-0.37594701986755	-41.432582781457	195.306490066225	-17.8402649006623				0.496529801324503	-0.240529801324503	-0.533721854304636	69.6829139072848	110.22357615894	-12.0956291390728				0.468026490066225	-0.0125033112582781	0.0859337748344371	-31.6882119205298	-88.7080794701987	-4.53748344370861				0.463788079470199	-0.110834437086093	-0.516238410596026	-73.8996026490066	151.63761589404	-78.874701986755			
140	3100	0.759841059602649	0.146754966887417	-0.231523178807947	12.3533774834437	230.575364238411	33.2550993377483				0.464953642384106	0.127788079470199	0.253139072847682	-22.8060927152318	-46.1721854304636	-18.7859602649007				0.533827814569536	-0.0332715231788079	-0.32794701986755	-26.872582781457	187.466490066225	-11.4002649006623				0.656529801324503	-0.0165298013245033	-0.501721854304636	62.9629139072848	48.9035761589404	-17.6956291390729				0.356026490066225	0.115496688741722	0.181933774834437	-51.2882119205298	-116.428079470199	-6.21748344370861				0.479788079470199	-0.126834437086093	-0.484238410596026	-61.2996026490066	121.39761589404	-67.674701986755			
141	3120	0.791841059602649	0.146754966887417	-0.247523178807947	16.5533774834437	221.055364238411	36.8950993377483				0.464953642384106	-0.0162119205298013	0.173139072847682	4.35390728476821	-48.1321854304636	-10.6659602649007				0.597827814569536	-0.113271523178808	-0.29594701986755	-24.072582781457	197.826490066225	-2.72026490066225				0.496529801324503	-0.240529801324503	-0.357721854304636	21.8029139072848	22.3035761589404	-6.49562913907285				0.340026490066225	0.0354966887417219	0.117933774834437	-1.4482119205298	-107.468079470199	-0.617483443708608				0.543788079470199	-0.222834437086093	-0.532238410596027	-49.8196026490066	67.3576158940397	-45.554701986755			
142	3140	0.871841059602649	0.0347549668874172	-0.151523178807947	23.5533774834437	214.895364238411	47.2550993377484				0.304953642384106	0.159788079470199	0.221139072847682	-18.6060927152318	-64.3721854304636	-16.2659602649007				0.757827814569536	-0.129271523178808	-0.26394701986755	-23.512582781457	193.066490066225	3.15973509933775				0.144529801324503	-0.144529801324503	-0.533721854304636	28.8029139072848	-27.8164238410596	-17.1356291390729				0.340026490066225	0.0194966887417219	-0.0420662251655629	-19.9282119205298	-76.9480794701987	-6.21748344370861				0.495788079470199	-0.334834437086093	-0.500238410596026	-26.8596026490066	6.87761589403974	-9.99470198675497			
143	3160	0.999841059602649	0.0187549668874172	-0.135523178807947	40.9133774834437	203.695364238411	45.2950993377484				0.400953642384106	-0.000211920529801304	0.173139072847682	-2.92609271523179	-58.4921854304636	-15.4259602649007				0.821827814569536	-0.113271523178808	-0.16794701986755	-29.392582781457	177.106490066225	4.27973509933775				0.240529801324503	0.143470198675497	-0.341721854304636	-12.3570860927152	-42.6564238410596	-24.9756291390729				0.436026490066225	0.115496688741722	0.213933774834437	-2.2882119205298	-55.9480794701987	-3.13748344370861				0.591788079470199	-0.302834437086093	-0.372238410596026	-26.0196026490066	-19.7223841059603	10.445298013245			
144	3180	0.935841059602649	0.0347549668874172	-0.183523178807947	29.7133774834437	186.335364238411	41.6550993377484				0.544953642384106	-0.000211920529801304	0.349139072847682	14.1539072847682	-40.5721854304636	-13.4659602649007				0.757827814569536	0.0147284768211921	-0.24794701986755	-30.792582781457	173.186490066225	-6.92026490066225				0.464529801324503	-0.0645298013245033	-0.0217218543046357	45.6029139072848	-9.6164238410596	-18.5356291390728				0.372026490066225	0.195496688741722	0.0699337748344371	-12.3682119205298	-64.3480794701987	2.18251655629139				0.559788079470199	-0.0788344370860927	-0.244238410596026	-56.2596026490066	-41.2823841059603	21.085298013245			
145	3200	0.759841059602649	0.114754966887417	-0.071523178807947	18.7933774834437	165.335364238411	34.3750993377484				0.416953642384106	-0.0962119205298013	0.189139072847682	8.83390728476821	-40.8521854304636	0.81403973509934				0.645827814569536	-0.00127152317880793	-0.16794701986755	-61.032582781457	155.266490066225	-5.24026490066225				0.272529801324503	-0.0325298013245033	-0.181721854304636	39.1629139072848	-38.4564238410596	-4.81562913907285				0.324026490066225	0.211496688741722	0.0699337748344371	-9.2882119205298	-45.8680794701987	6.94251655629139				0.543788079470199	0.0971655629139073	-0.196238410596026	-52.0596026490066	-50.5223841059603	18.285298013245			
146	3220	0.759841059602649	0.274754966887417	-0.135523178807947	1.43337748344371	143.495364238411	19.8150993377483				0.160953642384106	0.0157880794701987	0.125139072847682	-14.4060927152318	-43.6521854304636	-5.34596026490066				0.549827814569536	-0.0172715231788079	-0.18394701986755	-47.032582781457	149.386490066225	-7.76026490066225				0.224529801324503	0.127470198675497	-0.357721854304636	1.92291390728477	-56.0964238410596	2.46437086092715				0.436026490066225	0.131496688741722	0.197933774834437	1.9117880794702	-39.4280794701987	16.4625165562914				0.623788079470199	0.0491655629139073	-0.148238410596026	-49.5396026490066	-47.7223841059603	5.40529801324503			
147	3240	0.711841059602649	0.258754966887417	-0.087523178807947	30.8333774834437	119.135364238411	6.09509933774834				0.432953642384106	0.111788079470199	0.253139072847682	-7.40609271523179	-10.6121854304636	-5.90596026490066				0.629827814569536	0.0947284768211921	-0.24794701986755	-27.432582781457	147.146490066225	-7.76026490066225				0.272529801324503	0.127470198675497	-0.261721854304636	-1.15708609271523	-62.2564238410596	8.34437086092715				0.436026490066225	0.195496688741722	0.165933774834437	-8.1682119205298	-50.0680794701987	21.7825165562914				0.607788079470199	-0.0148344370860927	-0.132238410596026	-23.7796026490066	-43.2423841059603	-9.71470198675497			
148	3260	0.759841059602649	0.178754966887417	-0.087523178807947	42.5933774834437	103.455364238411	-1.46490066225166				0.528953642384106	0.0957880794701987	0.477139072847682	-5.44609271523179	-15.0921854304636	-2.82596026490066				0.661827814569536	0.254728476821192	-0.34394701986755	16.247417218543	141.266490066225	-14.2002649006623				0.368529801324503	-0.0645298013245033	-0.277721854304636	52.0429139072848	-29.4964238410596	14.7843708609272				0.324026490066225	0.227496688741722	0.149933774834437	-2.2882119205298	-48.1080794701987	23.1825165562914				0.511788079470199	0.0491655629139073	-0.100238410596026	4.78039735099338	-58.9223841059603	-21.754701986755			
149	3280	0.791841059602649	0.0667549668874172	-0.119523178807947	29.4333774834437	74.6153642384106	-3.70490066225166				0.304953642384106	0.159788079470199	0.429139072847682	4.07390728476821	-32.1721854304636	10.3340397350993				0.709827814569536	0.126728476821192	-0.0239470198675496	78.127417218543	101.226490066225	-21.4802649006623				0.256529801324503	-0.256529801324503	-0.549721854304636	39.4429139072848	-46.5764238410596	28.2243708609272				0.292026490066225	0.0994966887417219	0.133933774834437	2.4717880794702	-31.0280794701987	22.3425165562914				0.383788079470199	0.0651655629139073	-0.244238410596026	-1.09960264900662	-74.3223841059603	-20.914701986755			
150	3300	0.807841059602649	-0.0452450331125828	-0.087523178807947	21.3133774834437	42.4153642384106	-3.14490066225166				0.320953642384106	0.255788079470199	0.189139072847682	12.7539072847682	-32.4521854304636	-0.585960264900661				0.741827814569536	0.142728476821192	-0.0239470198675496	55.1674172185431	61.4664900662252	-11.1202649006623				0.352529801324503	-0.304529801324503	-0.501721854304636	-16.5570860927152	-68.6964238410596	33.8243708609272				0.436026490066225	0.131496688741722	0.101933774834437	-18.8082119205298	-17.5880794701987	13.6625165562914				0.303788079470199	-0.0308344370860927	-0.308238410596026	9.82039735099338	-86.6423841059603	-20.914701986755			
151	3320	0.759841059602649	-0.0932450331125828	-0.039523178807947	13.1933774834437	16.6553642384106	-2.86490066225166				0.656953642384106	0.255788079470199	0.157139072847682	2.67390728476821	9.82781456953643	2.21403973509934				0.869827814569536	-0.177271523178808	0.13605298013245	85.967417218543	62.0264900662252	-10.0002649006623				0.672529801324503	-0.224529801324503	-0.485721854304636	-44.5570860927152	-61.6964238410596	19.5443708609272				0.660026490066225	0.211496688741722	0.0859337748344371	-17.1282119205298	-14.7880794701987	5.82251655629139				0.319788079470199	-0.0948344370860927	-0.244238410596026	-1.09960264900662	-84.9623841059603	-23.994701986755			
152	3340	0.823841059602649	-0.0452450331125828	0.072476821192053	1.43337748344371	11.6153642384106	-6.78490066225166				0.752953642384106	0.287788079470199	0.333139072847682	3.51390728476821	22.9878145695364	5.29403973509934				1.04582781456954	-0.385271523178808	0.21605298013245	85.967417218543	41.8664900662252	0.0797350993377501				0.640529801324503	-0.128529801324503	-0.437721854304636	-19.6370860927152	-56.6564238410596	20.9443708609272				0.740026490066225	0.163496688741722	0.00593377483443711	-6.2082119205298	-20.3880794701987	-0.337483443708608				0.399788079470199	-0.0468344370860927	-0.212238410596026	-28.5396026490066	-57.5223841059603	-21.474701986755			
153	3360	0.871841059602649	0.114754966887417	0.280476821192053	-5.84662251655629	9.3753642384106	-2.30490066225166				0.816953642384106	0.0957880794701987	0.381139072847682	22.2739072847682	32.7878145695364	4.73403973509934				1.06182781456954	-0.353271523178808	0.10405298013245	33.8874172185431	25.9064900662252	4.83973509933775				0.528529801324503	-0.112529801324503	-0.453721854304636	6.96291390728477	-33.6964238410596	24.0243708609272				0.740026490066225	0.179496688741722	0.133933774834437	-1.4482119205298	-13.9480794701987	-3.69748344370861				0.575788079470199	-0.0788344370860927	-0.372238410596026	-30.7796026490066	-43.2423841059603	-19.234701986755			
154	3380	0.951841059602649	0.0827549668874172	0.360476821192053	2.83337748344371	14.6953642384106	8.61509933774835				0.976953642384106	0.159788079470199	0.349139072847682	7.43390728476821	2.54781456953642	1.93403973509934				0.981827814569536	-0.193271523178808	0.15205298013245	-24.352582781457	25.0664900662252	7.63973509933775				0.576529801324503	-0.208529801324503	-0.677721854304636	-10.1170860927152	-37.0564238410596	11.9843708609272				0.916026490066225	0.131496688741722	0.117933774834437	-4.2482119205298	-7.50807947019868	-7.89748344370861				0.735788079470199	-0.110834437086093	-0.548238410596027	-20.1396026490066	-36.2423841059603	-13.634701986755			
155	3400	1.14384105960265	0.00275496688741723	0.424476821192053	8.43337748344371	22.5353642384106	9.73509933774834				0.992953642384106	0.191788079470199	0.333139072847682	-7.12609271523179	14.5878145695364	6.97403973509934				1.07782781456954	0.0147284768211921	0.23205298013245	-44.792582781457	23.6664900662252	14.6397350993378				0.752529801324503	-0.208529801324503	-0.869721854304636	-28.5970860927152	-46.8564238410596	4.14437086092715				1.06002649006623	0.131496688741722	0.213933774834437	-11.8082119205298	-3.58807947019868	-9.01748344370861				0.895788079470199	-0.126834437086093	-0.660238410596027	1.98039735099338	-32.8823841059603	-11.674701986755			
156	3420	1.11184105960265	-0.0452450331125828	0.376476821192053	-1.64662251655629	22.5353642384106	0.215099337748344				1.15295364238411	0.0157880794701987	0.381139072847682	-7.96609271523179	31.6678145695364	1.93403973509934				1.12582781456954	0.126728476821192	0.21605298013245	-33.872582781457	22.2664900662252	13.7997350993378				0.912529801324503	-0.192529801324503	-0.709721854304636	-26.0770860927152	-40.4164238410596	2.74437086092715				1.09202649006623	0.227496688741722	0.197933774834437	-13.2082119205298	-8.62807947019868	-10.6974834437086				0.975788079470199	-0.126834437086093	-0.644238410596026	15.9803973509934	-41.2823841059603	-11.674701986755			
157	3440	1.03184105960265	0.0347549668874172	0.392476821192053	-10.8866225165563	25.6153642384106	3.85509933774834				1.00895364238411	0.0957880794701987	0.493139072847682	-13.2860927152318	28.5878145695364	-5.62596026490066				1.07782781456954	0.0467284768211921	0.16805298013245	-3.63258278145695	19.1864900662252	8.47973509933775				0.576529801324503	-0.272529801324503	-0.661721854304636	2.76291390728477	-23.6164238410596	12.2643708609272				0.996026490066225	0.163496688741722	0.229933774834437	-7.8882119205298	-5.82807947019868	-9.29748344370861				0.831788079470199	-0.158834437086093	-0.548238410596027	8.14039735099338	-40.4423841059603	-10.834701986755			
158	3460	0.951841059602649	0.146754966887417	0.344476821192053	-10.6066225165563	26.4553642384106	8.33509933774834				0.912953642384106	0.0477880794701987	0.573139072847682	0.993907284768212	10.1078145695364	-6.74596026490066				0.981827814569536	-0.0652715231788079	0.15205298013245	4.48741721854305	20.5864900662252	3.71973509933775				0.416529801324503	-0.272529801324503	-0.709721854304636	-2.55708609271523	-13.5364238410596	22.0643708609272				0.932026490066225	0.163496688741722	0.181933774834437	-11.2482119205298	0.611920529801325	-7.33748344370861				0.783788079470199	-0.174834437086093	-0.564238410596026	-18.4596026490066	-29.5223841059603	-13.354701986755			
159	3480	1.04784105960265	0.0347549668874172	0.280476821192053	1.99337748344371	28.4153642384106	6.65509933774834				0.960953642384106	0.127788079470199	0.397139072847682	-13.5660927152318	6.74781456953642	-0.585960264900661				0.997827814569536	-0.0972715231788079	0.15205298013245	-9.23258278145695	19.4664900662252	1.47973509933775				0.592529801324503	-0.144529801324503	-0.725721854304636	-26.3570860927152	8.8635761589404	16.4643708609272				0.900026490066225	0.163496688741722	0.165933774834437	-19.0882119205298	7.05192052980133	-6.77748344370861				0.815788079470199	-0.0788344370860927	-0.660238410596027	-26.0196026490066	-21.1223841059603	-14.194701986755			
160	3500	0.999841059602649	0.0347549668874172	0.280476821192053	-6.40662251655629	24.7753642384106	1.61509933774834				0.880953642384106	0.127788079470199	0.477139072847682	-21.4060927152318	20.4678145695364	-3.10596026490066				1.01382781456954	-0.161271523178808	0.18405298013245	-19.592582781457	14.4264900662252	4.27973509933775				0.736529801324503	-0.0805298013245033	-0.661721854304636	-42.8770860927152	21.7435761589404	7.78437086092715				0.916026490066225	0.211496688741722	0.165933774834437	-17.9682119205298	11.8119205298013	-6.49748344370861				0.799788079470199	-0.0148344370860927	-0.628238410596026	2.26039735099338	-21.1223841059603	-12.514701986755			
161	3520	0.999841059602649	0.00275496688741723	0.264476821192053	-1.08662251655629	18.8953642384106	-5.38490066225166				0.848953642384106	0.159788079470199	0.349139072847682	-10.4860927152318	12.3478145695364	-5.06596026490066				1.01382781456954	-0.225271523178808	0.23205298013245	-15.392582781457	6.58649006622517	5.11973509933775				0.672529801324503	-0.0965298013245033	-0.725721854304636	-35.8770860927152	8.8635761589404	5.26437086092715				0.868026490066225	0.243496688741722	0.181933774834437	-12.0882119205298	18.2519205298013	-5.09748344370861				0.719788079470199	-0.126834437086093	-0.564238410596026	34.4603973509934	-21.6823841059603	-4.67470198675497			
162	3540	0.887841059602649	-0.0292450331125828	0.280476821192053	4.23337748344371	10.2153642384106	-7.62490066225166				0.832953642384106	0.175788079470199	0.333139072847682	-0.406092715231788	14.3078145695364	-4.50596026490066				0.981827814569536	-0.193271523178808	0.18405298013245	-13.152582781457	-2.65350993377483	4.55973509933775				0.592529801324503	-0.0965298013245033	-0.709721854304636	-16.8370860927152	-2.3364238410596	4.70437086092715				0.852026490066225	0.211496688741722	0.197933774834437	-11.5282119205298	22.4519205298013	-5.93748344370861				0.687788079470199	-0.190834437086093	-0.516238410596026	27.7403973509934	-21.1223841059603	2.32529801324503			
163	3560	0.903841059602649	-0.125245033112583	0.296476821192053	10.6733774834437	4.8953642384106	-2.30490066225166				0.928953642384106	0.0477880794701987	0.445139072847682	-0.686092715231788	25.7878145695364	0.25403973509934				0.949827814569536	-0.113271523178808	0.10405298013245	-12.592582781457	-6.29350993377483	6.79973509933775				0.624529801324503	-0.112529801324503	-0.597721854304636	-16.5570860927152	1.0235761589404	-1.45562913907285				0.868026490066225	0.211496688741722	0.197933774834437	-12.9282119205298	28.0519205298013	-4.53748344370861				0.735788079470199	-0.110834437086093	-0.596238410596026	15.1403973509934	-12.1623841059603	12.685298013245			
164	3580	0.903841059602649	-0.0932450331125828	0.296476821192053	0.593377483443709	0.415364238410596	-0.624900662251656				0.944953642384106	0.0477880794701987	0.429139072847682	-10.7660927152318	10.3878145695364	1.09403973509934				0.965827814569536	-0.0652715231788079	0.0720529801324504	-14.552582781457	0.706490066225167	6.23973509933775				0.800529801324503	-0.0325298013245033	-0.613721854304636	-25.7970860927152	-1.7764238410596	-4.53562913907285				0.932026490066225	0.195496688741722	0.261933774834437	-5.9282119205298	33.0919205298013	-2.57748344370861				0.735788079470199	-0.0948344370860927	-0.596238410596026	19.3403973509934	-14.1223841059603	18.005298013245			
165	3600	0.951841059602649	-0.0932450331125828	0.264476821192053	-7.52662251655629	-0.424635761589404	-1.46490066225166				0.912953642384106	0.159788079470199	0.349139072847682	-4.60609271523179	5.90781456953642	2.21403973509934				0.981827814569536	-0.0332715231788079	0.12005298013245	-4.47258278145695	-2.37350993377483	3.43973509933775				0.784529801324503	-0.0325298013245033	-0.613721854304636	-27.4770860927152	-0.0964238410596001	-0.0556291390728476				0.948026490066225	0.211496688741722	0.341933774834437	-4.5282119205298	19.9319205298013	-2.57748344370861				0.687788079470199	-0.190834437086093	-0.564238410596026	29.1403973509934	-21.9623841059603	16.325298013245			
166	3620	0.967841059602649	-0.0932450331125828	0.248476821192053	-10.6066225165563	3.7753642384106	-2.30490066225166				0.944953642384106	0.143788079470199	0.317139072847682	-6.56609271523179	13.1878145695364	1.09403973509934				0.997827814569536	-0.0972715231788079	0.0880529801324504	5.04741721854305	2.38649006622517	0.91973509933775				0.624529801324503	-0.112529801324503	-0.597721854304636	-14.5970860927152	-1.2164238410596	4.70437086092715				0.916026490066225	0.211496688741722	0.213933774834437	-7.6082119205298	11.2519205298013	-2.29748344370861				0.767788079470199	-0.222834437086093	-0.548238410596027	4.22039735099338	-15.2423841059603	10.445298013245			
167	3640	0.919841059602649	-0.0452450331125828	0.200476821192053	-8.08662251655629	5.7353642384106	-0.904900662251656				0.944953642384106	0.0477880794701987	0.317139072847682	-6.28609271523179	18.5078145695364	3.33403973509934				0.965827814569536	-0.145271523178808	0.0720529801324504	14.567417218543	2.66649006622517	2.31973509933775				0.640529801324503	-0.0485298013245033	-0.613721854304636	-4.51708609271523	9.1435761589404	5.26437086092715				0.932026490066225	0.179496688741722	0.261933774834437	1.0717880794702	19.6519205298013	-0.617483443708608				0.799788079470199	-0.126834437086093	-0.660238410596027	-1.65960264900662	-10.7623841059603	9.60529801324503			
168	3660	0.935841059602649	0.00275496688741723	0.184476821192053	-0.526622516556291	5.4553642384106	1.05509933774834				0.976953642384106	0.0637880794701987	0.477139072847682	-3.48609271523179	18.2278145695364	5.85403973509934				0.981827814569536	-0.145271523178808	0.0400529801324504	5.04741721854305	5.46649006622517	1.47973509933775				0.704529801324503	-0.0645298013245033	-0.693721854304636	-1.71708609271523	15.0235761589404	6.10437086092715				0.948026490066225	0.179496688741722	0.277933774834437	1.6317880794702	17.4119205298013	2.46251655629139				0.751788079470199	-0.0788344370860927	-0.692238410596026	21.5803973509934	-12.7223841059603	4.28529801324503			
169	3680	0.999841059602649	-0.0132450331125828	0.152476821192053	2.55337748344371	5.7353642384106	-0.0649006622516557				0.992953642384106	0.127788079470199	0.397139072847682	-2.92609271523179	4.78781456953642	7.81403973509934				0.965827814569536	-0.0812715231788079	0.0240529801324504	-4.19258278145695	5.18649006622517	0.0797350993377501				0.752529801324503	-0.160529801324503	-0.757721854304636	-24.9570860927152	6.3435761589404	6.38437086092715				0.980026490066225	0.195496688741722	0.245933774834437	5.2717880794702	19.0919205298013	4.70251655629139				0.703788079470199	-0.110834437086093	-0.644238410596026	34.4603973509934	-7.96238410596027	-0.474701986754968			
170	3700	1.06384105960265	0.0187549668874172	0.216476821192053	-6.40662251655629	3.7753642384106	-2.30490066225166				0.960953642384106	0.127788079470199	0.253139072847682	-5.72609271523179	6.74781456953642	6.41403973509934				0.981827814569536	-0.0652715231788079	0.0400529801324504	-7.55258278145695	7.14649006622517	-1.04026490066225				0.688529801324503	-0.176529801324503	-0.693721854304636	-17.9570860927152	6.3435761589404	-0.335629139072848				0.980026490066225	0.163496688741722	0.245933774834437	3.0317880794702	18.5319205298013	4.70251655629139				0.735788079470199	-0.190834437086093	-0.628238410596026	24.1003973509934	-5.16238410596027	-1.87470198675497			
171	3720	1.01584105960265	0.0187549668874172	0.152476821192053	-5.00662251655629	-3.5046357615894	-6.22490066225166				0.976953642384106	0.0477880794701987	0.317139072847682	-11.0460927152318	12.9078145695364	2.49403973509934				0.981827814569536	-0.0492715231788079	0.0240529801324504	-3.07258278145695	4.90649006622517	-1.32026490066225				0.640529801324503	-0.0965298013245033	-0.645721854304636	4.44291390728477	5.2235761589404	-0.335629139072848				0.996026490066225	0.147496688741722	0.229933774834437	4.4317880794702	16.8519205298013	4.14251655629139				0.751788079470199	-0.238834437086093	-0.644238410596026	22.4203973509934	-4.60238410596027	-0.194701986754968			
172	3740	0.983841059602649	0.0347549668874172	0.104476821192053	1.15337748344371	-1.8246357615894	-5.10490066225166				1.00895364238411	0.0797880794701987	0.333139072847682	-10.2060927152318	7.86781456953642	4.45403973509934				1.01382781456954	-0.0652715231788079	0.00805298013245037	-1.11258278145695	5.74649006622517	-1.60026490066225				0.656529801324503	-0.0965298013245033	-0.693721854304636	6.96291390728477	4.3835761589404	3.02437086092715				0.996026490066225	0.147496688741722	0.245933774834437	4.9917880794702	12.6519205298013	6.66251655629139				0.735788079470199	-0.222834437086093	-0.660238410596027	26.3403973509934	-3.76238410596027	1.20529801324503			
173	3760	0.967841059602649	0.0187549668874172	0.104476821192053	2.55337748344371	-0.704635761589404	-3.98490066225166				0.992953642384106	0.111788079470199	0.349139072847682	-6.28609271523179	4.22781456953642	4.45403973509934				1.01382781456954	-0.0812715231788079	-0.00794701986754963	5.60741721854305	1.82649006622517	-2.16026490066225				0.496529801324503	-0.160529801324503	-0.821721854304636	-0.317086092715232	0.7435761589404	-5.09562913907285				0.980026490066225	0.147496688741722	0.229933774834437	3.0317880794702	7.33192052980133	9.18251655629139				0.671788079470199	-0.206834437086093	-0.676238410596026	25.7803973509934	-4.32238410596027	5.40529801324503			
174	3780	0.983841059602649	0.0187549668874172	0.136476821192053	-1.92662251655629	-3.2246357615894	-4.54490066225166				0.960953642384106	0.159788079470199	0.349139072847682	-1.52609271523179	1.14781456953642	4.45403973509934				0.997827814569536	-0.0652715231788079	0.00805298013245037	0.00741721854304636	0.146490066225167	-0.48026490066225				0.688529801324503	-0.208529801324503	-0.757721854304636	-1.15708609271523	3.5435761589404	6.38437086092715				0.948026490066225	0.163496688741722	0.229933774834437	-0.0482119205298018	8.45192052980133	7.78251655629139				0.655788079470199	-0.206834437086093	-0.676238410596026	15.7003973509934	-4.88238410596027	9.60529801324503			
175	3800	0.967841059602649	-0.0292450331125828	0.120476821192053	-1.64662251655629	-0.984635761589404	-3.14490066225166				0.912953642384106	0.127788079470199	0.269139072847682	-5.16609271523179	-1.37218543046358	1.93403973509934				0.965827814569536	-0.0812715231788079	0.0240529801324504	-5.59258278145695	-0.413509933774833	0.63973509933775				0.672529801324503	-0.224529801324503	-0.789721854304636	-0.877086092715232	-0.6564238410596	5.54437086092715				0.964026490066225	0.147496688741722	0.213933774834437	2.7517880794702	10.1319205298013	5.82251655629139				0.671788079470199	-0.174834437086093	-0.676238410596026	12.3403973509934	-7.40238410596027	11.845298013245			
176	3820	0.935841059602649	0.0187549668874172	0.168476821192053	-16.2066225165563	6.0153642384106	-0.0649006622516557				0.928953642384106	0.111788079470199	0.285139072847682	-8.80609271523179	0.867814569536424	0.25403973509934				0.949827814569536	-0.0332715231788079	0.0240529801324504	-11.192582781457	-0.693509933774834	1.19973509933775				0.656529801324503	-0.208529801324503	-0.741721854304636	-12.3570860927152	-8.7764238410596	3.30437086092715				0.948026490066225	0.147496688741722	0.181933774834437	1.9117880794702	10.9719205298013	3.58251655629139				0.671788079470199	-0.142834437086093	-0.628238410596026	14.5803973509934	-6.84238410596027	9.88529801324503			
177	3840	0.951841059602649	0.0507549668874172	0.152476821192053	-7.80662251655629	6.8553642384106	-0.624900662251656				0.992953642384106	0.127788079470199	0.333139072847682	-8.52609271523179	1.42781456953642	1.65403973509934				0.965827814569536	0.0147284768211921	0.0240529801324504	-8.11258278145695	0.426490066225167	0.35973509933775				0.624529801324503	-0.144529801324503	-0.741721854304636	-3.67708609271523	-12.9764238410596	7.22437086092715				0.964026490066225	0.163496688741722	0.245933774834437	0.791788079470198	7.05192052980133	2.74251655629139				0.671788079470199	-0.174834437086093	-0.628238410596026	15.7003973509934	-6.00238410596027	4.84529801324503			
