No	Time	12-AccX	12-AccY	12-AccZ	12-GyroX	12-GyroY	12-GyroZ	13-AccX	13-AccY	13-AccZ	13-GyroX	13-GyroY	13-GyroZ	14-AccX	14-AccY	14-AccZ	14-GyroX	14-GyroY	14-GyroZ	15-AccX	15-AccY	15-AccZ	15-GyroX	15-GyroY	15-GyroZ	16-AccX	16-AccY	16-AccZ	16-GyroX	16-GyroY	16-GyroZ	17-AccX	17-AccY	17-AccZ	17-GyroX	17-GyroY	17-GyroZ
0	100	0	0	0	0	0	0				0	0	0	0	0	0				0	0	0	0	0	0				0.224529801324503	0.0634701986754967	-0.917721854304636	0.242913907284768	2.1435761589404	2.46437086092715				0.900026490066225	0.0514966887417219	0.373933774834437	0.511788079470198	2.01192052980133	-1.73748344370861				0.0477880794701987	-0.510834437086093	-0.788238410596027	0.580397350993377	-2.64238410596027	-3.83470198675497			
1	120	-0.216158940397351	0.0507549668874172	-0.951523178807947	1.99337748344371	0.975364238410596	-1.46490066225166				0.992953642384106	0.127788079470199	-0.0508609271523178	-4.32609271523179	6.18781456953642	-5.34596026490066				-0.218172185430464	-0.161271523178808	-0.90394701986755	-0.832582781456954	0.986490066225167	0.0797350993377501				0.256529801324503	0.0474701986754967	-0.949721854304636	-3.39708609271523	-2.6164238410596	4.14437086092715				0.900026490066225	0.0674966887417219	0.373933774834437	-1.7282119205298	1.45192052980132	-1.73748344370861				0.0317880794701987	-0.510834437086093	-0.820238410596026	-1.37960264900662	-2.64238410596027	-2.99470198675497			
2	140	-0.200158940397351	0.0187549668874172	-0.951523178807947	2.55337748344371	0.695364238410596	-1.74490066225166				0.976953642384106	0.143788079470199	-0.0508609271523178	-5.16609271523179	5.06781456953642	-6.46596026490066				-0.202172185430464	-0.177271523178808	-0.90394701986755	0.00741721854304636	-0.133509933774833	0.0797350993377501				0.256529801324503	0.0474701986754967	-0.981721854304636	-6.19708609271523	-5.1364238410596	3.86437086092715				0.916026490066225	0.0674966887417219	0.373933774834437	-0.608211920529802	2.29192052980133	-2.85748344370861				0.0317880794701987	-0.510834437086093	-0.804238410596027	1.70039735099338	-3.48238410596027	-4.95470198675497			
3	160	-0.200158940397351	0.0187549668874172	-0.951523178807947	-2.76662251655629	0.695364238410596	-1.18490066225166				0.976953642384106	0.143788079470199	-0.0668609271523178	-5.16609271523179	1.42781456953642	-6.46596026490066				-0.186172185430464	-0.177271523178808	-0.85594701986755	-1.11258278145695	-0.413509933774833	-0.76026490066225				0.272529801324503	0.0634701986754967	-0.997721854304636	-6.75708609271523	-4.8564238410596	3.30437086092715				0.932026490066225	0.0674966887417219	0.373933774834437	1.6317880794702	-0.228079470198675	-2.85748344370861				0.0317880794701987	-0.494834437086093	-0.804238410596027	1.70039735099338	-3.48238410596027	-8.31470198675497			
4	180	-0.200158940397351	0.0347549668874172	-0.951523178807947	-1.64662251655629	-0.144635761589404	-0.624900662251656				0.992953642384106	0.175788079470199	-0.0348609271523178	-1.52609271523179	1.70781456953642	-3.66596026490066				-0.202172185430464	-0.161271523178808	-0.87194701986755	-0.552582781456954	-0.973509933774833	-1.32026490066225				0.256529801324503	0.0634701986754967	-0.997721854304636	-7.31708609271523	-5.4164238410596	5.26437086092715				0.916026490066225	0.0834966887417219	0.373933774834437	4.1517880794702	1.17192052980133	-3.41748344370861				0.0157880794701987	-0.510834437086093	-0.804238410596027	-0.539602649006623	-5.16238410596027	-9.71470198675497			
5	200	-0.216158940397351	0.0507549668874172	-0.967523178807947	-0.246622516556291	0.135364238410596	0.215099337748344				0.992953642384106	0.127788079470199	-0.0508609271523178	2.67390728476821	-1.37218543046358	-1.98596026490066				-0.202172185430464	-0.161271523178808	-0.88794701986755	-1.95258278145695	-0.133509933774833	-0.20026490066225				0.256529801324503	0.0634701986754967	-0.981721854304636	-3.39708609271523	-5.4164238410596	5.54437086092715				0.916026490066225	0.0674966887417219	0.373933774834437	8.3517880794702	0.611920529801325	-3.13748344370861				0.0157880794701987	-0.510834437086093	-0.804238410596027	-4.73960264900662	-6.28238410596027	-11.674701986755			
6	220	-0.200158940397351	0.0507549668874172	-0.967523178807947	-1.36662251655629	0.975364238410596	1.33509933774834				1.00895364238411	0.175788079470199	-0.00286092715231785	3.79390728476821	-4.17218543046358	-3.38596026490066				-0.202172185430464	-0.177271523178808	-0.90394701986755	-1.11258278145695	0.146490066225167	-0.48026490066225				0.256529801324503	0.0634701986754967	-0.965721854304636	-2.83708609271523	-3.7364238410596	4.98437086092715				0.932026490066225	0.0674966887417219	0.373933774834437	13.1117880794702	2.85192052980133	-2.01748344370861				0.0157880794701987	-0.526834437086093	-0.804238410596027	-5.57960264900662	-4.88238410596027	-13.354701986755			
7	240	-0.200158940397351	0.0347549668874172	-0.951523178807947	-1.36662251655629	1.8153642384106	0.775099337748344				1.00895364238411	0.143788079470199	-0.0828609271523179	8.83390728476821	-15.6521854304636	-3.66596026490066				-0.202172185430464	-0.177271523178808	-0.88794701986755	-0.552582781456954	0.146490066225167	-0.20026490066225				0.240529801324503	0.0954701986754967	-0.949721854304636	-1.15708609271523	-0.6564238410596	4.70437086092715				0.948026490066225	0.0834966887417219	0.373933774834437	11.7117880794702	3.69192052980133	-3.97748344370861				0.0477880794701987	-0.526834437086093	-0.804238410596027	-6.97960264900662	-5.72238410596027	-15.034701986755			
8	260	-0.200158940397351	0.0347549668874172	-0.935523178807947	-3.04662251655629	1.5353642384106	1.33509933774834				0.976953642384106	0.143788079470199	-0.0988609271523179	5.19390728476821	-16.2121854304636	-4.50596026490066				-0.218172185430464	-0.161271523178808	-0.87194701986755	-3.07258278145695	0.706490066225167	-0.48026490066225				0.224529801324503	0.111470198675497	-0.949721854304636	1.08291390728477	0.7435761589404	2.74437086092715				0.948026490066225	0.0834966887417219	0.373933774834437	15.3517880794702	-0.228079470198675	-3.97748344370861				0.0317880794701987	-0.526834437086093	-0.804238410596027	-9.77960264900662	-4.04238410596027	-15.874701986755			
9	280	-0.216158940397351	0.0347549668874172	-0.951523178807947	-2.76662251655629	0.415364238410596	0.775099337748344				0.976953642384106	0.159788079470199	-0.0668609271523178	-0.406092715231788	-8.09218543046358	-3.38596026490066				-0.234172185430464	-0.177271523178808	-0.87194701986755	-5.03258278145695	0.706490066225167	-0.76026490066225				0.224529801324503	0.0954701986754967	-0.949721854304636	2.20291390728477	-0.3764238410596	1.62437086092715				0.916026490066225	0.0834966887417219	0.357933774834437	16.4717880794702	-3.58807947019868	-2.29748344370861				0.0157880794701987	-0.510834437086093	-0.820238410596026	-9.77960264900662	-4.60238410596027	-16.714701986755			
10	300	-0.200158940397351	0.0507549668874172	-0.951523178807947	-3.88662251655629	1.8153642384106	0.495099337748344				0.976953642384106	0.127788079470199	-0.0668609271523178	3.79390728476821	-6.69218543046358	-1.42596026490066				-0.218172185430464	-0.161271523178808	-0.88794701986755	-4.75258278145695	0.426490066225167	0.0797350993377501				0.224529801324503	0.0794701986754967	-0.965721854304636	2.76291390728477	-1.2164238410596	0.504370860927152				0.900026490066225	0.0834966887417219	0.341933774834437	14.7917880794702	-2.18807947019868	-1.17748344370861				-0.000211920529801336	-0.494834437086093	-0.836238410596026	-8.93960264900662	-4.32238410596027	-14.474701986755			
11	320	-0.200158940397351	0.0507549668874172	-0.967523178807947	-2.76662251655629	2.0953642384106	1.05509933774834				0.992953642384106	0.143788079470199	-0.0508609271523178	6.31390728476821	-3.89218543046358	-3.10596026490066				-0.202172185430464	-0.161271523178808	-0.90394701986755	-4.19258278145695	0.986490066225167	0.63973509933775				0.208529801324503	0.0954701986754967	-0.949721854304636	1.08291390728477	-2.3364238410596	-2.57562913907285				0.916026490066225	0.0994966887417219	0.325933774834437	15.3517880794702	0.331920529801325	-0.617483443708608				0.0157880794701987	-0.494834437086093	-0.836238410596026	-6.41960264900662	-6.56238410596027	-12.234701986755			
12	340	-0.184158940397351	0.0507549668874172	-0.951523178807947	-3.32662251655629	3.4953642384106	1.61509933774834				0.960953642384106	0.111788079470199	-0.0668609271523178	6.87390728476821	-3.61218543046358	-2.82596026490066				-0.186172185430464	-0.145271523178808	-0.90394701986755	-1.67258278145695	1.54649006622517	0.63973509933775				0.192529801324503	0.111470198675497	-0.933721854304636	3.04291390728477	-0.0964238410596001	-4.25562913907285				0.900026490066225	0.0994966887417219	0.341933774834437	15.9117880794702	-1.34807947019868	0.502516556291392				0.0317880794701987	-0.494834437086093	-0.836238410596026	-4.73960264900662	-7.12238410596027	-9.99470198675497			
13	360	-0.168158940397351	0.0507549668874172	-0.935523178807947	-4.44662251655629	1.8153642384106	0.775099337748344				0.960953642384106	0.143788079470199	-0.0508609271523178	3.79390728476821	2.26781456953642	-3.10596026490066				-0.170172185430464	-0.145271523178808	-0.87194701986755	-1.67258278145695	0.426490066225167	1.19973509933775				0.192529801324503	0.0954701986754967	-0.917721854304636	3.60291390728477	1.3035761589404	-4.53562913907285				0.900026490066225	0.0994966887417219	0.357933774834437	17.8717880794702	-2.74807947019868	1.90251655629139				0.0317880794701987	-0.494834437086093	-0.820238410596026	-3.05960264900662	-7.12238410596027	-7.75470198675497			
14	380	-0.152158940397351	0.0667549668874172	-0.967523178807947	-2.48662251655629	2.6553642384106	1.05509933774834				0.944953642384106	0.127788079470199	-0.0348609271523178	2.95390728476821	8.14781456953643	-0.86596026490066				-0.154172185430464	-0.161271523178808	-0.87194701986755	-0.272582781456954	1.26649006622517	0.35973509933775				0.176529801324503	0.0794701986754967	-0.917721854304636	0.242913907284768	-1.7764238410596	-3.97562913907285				0.852026490066225	0.0994966887417219	0.341933774834437	17.0317880794702	-3.02807947019868	3.30251655629139				0.0317880794701987	-0.478834437086093	-0.836238410596026	-3.89960264900662	-7.40238410596027	-3.55470198675497			
15	400	-0.152158940397351	0.0827549668874172	-0.967523178807947	-1.92662251655629	1.2553642384106	1.89509933774834				0.960953642384106	0.143788079470199	-0.00286092715231785	4.91390728476821	10.3878145695364	-0.0259602649006601				-0.170172185430464	-0.161271523178808	-0.88794701986755	0.567417218543046	0.706490066225167	-0.48026490066225				0.176529801324503	0.0794701986754967	-0.917721854304636	-0.317086092715232	-1.7764238410596	-3.13562913907285				0.868026490066225	0.0994966887417219	0.373933774834437	11.9917880794702	2.57192052980133	4.14251655629139				0.0317880794701987	-0.462834437086093	-0.820238410596026	-1.37960264900662	-7.40238410596027	-2.71470198675497			
16	420	-0.168158940397351	0.0827549668874172	-0.967523178807947	-1.08662251655629	1.2553642384106	1.89509933774834				0.976953642384106	0.159788079470199	0.0131390728476822	10.2339072847682	3.94781456953642	-0.30596026490066				-0.186172185430464	-0.161271523178808	-0.88794701986755	-2.51258278145695	-0.133509933774833	-0.48026490066225				0.192529801324503	0.0954701986754967	-0.901721854304636	3.04291390728477	2.4235761589404	-2.29562913907285				0.884026490066225	0.115496688741722	0.357933774834437	10.5917880794702	6.77192052980133	3.30251655629139				0.0477880794701987	-0.446834437086093	-0.788238410596027	1.70039735099338	-5.44238410596027	-3.27470198675497			
17	440	-0.168158940397351	0.0667549668874172	-0.935523178807947	-1.64662251655629	0.695364238410596	0.775099337748344				0.960953642384106	0.159788079470199	-0.0508609271523178	11.3539072847682	-0.532185430463576	0.81403973509934				-0.186172185430464	-0.145271523178808	-0.88794701986755	-2.23258278145695	-0.973509933774833	-0.76026490066225				0.208529801324503	0.0954701986754967	-0.917721854304636	4.44291390728477	4.1035761589404	-1.73562913907285				0.884026490066225	0.0994966887417219	0.357933774834437	9.1917880794702	5.65192052980133	3.58251655629139				0.0637880794701987	-0.462834437086093	-0.788238410596027	4.50039735099338	-3.48238410596027	-4.39470198675497			
18	460	-0.184158940397351	0.0827549668874172	-0.951523178807947	-0.526622516556291	-1.5446357615894	0.215099337748344				0.976953642384106	0.159788079470199	-0.0348609271523178	9.67390728476821	1.98781456953642	0.81403973509934				-0.202172185430464	-0.145271523178808	-0.88794701986755	-0.832582781456954	-0.133509933774833	-1.04026490066225				0.208529801324503	0.111470198675497	-0.917721854304636	5.28291390728477	4.1035761589404	-1.73562913907285				0.868026490066225	0.0994966887417219	0.373933774834437	9.1917880794702	4.81192052980133	4.98251655629139				0.0797880794701987	-0.478834437086093	-0.804238410596027	0.300397350993377	-1.52238410596026	-4.95470198675497			
19	480	-0.200158940397351	0.0987549668874172	-0.951523178807947	-1.36662251655629	-1.2646357615894	0.495099337748344				0.976953642384106	0.159788079470199	-0.0188609271523178	7.43390728476821	2.26781456953642	0.53403973509934				-0.202172185430464	-0.145271523178808	-0.91994701986755	-0.552582781456954	-0.133509933774833	-0.48026490066225				0.224529801324503	0.127470198675497	-0.949721854304636	5.56291390728477	2.9835761589404	-2.01562913907285				0.884026490066225	0.115496688741722	0.389933774834437	7.5117880794702	6.49192052980132	3.02251655629139				0.0797880794701987	-0.462834437086093	-0.804238410596027	1.98039735099338	-2.92238410596027	-4.95470198675497			
20	500	-0.200158940397351	0.0987549668874172	-0.951523178807947	-0.806622516556291	-0.424635761589404	-0.344900662251656				0.976953642384106	0.175788079470199	-0.0348609271523178	7.99390728476821	0.0278145695364242	-0.0259602649006601				-0.202172185430464	-0.145271523178808	-0.88794701986755	2.24741721854305	0.146490066225167	0.0797350993377501				0.240529801324503	0.0634701986754967	-0.965721854304636	1.08291390728477	-2.0564238410596	-2.57562913907285				0.868026490066225	0.131496688741722	0.373933774834437	8.6317880794702	2.29192052980133	2.74251655629139				0.0637880794701987	-0.462834437086093	-0.820238410596026	1.70039735099338	-0.682384105960265	-4.67470198675497			
21	520	-0.184158940397351	0.0827549668874172	-0.935523178807947	1.71337748344371	-0.424635761589404	-2.02490066225166				0.992953642384106	0.159788079470199	-0.0188609271523178	3.23390728476821	0.867814569536424	-0.30596026490066				-0.202172185430464	-0.145271523178808	-0.87194701986755	3.08741721854305	0.146490066225167	0.0797350993377501				0.240529801324503	0.0634701986754967	-0.949721854304636	-0.597086092715232	-3.4564238410596	-2.57562913907285				0.884026490066225	0.115496688741722	0.389933774834437	5.5517880794702	3.69192052980133	2.46251655629139				0.0477880794701987	-0.478834437086093	-0.820238410596026	0.0203973509933773	-2.36238410596027	-4.39470198675497			
22	540	-0.168158940397351	0.0827549668874172	-0.935523178807947	1.15337748344371	-1.2646357615894	-2.30490066225166				0.992953642384106	0.159788079470199	0.0291390728476822	2.67390728476821	-1.65218543046358	0.81403973509934				-0.202172185430464	-0.161271523178808	-0.87194701986755	3.08741721854305	-0.973509933774833	-0.48026490066225				0.224529801324503	0.111470198675497	-0.949721854304636	-0.877086092715232	-2.0564238410596	-3.13562913907285				0.884026490066225	0.115496688741722	0.389933774834437	4.4317880794702	7.33192052980133	0.502516556291392				0.0637880794701987	-0.478834437086093	-0.820238410596026	0.300397350993377	-3.76238410596027	-5.23470198675497			
23	560	-0.184158940397351	0.0667549668874172	-0.935523178807947	0.873377483443709	-1.5446357615894	-3.42490066225166				0.960953642384106	0.175788079470199	-0.0188609271523178	6.31390728476821	-6.69218543046358	1.93403973509934				-0.202172185430464	-0.161271523178808	-0.88794701986755	2.24741721854305	0.146490066225167	-0.48026490066225				0.240529801324503	0.127470198675497	-0.949721854304636	1.08291390728477	-1.2164238410596	-3.69562913907285				0.900026490066225	0.131496688741722	0.405933774834437	9.7517880794702	5.09192052980133	1.34251655629139				0.0637880794701987	-0.478834437086093	-0.804238410596027	2.82039735099338	-5.16238410596027	-5.79470198675497			
24	580	-0.184158940397351	0.0667549668874172	-0.967523178807947	1.99337748344371	-1.8246357615894	-2.58490066225166				0.976953642384106	0.159788079470199	-0.0668609271523178	6.31390728476821	-3.61218543046358	2.49403973509934				-0.202172185430464	-0.145271523178808	-0.88794701986755	2.24741721854305	-0.133509933774833	-1.04026490066225				0.240529801324503	0.0954701986754967	-0.949721854304636	-1.15708609271523	-1.2164238410596	-2.85562913907285				0.900026490066225	0.131496688741722	0.389933774834437	15.0717880794702	0.891920529801325	2.74251655629139				0.0477880794701987	-0.494834437086093	-0.820238410596026	-0.819602649006623	-2.36238410596027	-4.95470198675497			
25	600	-0.184158940397351	0.0667549668874172	-0.967523178807947	2.83337748344371	-1.5446357615894	-0.624900662251656				0.992953642384106	0.159788079470199	-0.0348609271523178	4.07390728476821	-3.33218543046358	1.37403973509934				-0.202172185430464	-0.129271523178808	-0.88794701986755	2.52741721854305	0.146490066225167	0.0797350993377501				0.224529801324503	0.0794701986754967	-0.933721854304636	-2.83708609271523	-1.7764238410596	-3.13562913907285				0.900026490066225	0.115496688741722	0.389933774834437	8.6317880794702	2.85192052980133	2.18251655629139				0.0477880794701987	-0.462834437086093	-0.836238410596026	2.26039735099338	-3.48238410596027	-6.35470198675497			
26	620	-0.184158940397351	0.0507549668874172	-0.951523178807947	3.95337748344371	-0.704635761589404	0.495099337748344				0.976953642384106	0.159788079470199	-0.0348609271523178	5.47390728476821	-5.29218543046358	2.49403973509934				-0.202172185430464	-0.145271523178808	-0.88794701986755	5.32741721854305	0.146490066225167	-0.76026490066225				0.224529801324503	0.111470198675497	-0.917721854304636	-0.317086092715232	1.8635761589404	-2.57562913907285				0.900026490066225	0.131496688741722	0.373933774834437	5.5517880794702	3.97192052980133	1.90251655629139				0.0317880794701987	-0.462834437086093	-0.836238410596026	1.42039735099338	-2.92238410596027	-8.31470198675497			
27	640	-0.184158940397351	0.0347549668874172	-0.935523178807947	4.51337748344371	-0.424635761589404	-0.0649006622516557				0.960953642384106	0.159788079470199	-0.0508609271523178	7.99390728476821	-4.73218543046358	4.17403973509934				-0.202172185430464	-0.145271523178808	-0.88794701986755	6.72741721854305	0.426490066225167	-1.04026490066225				0.240529801324503	0.127470198675497	-0.933721854304636	3.32291390728477	6.0635761589404	-1.73562913907285				0.916026490066225	0.115496688741722	0.373933774834437	10.8717880794702	2.85192052980133	4.14251655629139				0.0317880794701987	-0.494834437086093	-0.836238410596026	1.14039735099338	-2.92238410596027	-8.31470198675497			
28	660	-0.200158940397351	0.0347549668874172	-0.935523178807947	2.83337748344371	-1.5446357615894	-0.344900662251656				0.976953642384106	0.143788079470199	-0.0508609271523178	7.99390728476821	-4.73218543046358	5.57403973509934				-0.218172185430464	-0.161271523178808	-0.87194701986755	3.92741721854305	-0.133509933774833	-1.32026490066225				0.224529801324503	0.0794701986754967	-0.949721854304636	4.16291390728477	5.7835761589404	1.62437086092715				0.900026490066225	0.131496688741722	0.389933774834437	14.5117880794702	1.73192052980133	5.26251655629139				0.0317880794701987	-0.494834437086093	-0.852238410596026	-2.49960264900662	-2.92238410596027	-6.07470198675497			
29	680	-0.200158940397351	0.0507549668874172	-0.967523178807947	1.99337748344371	-2.3846357615894	-1.18490066225166				0.976953642384106	0.127788079470199	-0.0988609271523179	7.43390728476821	-6.41218543046358	6.41403973509934				-0.218172185430464	-0.161271523178808	-0.87194701986755	3.36741721854305	0.706490066225167	-0.76026490066225				0.224529801324503	0.0634701986754967	-0.965721854304636	5.84291390728477	3.5435761589404	3.30437086092715				0.900026490066225	0.0994966887417219	0.373933774834437	12.8317880794702	0.891920529801325	6.10251655629139				0.0317880794701987	-0.494834437086093	-0.852238410596026	-2.21960264900662	-6.00238410596027	-5.51470198675497			
30	700	-0.200158940397351	0.0507549668874172	-0.967523178807947	2.27337748344371	-0.704635761589404	0.215099337748344				0.976953642384106	0.127788079470199	-0.0828609271523179	7.71390728476821	-5.29218543046358	5.01403973509934				-0.218172185430464	-0.177271523178808	-0.90394701986755	5.60741721854305	-0.973509933774833	-0.76026490066225				0.256529801324503	0.0634701986754967	-0.949721854304636	7.80291390728477	-1.4964238410596	3.02437086092715				0.900026490066225	0.0834966887417219	0.357933774834437	13.1117880794702	1.45192052980132	7.50251655629139				0.0477880794701987	-0.478834437086093	-0.836238410596026	0.580397350993377	-5.16238410596027	-5.79470198675497			
31	720	-0.216158940397351	0.0507549668874172	-0.951523178807947	2.27337748344371	0.415364238410596	-0.0649006622516557				0.976953642384106	0.127788079470199	-0.0828609271523179	7.71390728476821	-6.69218543046358	4.17403973509934				-0.218172185430464	-0.161271523178808	-0.88794701986755	5.32741721854305	0.146490066225167	-1.32026490066225				0.240529801324503	0.0634701986754967	-0.981721854304636	3.04291390728477	-4.8564238410596	2.74437086092715				0.900026490066225	0.0994966887417219	0.389933774834437	14.7917880794702	0.331920529801325	7.50251655629139				0.0477880794701987	-0.510834437086093	-0.804238410596027	4.50039735099338	-4.60238410596027	-4.67470198675497			
32	740	-0.200158940397351	0.0507549668874172	-0.935523178807947	2.83337748344371	0.135364238410596	-0.344900662251656				0.976953642384106	0.127788079470199	-0.0668609271523178	7.99390728476821	-6.13218543046358	4.45403973509934				-0.218172185430464	-0.177271523178808	-0.87194701986755	3.92741721854305	-0.133509933774833	-0.76026490066225				0.224529801324503	0.0474701986754967	-0.949721854304636	-0.877086092715232	-5.4164238410596	3.30437086092715				0.932026490066225	0.0834966887417219	0.389933774834437	16.1917880794702	-0.228079470198675	6.94251655629139				0.0317880794701987	-0.526834437086093	-0.820238410596026	1.70039735099338	-2.92238410596027	-2.99470198675497			
33	760	-0.200158940397351	0.0507549668874172	-0.951523178807947	1.15337748344371	-0.144635761589404	-1.46490066225166				0.976953642384106	0.127788079470199	-0.114860927152318	6.31390728476821	-4.73218543046358	4.17403973509934				-0.202172185430464	-0.177271523178808	-0.88794701986755	2.80741721854305	0.986490066225167	-1.04026490066225				0.176529801324503	0.0474701986754967	-0.949721854304636	0.802913907284768	-2.6164238410596	5.26437086092715				0.916026490066225	0.0834966887417219	0.373933774834437	17.5917880794702	-0.508079470198675	8.06251655629139				0.0317880794701987	-0.494834437086093	-0.820238410596026	-1.93960264900662	-2.64238410596027	-1.87470198675497			
34	780	-0.200158940397351	0.0507549668874172	-0.967523178807947	0.873377483443709	0.135364238410596	-0.904900662251656				0.992953642384106	0.127788079470199	-0.0668609271523178	3.51390728476821	-2.77218543046358	4.17403973509934				-0.186172185430464	-0.193271523178808	-0.90394701986755	4.76741721854305	1.26649006622517	-1.60026490066225				0.208529801324503	0.0634701986754967	-0.949721854304636	3.88291390728477	-2.3364238410596	5.26437086092715				0.900026490066225	0.0674966887417219	0.357933774834437	12.5517880794702	2.01192052980133	5.54251655629139				0.0317880794701987	-0.494834437086093	-0.820238410596026	2.26039735099338	-2.36238410596027	-2.43470198675497			
35	800	-0.184158940397351	0.0347549668874172	-0.967523178807947	0.593377483443709	-0.984635761589404	-1.18490066225166				0.976953642384106	0.127788079470199	-0.0828609271523179	6.31390728476821	-5.85218543046358	5.85403973509934				-0.202172185430464	-0.177271523178808	-0.85594701986755	4.20741721854305	1.54649006622517	-1.32026490066225				0.208529801324503	0.0474701986754967	-0.949721854304636	4.44291390728477	-1.4964238410596	4.42437086092715				0.916026490066225	0.0834966887417219	0.373933774834437	11.4317880794702	1.17192052980133	6.10251655629139				0.0157880794701987	-0.526834437086093	-0.820238410596026	2.54039735099338	0.997615894039735	-2.99470198675497			
36	820	-0.200158940397351	0.0507549668874172	-0.967523178807947	0.873377483443709	-0.424635761589404	-0.0649006622516557				0.960953642384106	0.127788079470199	-0.114860927152318	6.03390728476821	-5.29218543046358	4.17403973509934				-0.186172185430464	-0.177271523178808	-0.85594701986755	2.24741721854305	0.146490066225167	-0.20026490066225				0.208529801324503	0.0474701986754967	-0.949721854304636	5.56291390728477	-0.6564238410596	3.86437086092715				0.900026490066225	0.0674966887417219	0.373933774834437	11.7117880794702	-0.508079470198675	7.50251655629139				0.0317880794701987	-0.510834437086093	-0.804238410596027	1.14039735099338	0.717615894039735	-2.15470198675497			
37	840	-0.200158940397351	0.0667549668874172	-0.951523178807947	1.43337748344371	0.135364238410596	-0.624900662251656				0.960953642384106	0.111788079470199	-0.0988609271523179	4.91390728476821	-0.812185430463576	2.49403973509934				-0.202172185430464	-0.177271523178808	-0.88794701986755	1.68741721854305	-0.133509933774833	0.0797350993377501				0.176529801324503	0.0634701986754967	-0.949721854304636	4.44291390728477	1.0235761589404	3.30437086092715				0.900026490066225	0.0834966887417219	0.373933774834437	10.3117880794702	-1.62807947019868	4.42251655629139				0.0157880794701987	-0.510834437086093	-0.804238410596027	-2.77960264900662	0.437615894039735	-0.754701986754968			
38	860	-0.216158940397351	0.0507549668874172	-0.935523178807947	-0.526622516556291	-0.144635761589404	-1.46490066225166				0.992953642384106	0.111788079470199	-0.0988609271523179	0.433907284768212	-0.532185430463576	0.53403973509934				-0.218172185430464	-0.209271523178808	-0.88794701986755	1.12741721854305	-0.413509933774833	-0.76026490066225				0.192529801324503	0.0314701986754967	-0.949721854304636	4.16291390728477	1.8635761589404	3.02437086092715				0.900026490066225	0.0834966887417219	0.373933774834437	9.1917880794702	-0.788079470198675	3.30251655629139				0.0157880794701987	-0.478834437086093	-0.804238410596027	-1.65960264900662	-0.682384105960265	-1.31470198675497			
39	880	-0.216158940397351	0.0347549668874172	-0.951523178807947	0.0333774834437086	0.695364238410596	-2.58490066225166				0.976953642384106	0.111788079470199	-0.0828609271523179	-3.20609271523179	-1.37218543046358	-0.585960264900661				-0.218172185430464	-0.193271523178808	-0.88794701986755	1.40741721854305	0.706490066225167	0.0797350993377501				0.208529801324503	0.0314701986754967	-0.965721854304636	3.88291390728477	1.5835761589404	2.18437086092715				0.900026490066225	0.0674966887417219	0.357933774834437	6.9517880794702	1.45192052980132	3.02251655629139				0.0157880794701987	-0.494834437086093	-0.804238410596027	0.580397350993377	-0.682384105960265	-1.59470198675497			
40	900	-0.216158940397351	0.0507549668874172	-0.967523178807947	0.593377483443709	0.695364238410596	-2.30490066225166				0.976953642384106	0.111788079470199	-0.0508609271523178	-5.16609271523179	3.10781456953642	-2.26596026490066				-0.218172185430464	-0.193271523178808	-0.88794701986755	0.287417218543046	0.986490066225167	0.63973509933775				0.192529801324503	0.0474701986754967	-0.933721854304636	2.76291390728477	3.5435761589404	1.90437086092715				0.884026490066225	0.0834966887417219	0.373933774834437	5.5517880794702	1.45192052980132	2.46251655629139				0.0157880794701987	-0.494834437086093	-0.804238410596027	1.14039735099338	-0.962384105960265	-2.43470198675497			
41	920	-0.232158940397351	0.0667549668874172	-0.967523178807947	1.71337748344371	1.2553642384106	-1.74490066225166				0.960953642384106	0.127788079470199	-0.0348609271523178	-4.88609271523179	8.70781456953642	-1.98596026490066				-0.234172185430464	-0.177271523178808	-0.90394701986755	-1.11258278145695	1.26649006622517	1.19973509933775				0.192529801324503	0.0474701986754967	-0.933721854304636	4.44291390728477	5.7835761589404	1.34437086092715				0.884026490066225	0.0834966887417219	0.373933774834437	8.0717880794702	0.611920529801325	2.74251655629139				0.0157880794701987	-0.494834437086093	-0.772238410596026	-0.539602649006623	0.157615894039735	-1.87470198675497			
42	940	-0.216158940397351	0.0667549668874172	-0.951523178807947	2.27337748344371	2.9353642384106	-2.02490066225166				0.976953642384106	0.127788079470199	-0.0668609271523178	-6.56609271523179	14.8678145695364	-2.26596026490066				-0.218172185430464	-0.161271523178808	-0.88794701986755	0.00741721854304636	1.82649006622517	1.75973509933775				0.208529801324503	0.0474701986754967	-0.933721854304636	4.72291390728477	6.3435761589404	0.504370860927152				0.884026490066225	0.0834966887417219	0.373933774834437	7.7917880794702	2.01192052980133	1.90251655629139				0	0	0	0	0	0			
43	1060	0	0	0	0	0	0				0	0	0	0	0	0				-0.186172185430464	-0.145271523178808	-0.87194701986755	4.20741721854305	0.146490066225167	1.19973509933775				0.288529801324503	0.0634701986754967	-0.965721854304636	7.80291390728477	13.6235761589404	-6.21562913907285				0.900026490066225	0.115496688741722	0.373933774834437	4.9917880794702	4.25192052980133	0.222516556291392				0.0317880794701987	-0.494834437086093	-0.836238410596026	-9.21960264900662	7.15761589403974	-13.914701986755			
44	1080	-0.168158940397351	0.0187549668874172	-0.935523178807947	-1.92662251655629	-1.5446357615894	-3.14490066225166				0.960953642384106	0.127788079470199	-0.0988609271523179	5.75390728476821	-1.37218543046358	1.93403973509934				-0.186172185430464	-0.177271523178808	-0.88794701986755	1.12741721854305	-0.973509933774833	0.0797350993377501				0.288529801324503	0.0634701986754967	-0.965721854304636	3.04291390728477	6.3435761589404	-9.85562913907285				0.900026490066225	0.0994966887417219	0.357933774834437	6.6717880794702	1.45192052980132	1.62251655629139				0.0157880794701987	-0.478834437086093	-0.820238410596026	-12.5796026490066	7.43761589403974	-11.394701986755			
45	1100	-0.200158940397351	0.0507549668874172	-0.983523178807947	-1.92662251655629	-2.6646357615894	-4.26490066225166				0.992953642384106	0.111788079470199	-0.0508609271523178	0.713907284768212	4.22781456953642	2.21403973509934				-0.202172185430464	-0.161271523178808	-0.90394701986755	1.12741721854305	-0.413509933774833	-1.60026490066225				0.256529801324503	0.0954701986754967	-0.965721854304636	0.522913907284768	3.2635761589404	-10.1356291390728				0.884026490066225	0.0834966887417219	0.405933774834437	10.3117880794702	0.0519205298013249	3.02251655629139				0.0317880794701987	-0.462834437086093	-0.804238410596027	-15.0996026490066	8.55761589403974	-9.71470198675497			
46	1120	-0.200158940397351	0.0507549668874172	-0.967523178807947	2.83337748344371	1.2553642384106	-3.42490066225166				0.992953642384106	0.111788079470199	-0.00286092715231785	-1.24609271523179	2.54781456953642	1.09403973509934				-0.202172185430464	-0.161271523178808	-0.88794701986755	3.08741721854305	1.26649006622517	-2.44026490066225				0.256529801324503	0.0634701986754967	-0.965721854304636	3.32291390728477	2.7035761589404	-12.0956291390728				0.868026490066225	0.0994966887417219	0.405933774834437	15.3517880794702	5.93192052980133	2.74251655629139				0.0637880794701987	-0.462834437086093	-0.804238410596027	-12.5796026490066	8.55761589403974	-9.71470198675497			
47	1140	-0.184158940397351	0.0347549668874172	-0.967523178807947	1.43337748344371	0.695364238410596	-2.86490066225166				0.992953642384106	0.143788079470199	-0.0188609271523178	5.75390728476821	1.70781456953642	1.37403973509934				-0.202172185430464	-0.193271523178808	-0.85594701986755	1.40741721854305	0.426490066225167	-2.16026490066225				0.288529801324503	0.0314701986754967	-0.981721854304636	1.08291390728477	-1.2164238410596	-13.4956291390728				0.900026490066225	0.0994966887417219	0.405933774834437	23.4717880794702	6.77192052980133	3.86251655629139				0.127788079470199	-0.494834437086093	-0.836238410596026	-5.29960264900662	5.47761589403974	-7.75470198675497			
48	1160	-0.184158940397351	0.0347549668874172	-0.919523178807947	-1.64662251655629	0.135364238410596	-1.46490066225166				0.992953642384106	0.111788079470199	-0.0668609271523178	10.2339072847682	0.867814569536424	3.61403973509934				-0.186172185430464	-0.193271523178808	-0.87194701986755	-0.552582781456954	-0.133509933774833	-2.16026490066225				0.304529801324503	0.0154701986754967	-0.965721854304636	-3.11708609271523	-3.4564238410596	-10.6956291390728				0.916026490066225	0.0834966887417219	0.421933774834437	24.0317880794702	6.21192052980133	3.58251655629139				0.143788079470199	-0.526834437086093	-0.884238410596026	1.98039735099338	-0.962384105960265	-4.11470198675497			
49	1180	-0.168158940397351	0.0187549668874172	-0.951523178807947	-2.48662251655629	-1.5446357615894	-2.58490066225166				0.992953642384106	0.111788079470199	-0.0988609271523179	4.63390728476821	-1.65218543046358	-0.30596026490066				-0.154172185430464	-0.193271523178808	-0.88794701986755	2.24741721854305	0.426490066225167	-3.00026490066225				0.272529801324503	0.0474701986754967	-0.965721854304636	-3.39708609271523	-3.7364238410596	-7.33562913907285				0.948026490066225	0.0834966887417219	0.437933774834437	19.5517880794702	4.81192052980133	1.62251655629139				0.143788079470199	-0.558834437086093	-0.868238410596026	3.10039735099338	-2.92238410596027	-0.474701986754968			
50	1200	-0.120158940397351	0.0187549668874172	-0.983523178807947	-0.526622516556291	-0.984635761589404	-2.02490066225166				0.976953642384106	0.0957880794701987	-0.0668609271523178	-6.56609271523179	1.98781456953642	-0.30596026490066				-0.122172185430464	-0.193271523178808	-0.88794701986755	2.52741721854305	0.706490066225167	-2.16026490066225				0.240529801324503	0.0634701986754967	-0.949721854304636	-0.597086092715232	-0.9364238410596	-4.53562913907285				0.948026490066225	0.0834966887417219	0.437933774834437	16.1917880794702	-1.34807947019868	1.62251655629139				0.143788079470199	-0.542834437086093	-0.820238410596026	-2.49960264900662	2.67761589403974	3.16529801324503			
51	1220	-0.136158940397351	0.0187549668874172	-0.967523178807947	-7.80662251655629	-3.2246357615894	-0.624900662251656				0.960953642384106	0.0797880794701987	-0.0348609271523178	-8.52609271523179	4.50781456953642	2.21403973509934				-0.154172185430464	-0.193271523178808	-0.85594701986755	4.48741721854305	0.706490066225167	-2.16026490066225				0.224529801324503	0.0474701986754967	-0.917721854304636	6.12291390728477	3.2635761589404	-1.17562913907285				0.884026490066225	0.0674966887417219	0.437933774834437	13.3917880794702	-6.38807947019868	2.74251655629139				0.111788079470199	-0.494834437086093	-0.836238410596026	-4.45960264900662	6.03761589403974	5.12529801324503			
52	1240	-0.184158940397351	0.0187549668874172	-0.967523178807947	-1.36662251655629	-3.5046357615894	-0.0649006622516557				0.976953642384106	0.0797880794701987	-0.0188609271523178	-4.88609271523179	5.06781456953642	2.49403973509934				-0.170172185430464	-0.209271523178808	-0.85594701986755	-0.272582781456954	-0.133509933774833	-1.60026490066225				0.224529801324503	0.0314701986754967	-0.917721854304636	8.08291390728477	4.3835761589404	-0.895629139072848				0.836026490066225	0.0674966887417219	0.421933774834437	6.9517880794702	-5.82807947019868	3.02251655629139				0.127788079470199	-0.462834437086093	-0.820238410596026	-5.29960264900662	6.87761589403974	4.28529801324503			
53	1260	-0.200158940397351	0.0187549668874172	-0.951523178807947	-2.48662251655629	-2.1046357615894	0.495099337748344				0.992953642384106	0.111788079470199	-0.00286092715231785	-2.08609271523179	6.18781456953642	1.09403973509934				-0.202172185430464	-0.225271523178808	-0.87194701986755	0.847417218543046	-1.53350993377483	-1.60026490066225				0.240529801324503	0.0474701986754967	-0.901721854304636	5.56291390728477	1.5835761589404	-0.615629139072848				0.836026490066225	0.0674966887417219	0.389933774834437	3.0317880794702	-2.46807947019868	1.34251655629139				0.127788079470199	-0.446834437086093	-0.804238410596027	-0.819602649006623	5.47761589403974	1.48529801324503			
54	1280	-0.232158940397351	0.0187549668874172	-0.983523178807947	-5.28662251655629	-2.6646357615894	1.61509933774834				0.992953642384106	0.127788079470199	-0.0188609271523178	0.153907284768212	-1.09218543046358	-0.585960264900661				-0.218172185430464	-0.209271523178808	-0.90394701986755	-1.67258278145695	-1.25350993377483	-1.60026490066225				0.256529801324503	0.0474701986754967	-0.933721854304636	2.20291390728477	-1.4964238410596	-1.17562913907285				0.852026490066225	0.0834966887417219	0.421933774834437	-1.4482119205298	-1.62807947019868	-0.0574834437086077				0.111788079470199	-0.446834437086093	-0.820238410596026	2.26039735099338	4.35761589403974	1.20529801324503			
55	1300	-0.232158940397351	0.0507549668874172	-0.951523178807947	-5.56662251655629	-0.984635761589404	2.45509933774835				0.992953642384106	0.143788079470199	-0.0508609271523178	2.95390728476821	-7.81218543046358	-1.70596026490066				-0.234172185430464	-0.193271523178808	-0.91994701986755	-3.63258278145695	0.426490066225167	0.0797350993377501				0.256529801324503	0.0474701986754967	-0.917721854304636	1.64291390728477	1.0235761589404	-1.17562913907285				0.884026490066225	0.115496688741722	0.405933774834437	-6.7682119205298	0.611920529801325	0.502516556291392				0.0957880794701987	-0.462834437086093	-0.804238410596027	6.46039735099338	3.23761589403974	-1.03470198675497			
56	1320	-0.232158940397351	0.0667549668874172	-0.919523178807947	-4.44662251655629	0.135364238410596	2.73509933774834				0.976953642384106	0.143788079470199	-0.0668609271523178	4.35390728476821	-11.1721854304636	-0.585960264900661				-0.234172185430464	-0.161271523178808	-0.87194701986755	-4.75258278145695	1.26649006622517	2.03973509933775				0.256529801324503	0.0474701986754967	-0.917721854304636	3.88291390728477	3.5435761589404	0.784370860927152				0.884026490066225	0.115496688741722	0.389933774834437	-8.4482119205298	0.0519205298013249	-0.337483443708608				0.0797880794701987	-0.462834437086093	-0.788238410596027	0.300397350993377	5.47761589403974	-3.27470198675497			
57	1340	-0.216158940397351	0.0827549668874172	-0.919523178807947	-3.32662251655629	0.135364238410596	2.73509933774834				0.960953642384106	0.159788079470199	-0.0988609271523179	3.79390728476821	-9.21218543046358	-0.86596026490066				-0.234172185430464	-0.145271523178808	-0.85594701986755	-3.63258278145695	0.146490066225167	3.15973509933775				0.272529801324503	0.0474701986754967	-0.917721854304636	5.84291390728477	4.6635761589404	2.74437086092715				0.884026490066225	0.131496688741722	0.373933774834437	-7.3282119205298	-3.58807947019868	-0.897483443708608				0.0637880794701987	-0.414834437086093	-0.804238410596027	-3.61960264900662	9.11761589403974	-3.83470198675497			
58	1360	-0.216158940397351	0.0827549668874172	-0.951523178807947	-1.08662251655629	-0.144635761589404	1.33509933774834				0.976953642384106	0.159788079470199	-0.0828609271523179	3.23390728476821	-8.93218543046358	-1.70596026490066				-0.218172185430464	-0.161271523178808	-0.88794701986755	-1.67258278145695	-0.973509933774833	3.15973509933775				0.256529801324503	0.0474701986754967	-0.933721854304636	5.84291390728477	5.5035761589404	3.86437086092715				0.884026490066225	0.131496688741722	0.373933774834437	-8.7282119205298	-1.34807947019868	-1.45748344370861				0.0477880794701987	-0.430834437086093	-0.820238410596026	-4.17960264900662	7.71761589403974	-6.63470198675497			
59	1380	-0.184158940397351	0.0667549668874172	-0.951523178807947	-6.12662251655629	-0.704635761589404	0.775099337748344				0.944953642384106	0.143788079470199	-0.0988609271523179	3.23390728476821	-12.2921854304636	-0.30596026490066				-0.218172185430464	-0.161271523178808	-0.88794701986755	-2.23258278145695	-0.973509933774833	3.99973509933775				0.272529801324503	0.0634701986754967	-0.949721854304636	8.92291390728477	6.9035761589404	4.42437086092715				0.884026490066225	0.131496688741722	0.373933774834437	-1.7282119205298	-3.58807947019868	0.222516556291392				0.0637880794701987	-0.430834437086093	-0.836238410596026	-4.45960264900662	4.91761589403974	-9.99470198675497			
60	1400	-0.184158940397351	0.0827549668874172	-0.951523178807947	-1.08662251655629	-0.424635761589404	-1.18490066225166				0.960953642384106	0.159788079470199	-0.0988609271523179	2.95390728476821	-14.8121854304636	-1.14596026490066				-0.202172185430464	-0.145271523178808	-0.88794701986755	-0.832582781456954	-0.413509933774833	2.31973509933775				0.256529801324503	0.0474701986754967	-0.949721854304636	10.8829139072848	6.6235761589404	3.58437086092715				0.900026490066225	0.115496688741722	0.373933774834437	1.0717880794702	-5.54807947019868	1.62251655629139				0.0637880794701987	-0.462834437086093	-0.836238410596026	-5.29960264900662	2.39761589403974	-10.554701986755			
61	1420	-0.200158940397351	0.0987549668874172	-0.935523178807947	0.313377483443709	-0.984635761589404	-2.02490066225166				0.992953642384106	0.159788079470199	-0.0988609271523179	3.51390728476821	-13.6921854304636	1.09403973509934				-0.218172185430464	-0.145271523178808	-0.88794701986755	0.287417218543046	-0.413509933774833	1.75973509933775				0.256529801324503	0.0314701986754967	-0.949721854304636	9.76291390728477	4.3835761589404	3.30437086092715				0.916026490066225	0.115496688741722	0.357933774834437	2.4717880794702	-4.98807947019868	1.62251655629139				0.0637880794701987	-0.478834437086093	-0.852238410596026	-10.6196026490066	2.39761589403974	-9.71470198675497			
62	1440	-0.216158940397351	0.0827549668874172	-0.935523178807947	-1.08662251655629	-0.704635761589404	-2.86490066225166				0.992953642384106	0.143788079470199	-0.0988609271523179	4.35390728476821	-10.0521854304636	2.77403973509934				-0.202172185430464	-0.145271523178808	-0.90394701986755	-1.95258278145695	0.146490066225167	0.63973509933775				0.256529801324503	0.0314701986754967	-0.981721854304636	8.92291390728477	4.6635761589404	3.86437086092715				0.932026490066225	0.0994966887417219	0.373933774834437	2.4717880794702	-4.14807947019868	0.782516556291392				0.0797880794701987	-0.478834437086093	-0.852238410596026	-11.7396026490066	4.07761589403974	-9.15470198675497			
63	1460	-0.216158940397351	0.0827549668874172	-0.967523178807947	-0.526622516556291	0.975364238410596	-3.98490066225166				1.00895364238411	0.143788079470199	-0.0828609271523179	3.51390728476821	-6.97218543046358	1.65403973509934				-0.218172185430464	-0.129271523178808	-0.91994701986755	-0.272582781456954	0.706490066225167	0.0797350993377501				0.256529801324503	0.0314701986754967	-0.981721854304636	7.24291390728477	6.3435761589404	2.18437086092715				0.948026490066225	0.0994966887417219	0.389933774834437	4.7117880794702	-3.58807947019868	1.34251655629139				0.0797880794701987	-0.478834437086093	-0.884238410596026	-11.7396026490066	5.47761589403974	-6.91470198675497			
64	1480	-0.184158940397351	0.0987549668874172	-0.935523178807947	2.55337748344371	1.8153642384106	-3.98490066225166				1.00895364238411	0.143788079470199	-0.0988609271523179	3.79390728476821	-8.65218543046358	0.53403973509934				-0.202172185430464	-0.129271523178808	-0.90394701986755	1.40741721854305	0.986490066225167	-0.48026490066225				0.240529801324503	0.0314701986754967	-0.997721854304636	8.36291390728477	7.1835761589404	3.58437086092715				0.932026490066225	0.115496688741722	0.373933774834437	6.1117880794702	-2.18807947019868	1.62251655629139				0.0957880794701987	-0.478834437086093	-0.868238410596026	-7.53960264900662	4.91761589403974	-5.79470198675497			
65	1500	-0.168158940397351	0.0667549668874172	-0.935523178807947	3.39337748344371	1.2553642384106	-2.86490066225166				0.992953642384106	0.143788079470199	-0.114860927152318	5.19390728476821	-10.0521854304636	2.21403973509934				-0.186172185430464	-0.145271523178808	-0.88794701986755	2.24741721854305	1.54649006622517	-1.88026490066225				0.240529801324503	0.0154701986754967	-0.981721854304636	8.92291390728477	7.7435761589404	4.14437086092715				0.948026490066225	0.115496688741722	0.357933774834437	6.6717880794702	-2.74807947019868	0.502516556291392				0.0957880794701987	-0.478834437086093	-0.868238410596026	-10.0596026490066	7.71761589403974	-2.99470198675497			
66	1520	-0.184158940397351	0.0507549668874172	-0.935523178807947	1.15337748344371	0.135364238410596	-3.14490066225166				0.960953642384106	0.143788079470199	-0.146860927152318	6.31390728476821	-11.1721854304636	4.45403973509934				-0.186172185430464	-0.161271523178808	-0.87194701986755	3.64741721854305	1.54649006622517	-2.72026490066225				0.256529801324503	0.0314701986754967	-0.981721854304636	7.24291390728477	3.8235761589404	3.58437086092715				0.932026490066225	0.0994966887417219	0.341933774834437	3.8717880794702	-4.42807947019868	1.06251655629139				0.0957880794701987	-0.446834437086093	-0.884238410596026	-6.69960264900662	7.71761589403974	0.365298013245032			
67	1540	-0.184158940397351	0.0507549668874172	-0.967523178807947	1.99337748344371	-0.424635761589404	-3.70490066225166				0.960953642384106	0.127788079470199	-0.146860927152318	7.43390728476821	-8.37218543046358	5.29403973509934				-0.186172185430464	-0.161271523178808	-0.88794701986755	3.08741721854305	1.26649006622517	-3.84026490066225				0.272529801324503	0.0314701986754967	-0.965721854304636	3.60291390728477	-2.3364238410596	1.62437086092715				0.916026490066225	0.0994966887417219	0.341933774834437	1.9117880794702	-5.54807947019868	2.18251655629139				0.0957880794701987	-0.430834437086093	-0.900238410596026	-4.17960264900662	7.43761589403974	0.365298013245032			
68	1560	-0.184158940397351	0.0347549668874172	-0.935523178807947	1.43337748344371	0.135364238410596	-3.98490066225166				0.960953642384106	0.127788079470199	-0.130860927152318	7.99390728476821	-4.73218543046358	4.17403973509934				-0.186172185430464	-0.177271523178808	-0.87194701986755	1.68741721854305	0.426490066225167	-3.56026490066225				0.256529801324503	0.0154701986754967	-0.965721854304636	1.08291390728477	-2.6164238410596	-0.0556291390728476				0.900026490066225	0.0994966887417219	0.357933774834437	3.8717880794702	-5.26807947019868	2.46251655629139				0.0957880794701987	-0.430834437086093	-0.852238410596026	0.300397350993377	4.35761589403974	0.645298013245032			
69	1580	-0.200158940397351	0.0507549668874172	-0.951523178807947	0.873377483443709	0.135364238410596	-2.30490066225166				0.960953642384106	0.143788079470199	-0.114860927152318	8.27390728476821	-3.89218543046358	4.17403973509934				-0.202172185430464	-0.161271523178808	-0.88794701986755	3.08741721854305	0.706490066225167	-3.00026490066225				0.224529801324503	0.0154701986754967	-0.917721854304636	0.522913907284768	-3.7364238410596	-0.895629139072848				0.900026490066225	0.115496688741722	0.325933774834437	1.9117880794702	-4.98807947019868	2.18251655629139				0.0797880794701987	-0.430834437086093	-0.820238410596026	-0.539602649006623	2.39761589403974	2.04529801324503			
70	1600	-0.200158940397351	0.0347549668874172	-0.935523178807947	3.11337748344371	0.695364238410596	-1.18490066225166				0.976953642384106	0.143788079470199	-0.114860927152318	5.47390728476821	-2.49218543046358	4.45403973509934				-0.218172185430464	-0.177271523178808	-0.88794701986755	3.92741721854305	0.706490066225167	-1.60026490066225				0.224529801324503	0.0154701986754967	-0.917721854304636	-0.877086092715232	-2.8964238410596	-0.895629139072848				0.884026490066225	0.115496688741722	0.325933774834437	-0.0482119205298018	-4.14807947019868	0.782516556291392				0.0957880794701987	-0.414834437086093	-0.836238410596026	-4.45960264900662	4.91761589403974	2.88529801324503			
71	1620	-0.200158940397351	0.0347549668874172	-0.951523178807947	0.593377483443709	-0.704635761589404	-0.344900662251656				0.960953642384106	0.127788079470199	-0.114860927152318	0.153907284768212	-4.17218543046358	4.45403973509934				-0.186172185430464	-0.177271523178808	-0.87194701986755	5.32741721854305	1.26649006622517	-1.04026490066225				0.224529801324503	0.0314701986754967	-0.917721854304636	3.04291390728477	-0.0964238410596001	-0.615629139072848				0.884026490066225	0.0994966887417219	0.341933774834437	-0.888211920529802	-3.58807947019868	-0.897483443708608				0.0957880794701987	-0.414834437086093	-0.836238410596026	-5.01960264900662	5.19761589403974	2.60529801324503			
72	1640	-0.184158940397351	0.0347549668874172	-0.951523178807947	-0.246622516556291	-1.5446357615894	0.775099337748344				0.960953642384106	0.127788079470199	-0.114860927152318	2.11390728476821	-5.29218543046358	5.29403973509934				-0.186172185430464	-0.177271523178808	-0.87194701986755	4.48741721854305	0.986490066225167	-1.04026490066225				0.224529801324503	0.0314701986754967	-0.917721854304636	3.88291390728477	-0.0964238410596001	-0.615629139072848				0.884026490066225	0.0994966887417219	0.357933774834437	-2.8482119205298	-1.34807947019868	1.06251655629139				0.111788079470199	-0.414834437086093	-0.836238410596026	-3.61960264900662	6.59761589403974	1.76529801324503			
73	1660	-0.200158940397351	0.0347549668874172	-0.935523178807947	2.27337748344371	-0.984635761589404	1.61509933774834				0.992953642384106	0.127788079470199	-0.146860927152318	11.3539072847682	-14.2521854304636	5.85403973509934				-0.202172185430464	-0.177271523178808	-0.85594701986755	5.32741721854305	-0.413509933774833	-0.20026490066225				0.240529801324503	0.0154701986754967	-0.917721854304636	4.16291390728477	1.5835761589404	0.784370860927152				0.900026490066225	0.0994966887417219	0.341933774834437	-4.8082119205298	0.0519205298013249	1.62251655629139				0.0957880794701987	-0.430834437086093	-0.836238410596026	-1.09960264900662	6.31761589403974	2.32529801324503			
74	1680	-0.200158940397351	0.0507549668874172	-0.951523178807947	0.873377483443709	-1.2646357615894	0.775099337748344				0.976953642384106	0.143788079470199	-0.194860927152318	19.1939072847682	-17.6121854304636	5.85403973509934				-0.218172185430464	-0.177271523178808	-0.88794701986755	4.76741721854305	0.146490066225167	-0.20026490066225				0.240529801324503	-0.000529801324503289	-0.933721854304636	5.56291390728477	3.8235761589404	3.30437086092715				0.932026490066225	0.0994966887417219	0.325933774834437	-5.0882119205298	-1.62807947019868	0.782516556291392				0.0797880794701987	-0.446834437086093	-0.852238410596026	-1.37960264900662	6.31761589403974	3.72529801324503			
75	1700	-0.200158940397351	0.0667549668874172	-0.951523178807947	-2.20662251655629	-1.5446357615894	1.61509933774834				0.976953642384106	0.159788079470199	-0.178860927152318	18.3539072847682	-17.8921854304636	6.41403973509934				-0.218172185430464	-0.177271523178808	-0.90394701986755	4.20741721854305	-0.133509933774833	0.35973509933775				0.240529801324503	-0.000529801324503289	-0.949721854304636	3.88291390728477	5.5035761589404	3.02437086092715				0.916026490066225	0.0994966887417219	0.357933774834437	-7.0482119205298	-1.90807947019868	-0.337483443708608				0.0957880794701987	-0.430834437086093	-0.852238410596026	-1.65960264900662	7.15761589403974	4.84529801324503			
76	1720	-0.216158940397351	0.0507549668874172	-0.951523178807947	-1.36662251655629	-0.984635761589404	2.17509933774834				0.992953642384106	0.143788079470199	-0.114860927152318	16.9539072847682	-26.8521854304636	5.85403973509934				-0.218172185430464	-0.177271523178808	-0.88794701986755	4.20741721854305	0.706490066225167	-0.20026490066225				0.240529801324503	0.0154701986754967	-0.981721854304636	3.88291390728477	6.9035761589404	4.42437086092715				0.932026490066225	0.115496688741722	0.373933774834437	-7.6082119205298	1.73192052980133	0.502516556291392				0.0797880794701987	-0.446834437086093	-0.868238410596026	-0.539602649006623	7.99761589403974	5.40529801324503			
77	1740	-0.216158940397351	0.0667549668874172	-0.935523178807947	0.313377483443709	-0.984635761589404	1.05509933774834				0.992953642384106	0.111788079470199	-0.194860927152318	19.4739072847682	-30.7721854304636	6.69403973509934				-0.218172185430464	-0.161271523178808	-0.87194701986755	2.80741721854305	1.54649006622517	-1.04026490066225				0.256529801324503	0.0154701986754967	-0.981721854304636	4.72291390728477	9.7035761589404	6.10437086092715				0.980026490066225	0.0994966887417219	0.357933774834437	-3.9682119205298	2.01192052980133	0.782516556291392				0.0797880794701987	-0.446834437086093	-0.868238410596026	1.14039735099338	11.0776158940397	7.64529801324503			
78	1760	-0.232158940397351	0.0507549668874172	-0.935523178807947	-0.246622516556291	-1.2646357615894	-0.344900662251656				0.992953642384106	0.111788079470199	-0.226860927152318	14.9939072847682	-23.4921854304636	3.61403973509934				-0.218172185430464	-0.161271523178808	-0.87194701986755	5.60741721854305	1.82649006622517	-2.16026490066225				0.256529801324503	0.0154701986754967	-1.01372185430464	8.08291390728477	11.6635761589404	6.66437086092715				0.996026490066225	0.0834966887417219	0.341933774834437	-2.8482119205298	2.01192052980133	1.06251655629139				0.0797880794701987	-0.478834437086093	-0.884238410596026	0.580397350993377	20.5976158940397	9.32529801324503			
79	1780	-0.248158940397351	0.0347549668874172	-0.951523178807947	-3.32662251655629	-0.984635761589404	-0.344900662251656				1.00895364238411	0.111788079470199	-0.274860927152318	14.1539072847682	-29.9321854304636	-1.98596026490066				-0.234172185430464	-0.177271523178808	-0.88794701986755	7.00741721854305	1.26649006622517	-3.00026490066225				0.256529801324503	-0.000529801324503289	-1.02972185430464	11.1629139072848	13.0635761589404	8.62437086092715				1.04402649006623	0.0994966887417219	0.341933774834437	-5.9282119205298	0.611920529801325	0.222516556291392				0.0797880794701987	-0.494834437086093	-0.900238410596026	0.860397350993377	27.3176158940397	12.685298013245			
80	1800	-0.264158940397351	0.0187549668874172	-0.935523178807947	-3.88662251655629	-1.2646357615894	-1.18490066225166				1.04095364238411	0.159788079470199	-0.370860927152318	12.4739072847682	-44.2121854304636	1.93403973509934				-0.250172185430464	-0.177271523178808	-0.85594701986755	7.56741721854305	-0.133509933774833	-1.88026490066225				0.272529801324503	-0.0325298013245033	-1.04572185430464	16.4829139072848	16.1435761589404	6.94437086092715				1.04402649006623	0.0674966887417219	0.325933774834437	-3.4082119205298	-4.70807947019868	0.782516556291392				0.111788079470199	-0.510834437086093	-0.884238410596026	2.54039735099338	29.5576158940397	16.325298013245			
81	1820	-0.264158940397351	0.0187549668874172	-0.935523178807947	-6.68662251655629	-0.144635761589404	-1.18490066225166				1.08895364238411	0.127788079470199	-0.370860927152318	11.0739072847682	-45.3321854304636	-4.78596026490066				-0.250172185430464	-0.177271523178808	-0.90394701986755	8.68741721854305	-0.133509933774833	-2.44026490066225				0.240529801324503	0.0154701986754967	-1.02972185430464	12.8429139072848	13.3435761589404	4.70437086092715				1.06002649006623	0.0834966887417219	0.277933774834437	-2.0082119205298	-8.90807947019868	2.46251655629139				0.0797880794701987	-0.542834437086093	-0.932238410596026	-3.61960264900662	32.0776158940397	21.645298013245			
82	1840	-0.216158940397351	0.0347549668874172	-0.967523178807947	-3.60662251655629	-3.2246357615894	0.775099337748344				0.912953642384106	0.111788079470199	-0.434860927152318	2.11390728476821	-43.9321854304636	-0.30596026490066				-0.202172185430464	-0.193271523178808	-0.88794701986755	20.727417218543	-8.25350993377483	-5.52026490066225				0.208529801324503	0.0154701986754967	-1.01372185430464	14.5229139072848	9.4235761589404	0.784370860927152				1.06002649006623	0.0834966887417219	0.277933774834437	-7.3282119205298	-10.8680794701987	1.62251655629139				0.0317880794701987	-0.574834437086093	-0.884238410596026	-6.41960264900662	28.7176158940397	34.805298013245			
83	1860	-0.184158940397351	0.0187549668874172	-0.903523178807947	-9.76662251655629	-5.7446357615894	3.01509933774834				0.912953642384106	0.159788079470199	-0.354860927152318	-2.36609271523179	-32.4521854304636	2.77403973509934				-0.170172185430464	-0.209271523178808	-0.82394701986755	14.567417218543	-10.4935099337748	-4.12026490066225				0.192529801324503	-0.000529801324503289	-1.04572185430464	20.1229139072848	12.2235761589404	-3.69562913907285				1.06002649006623	0.0834966887417219	0.261933774834437	-10.6882119205298	-17.5880794701987	2.18251655629139				-0.000211920529801336	-0.574834437086093	-0.884238410596026	-25.7396026490066	31.7976158940397	45.445298013245			
84	1880	-0.168158940397351	0.0347549668874172	-0.903523178807947	-18.1666225165563	-8.82463576158941	2.73509933774834				0.832953642384106	0.175788079470199	-0.386860927152318	11.3539072847682	-31.0521854304636	5.85403973509934				-0.170172185430464	-0.193271523178808	-0.83994701986755	12.887417218543	-5.45350993377483	-1.04026490066225				0.224529801324503	-0.0325298013245033	-0.981721854304636	20.4029139072848	11.6635761589404	-6.77562913907285				1.06002649006623	0.0834966887417219	0.229933774834437	-11.5282119205298	-24.0280794701987	3.30251655629139				0.0157880794701987	-0.446834437086093	-0.932238410596026	-38.3396026490066	38.5176158940397	51.325298013245			
85	1900	-0.200158940397351	0.0507549668874172	-0.935523178807947	-13.1266225165563	-8.26463576158941	2.45509933774835				0.896953642384106	0.127788079470199	-0.482860927152318	22.2739072847682	-23.4921854304636	9.77403973509934				-0.202172185430464	-0.241271523178808	-0.83994701986755	10.927417218543	-3.21350993377483	-0.76026490066225				0.240529801324503	-0.112529801324503	-0.997721854304636	10.8829139072848	-0.6564238410596	-7.61562913907285				1.02802649006623	0.0994966887417219	0.165933774834437	-15.4482119205298	-26.5480794701987	3.30251655629139				0.0477880794701987	-0.382834437086093	-0.948238410596026	-28.2596026490066	36.2776158940397	55.245298013245			
86	1920	-0.264158940397351	0.0667549668874172	-0.967523178807947	-12.5666225165563	-7.1446357615894	3.01509933774834				0.912953642384106	0.127788079470199	-0.482860927152318	21.7139072847682	-18.4521854304636	12.2940397350993				-0.250172185430464	-0.257271523178808	-0.90394701986755	12.607417218543	-1.81350993377483	-1.32026490066225				0.208529801324503	-0.0645298013245033	-0.981721854304636	-7.31708609271523	-6.5364238410596	-10.6956291390728				1.04402649006623	0.0994966887417219	0.133933774834437	-23.5682119205298	-22.3480794701987	1.62251655629139				0.0157880794701987	-0.302834437086093	-0.916238410596027	-12.8596026490066	30.3976158940397	58.885298013245			
87	1940	-0.280158940397351	0.0667549668874172	-0.967523178807947	-12.0066225165563	-2.1046357615894	4.97509933774835				0.880953642384106	0.0797880794701987	-0.434860927152318	4.07390728476821	-7.81218543046358	12.5740397350993				-0.282172185430464	-0.225271523178808	-0.87194701986755	8.96741721854305	-1.25350993377483	-1.04026490066225				0.160529801324503	-0.0165298013245033	-0.949721854304636	-5.07708609271523	1.0235761589404	-9.57562913907285				0	0	0	0	0	0				0	0	0	0	0	0			
88	1960	-0.280158940397351	0.0667549668874172	-0.935523178807947	-14.2466225165563	-0.424635761589404	7.49509933774834				0	0	0	0	0	0				0	0	0	0	0	0				0	0	0	0	0	0				0	0	0	0	0	0				0	0	0	0	0	0			
89	2040	0	0	0	0	0	0				0	0	0	0	0	0				-0.250172185430464	-0.193271523178808	-0.90394701986755	15.407417218543	2.38649006622517	2.03973509933775				0	0	0	0	0	0				0	0	0	0	0	0				0	0	0	0	0	0			
90	2060	-0.200158940397351	0.130754966887417	-0.935523178807947	-17.6066225165563	6.0153642384106	8.33509933774834				0.800953642384106	0.0477880794701987	-0.242860927152318	-9.08609271523179	70.5878145695364	24.0540397350993				-0.234172185430464	-0.177271523178808	-0.87194701986755	8.96741721854305	2.66649006622517	2.03973509933775				0	0	0	0	0	0				0	0	0	0	0	0				0	0	0	0	0	0			
91	2080	-0.216158940397351	0.146754966887417	-0.951523178807947	-18.7266225165563	4.8953642384106	10.0150993377483				0.896953642384106	0.0157880794701987	-0.178860927152318	-0.126092715231788	54.9078145695364	22.6540397350993				-0.218172185430464	-0.177271523178808	-0.85594701986755	21.287417218543	2.94649006622517	0.0797350993377501				0.480529801324503	-0.128529801324503	-0.933721854304636	57.6429139072848	40.5035761589404	8.06437086092715				0.884026490066225	0.0514966887417219	0.229933774834437	29.9117880794702	-28.7880794701987	7.78251655629139				0.0317880794701987	-0.254834437086093	-0.756238410596026	-25.4596026490066	57.2776158940397	38.445298013245			
92	2100	-0.200158940397351	0.146754966887417	-0.951523178807947	-16.2066225165563	5.1753642384106	10.5750993377483				0.880953642384106	0.0317880794701987	-0.162860927152318	-5.44609271523179	72.5478145695364	20.4140397350993				-0.218172185430464	-0.209271523178808	-0.85594701986755	27.447417218543	0.986490066225167	0.35973509933775				0.448529801324503	-0.144529801324503	-0.965721854304636	41.1229139072848	30.1435761589404	-2.85562913907285				0.868026490066225	0.0514966887417219	0.245933774834437	29.3517880794702	-31.3080794701987	4.42251655629139				0.0157880794701987	-0.302834437086093	-0.772238410596026	-8.09960264900662	63.7176158940397	29.485298013245			
93	2120	-0.184158940397351	0.162754966887417	-0.967523178807947	-14.8066225165563	7.9753642384106	11.6950993377483				0.944953642384106	0.0317880794701987	-0.114860927152318	-8.52609271523179	78.1478145695364	21.8140397350993				-0.234172185430464	-0.225271523178808	-0.88794701986755	28.287417218543	3.50649006622517	-2.44026490066225				0.368529801324503	-0.112529801324503	-0.949721854304636	33.2829139072848	28.1835761589404	-16.8556291390729				0.900026490066225	0.0194966887417219	0.229933774834437	29.9117880794702	-24.5880794701987	0.782516556291392				0.0797880794701987	-0.334834437086093	-0.756238410596026	1.42039735099338	64.8376158940397	20.525298013245			
94	2140	-0.168158940397351	0.194754966887417	-0.919523178807947	-13.4066225165563	7.9753642384106	11.6950993377483				0.912953642384106	0.0477880794701987	-0.00286092715231785	-4.60609271523179	75.0678145695364	20.9740397350993				-0.234172185430464	-0.241271523178808	-0.88794701986755	27.727417218543	5.46649006622517	-3.84026490066225				0.400529801324503	-0.160529801324503	-0.901721854304636	34.1229139072848	29.8635761589404	-30.8556291390729				0.900026490066225	-0.0285033112582781	0.197933774834437	40.2717880794702	-20.3880794701987	-3.69748344370861				0.175788079470199	-0.382834437086093	-0.692238410596026	-2.77960264900662	63.7176158940397	11.845298013245			
95	2160	-0.168158940397351	0.162754966887417	-0.935523178807947	-13.6866225165563	7.1353642384106	12.2550993377483				0.912953642384106	0.0477880794701987	0.0611390728476822	5.47390728476821	70.5878145695364	17.0540397350993				-0.234172185430464	-0.241271523178808	-0.88794701986755	35.287417218543	7.42649006622517	-5.80026490066225				0.336529801324503	-0.224529801324503	-0.805721854304636	36.3629139072848	22.0235761589404	-34.4956291390729				0.932026490066225	0.00349668874172187	0.245933774834437	43.0717880794702	-19.8280794701987	-13.7774834437086				0.271788079470199	-0.382834437086093	-0.724238410596026	-21.2596026490066	57.8376158940397	15.205298013245			
96	2180	-0.168158940397351	0.162754966887417	-0.999523178807947	-9.48662251655629	5.7353642384106	12.5350993377483				0.976953642384106	0.0637880794701987	0.0771390728476822	11.3539072847682	63.0278145695364	15.3740397350993				-0.186172185430464	-0.225271523178808	-0.83994701986755	37.5274172185431	7.98649006622517	-7.20026490066225				0.272529801324503	-0.224529801324503	-0.709721854304636	52.3229139072848	26.7835761589404	-35.6156291390729				0.900026490066225	0.0194966887417219	0.229933774834437	22.9117880794702	-30.1880794701987	-19.9374834437086				0.351788079470199	-0.382834437086093	-0.788238410596027	-13.1396026490066	50.2776158940397	11.565298013245			
97	2200	-0.152158940397351	0.194754966887417	-0.983523178807947	-11.1666225165563	7.9753642384106	12.5350993377483				0.960953642384106	-0.0322119205298013	0.0451390728476822	16.1139072847682	61.0678145695364	16.2140397350993				-0.202172185430464	-0.273271523178808	-0.83994701986755	21.567417218543	1.82649006622517	-6.36026490066225				0.352529801324503	-0.176529801324503	-0.709721854304636	70.8029139072848	27.6235761589404	-39.5356291390729				0.756026490066225	0.179496688741722	0.309933774834437	38.8717880794702	-13.6680794701987	-18.8174834437086				0.383788079470199	-0.446834437086093	-0.868238410596026	3.38039735099338	41.5976158940397	2.04529801324503			
98	2220	-0.152158940397351	0.210754966887417	-0.999523178807947	-10.6066225165563	11.3353642384106	12.2550993377483				0.992953642384106	-0.0482119205298013	0.0611390728476822	19.1939072847682	72.5478145695364	14.5340397350993				-0.186172185430464	-0.289271523178808	-0.83994701986755	23.807417218543	-1.81350993377483	-7.76026490066225				0.480529801324503	-0.160529801324503	-0.773721854304636	85.3629139072848	30.4235761589404	-34.4956291390729				0.884026490066225	0.179496688741722	0.277933774834437	46.4317880794702	9.29192052980133	-9.85748344370861				0.463788079470199	-0.478834437086093	-0.900238410596026	14.5803973509934	40.1976158940397	-11.954701986755			
99	2240	-0.152158940397351	0.178754966887417	-1.03152317880795	-5.28662251655629	13.8553642384106	12.2550993377483				0.992953642384106	-0.128211920529801	0.157139072847682	23.6739072847682	72.5478145695364	14.8140397350993				-0.170172185430464	-0.369271523178808	-0.87194701986755	22.967417218543	0.146490066225167	-10.0002649006623				0.816529801324503	-0.176529801324503	-0.821721854304636	55.9629139072848	32.3835761589404	-30.5756291390729				0.964026490066225	0.0834966887417219	0.357933774834437	64.9117880794702	14.0519205298013	1.34251655629139				0.559788079470199	-0.526834437086093	-0.884238410596026	16.8203973509934	34.0376158940397	-4.39470198675497			
100	2260	-0.152158940397351	0.178754966887417	-0.871523178807947	-10.3266225165563	14.1353642384106	10.0150993377483				1.05695364238411	-0.160211920529801	0.253139072847682	17.7939072847682	62.4678145695364	7.81403973509934				-0.170172185430464	-0.417271523178808	-0.87194701986755	20.727417218543	-0.973509933774833	-12.8002649006623				0.864529801324503	-0.160529801324503	-0.789721854304636	13.4029139072848	24.8235761589404	-20.2156291390728				0.932026490066225	0.0354966887417219	0.501933774834437	53.1517880794702	9.85192052980133	-2.29748344370861				0.495788079470199	-0.686834437086093	-0.836238410596026	4.78039735099338	17.5176158940397	15.485298013245			
101	2280	-0.216158940397351	0.178754966887417	-0.999523178807947	-7.80662251655629	14.6953642384106	6.65509933774834				1.16895364238411	-0.144211920529801	0.317139072847682	4.35390728476821	50.1478145695364	1.09403973509934				-0.122172185430464	-0.465271523178808	-0.79194701986755	20.727417218543	0.146490066225167	-11.1202649006623				0.656529801324503	-0.160529801324503	-0.789721854304636	7.80291390728477	16.4235761589404	-9.85562913907285				0.932026490066225	0.0514966887417219	0.533933774834437	29.0717880794702	-4.70807947019868	-3.69748344370861				0.479788079470199	-0.734834437086093	-0.804238410596027	-22.9396026490066	11.3576158940397	30.605298013245			
102	2300	-0.216158940397351	0.210754966887417	-0.951523178807947	-10.6066225165563	20.0153642384106	8.05509933774835				1.10495364238411	-0.0482119205298013	0.205139072847682	8.55390728476821	22.4278145695364	-1.70596026490066				-0.154172185430464	-0.497271523178808	-0.80794701986755	15.687417218543	-1.53350993377483	-9.44026490066225				0.624529801324503	-0.176529801324503	-0.869721854304636	6.68291390728477	9.1435761589404	-11.2556291390728				1.01202649006623	0.0514966887417219	0.389933774834437	5.8317880794702	-10.3080794701987	-0.897483443708608				0.511788079470199	-0.654834437086093	-0.788238410596027	-6.69960264900662	12.1976158940397	31.725298013245			
103	2320	-0.232158940397351	0.130754966887417	-0.903523178807947	-17.3266225165563	20.5753642384106	11.1350993377483				1.02495364238411	-0.112211920529801	0.157139072847682	26.1939072847682	17.6678145695364	-1.14596026490066				-0.250172185430464	-0.449271523178808	-0.80794701986755	2.52741721854305	1.82649006622517	-4.96026490066225				0.608529801324503	-0.192529801324503	-0.821721854304636	16.2029139072848	18.6635761589404	-17.4156291390728				0.996026490066225	0.0514966887417219	0.293933774834437	11.1517880794702	-5.26807947019868	1.90251655629139				0.495788079470199	-0.526834437086093	-0.868238410596026	-5.85960264900662	12.7576158940397	22.205298013245			
104	2340	-0.248158940397351	0.130754966887417	-0.983523178807947	-13.1266225165563	22.2553642384106	11.4150993377483				0.992953642384106	-0.288211920529801	0.253139072847682	25.0739072847682	22.9878145695364	-2.54596026490066				-0.218172185430464	-0.353271523178808	-0.80794701986755	0.00741721854304636	9.10649006622517	-2.16026490066225				0.416529801324503	-0.224529801324503	-0.853721854304636	17.8829139072848	13.9035761589404	-20.4956291390729				0.900026490066225	0.00349668874172187	0.341933774834437	22.9117880794702	7.61192052980133	1.34251655629139				0.479788079470199	-0.446834437086093	-0.836238410596026	10.9403973509934	6.87761589403974	22.765298013245			
105	2360	-0.232158940397351	0.130754966887417	-0.951523178807947	-14.2466225165563	24.7753642384106	11.9750993377483				1.00895364238411	-0.144211920529801	0.333139072847682	-4.88609271523179	19.6278145695364	-14.0259602649007				-0.138172185430464	-0.289271523178808	-0.79194701986755	-10.072582781457	7.98649006622517	5.67973509933775				0.528529801324503	-0.224529801324503	-0.821721854304636	20.4029139072848	5.5035761589404	-14.3356291390729				0.884026490066225	-0.0125033112582781	0.405933774834437	14.5117880794702	5.93192052980133	1.90251655629139				0.255788079470199	-0.558834437086093	-0.740238410596026	37.2603973509934	-13.8423841059603	23.605298013245			
106	2380	-0.264158940397351	0.162754966887417	-0.951523178807947	-20.1266225165563	21.6953642384106	12.2550993377483				1.15295364238411	-0.0802119205298013	0.189139072847682	-11.6060927152318	8.42781456953642	-12.6259602649007				-0.186172185430464	-0.337271523178808	-0.82394701986755	-5.31258278145695	7.98649006622517	5.67973509933775				0.528529801324503	-0.192529801324503	-0.805721854304636	5.56291390728477	-8.2164238410596	-10.1356291390728				0.948026490066225	0.0674966887417219	0.293933774834437	3.0317880794702	1.45192052980132	3.58251655629139				0.255788079470199	-0.574834437086093	-0.724238410596026	21.0203973509934	-9.92238410596027	21.925298013245			
107	2400	-0.264158940397351	0.146754966887417	-0.951523178807947	-26.5666225165563	27.5753642384106	13.3750993377483				1.08895364238411	-0.160211920529801	-0.00286092715231785	7.71390728476821	-7.81218543046358	-9.54596026490066				-0.250172185430464	-0.433271523178808	-0.91994701986755	-5.03258278145695	16.6664900662252	0.0797350993377501				0.576529801324503	-0.224529801324503	-0.805721854304636	-7.31708609271523	-12.1364238410596	-6.49562913907285				1.01202649006623	0.0674966887417219	0.229933774834437	-1.4482119205298	4.81192052980133	6.10251655629139				0.335788079470199	-0.638834437086093	-0.740238410596026	19.0603973509934	2.67761589403974	19.125298013245			
108	2420	-0.200158940397351	0.210754966887417	-0.967523178807947	-26.2866225165563	29.2553642384106	15.8950993377483				0.960953642384106	-0.224211920529801	0.0291390728476822	5.47390728476821	-3.61218543046358	-7.30596026490066				-0.282172185430464	-0.433271523178808	-0.96794701986755	-6.15258278145695	11.3464900662252	-6.08026490066225				0.528529801324503	-0.240529801324503	-0.853721854304636	-0.597086092715232	-4.8564238410596	-3.41562913907285				1.02802649006623	0.0194966887417219	0.277933774834437	4.7117880794702	4.25192052980133	8.34251655629139				0.367788079470199	-0.622834437086093	-0.772238410596026	6.74039735099338	0.997615894039735	24.725298013245			
109	2440	-0.104158940397351	0.290754966887417	-1.09552317880795	-33.2866225165563	30.6553642384106	18.4150993377483				0.992953642384106	-0.000211920529801304	0.269139072847682	-14.4060927152318	10.9478145695364	-19.9059602649007				-0.234172185430464	-0.305271523178808	-0.88794701986755	1.40741721854305	21.7064900662252	-8.60026490066225				0.496529801324503	-0.224529801324503	-0.901721854304636	3.88291390728477	6.9035761589404	-1.45562913907285				1.10802649006623	0.0194966887417219	0.341933774834437	-2.8482119205298	2.85192052980133	5.26251655629139				0.351788079470199	-0.542834437086093	-0.820238410596026	-9.77960264900662	-3.20238410596026	21.365298013245			
110	2460	-0.104158940397351	0.274754966887417	-1.04752317880795	-15.9266225165563	37.9353642384106	19.2550993377483				1.26495364238411	0.0797880794701987	0.285139072847682	-33.1660927152318	24.3878145695364	-22.9859602649007				-0.250172185430464	-0.289271523178808	-0.95194701986755	-7.27258278145696	27.0264900662252	-6.92026490066225				0.512529801324503	-0.208529801324503	-0.917721854304636	6.96291390728477	11.9435761589404	1.90437086092715				1.15602649006623	0.115496688741722	0.341933774834437	-19.3682119205298	-13.6680794701987	1.06251655629139				0.271788079470199	-0.526834437086093	-0.756238410596026	-9.21960264900662	2.95761589403974	17.445298013245			
111	2480	-0.136158940397351	0.402754966887417	-1.03152317880795	-12.2866225165563	44.3753642384106	16.1750993377483				1.32895364238411	0.0797880794701987	0.173139072847682	-21.1260927152318	7.58781456953643	-23.5459602649007				-0.250172185430464	-0.401271523178808	-0.98394701986755	-18.472582781457	35.4264900662252	-7.20026490066225				0.528529801324503	-0.240529801324503	-0.965721854304636	4.44291390728477	18.6635761589404	3.58437086092715				1.15602649006623	0.195496688741722	0.229933774834437	-28.3282119205298	-13.9480794701987	2.46251655629139				0.351788079470199	-0.606834437086093	-0.788238410596027	-5.29960264900662	29.2776158940397	9.60529801324503			
112	2500	-0.072158940397351	0.386754966887417	-1.06352317880795	-7.24662251655629	52.4953642384106	12.8150993377483				1.24895364238411	0.0797880794701987	0.0611390728476822	-5.44609271523179	-3.05218543046358	-21.3059602649007				-0.234172185430464	-0.401271523178808	-1.01594701986755	-29.672582781457	34.5864900662252	-17.0002649006623				0.656529801324503	-0.272529801324503	-1.01372185430464	7.24291390728477	30.1435761589404	4.98437086092715				1.20402649006623	0.163496688741722	0.229933774834437	-10.6882119205298	7.33192052980133	2.46251655629139				0.479788079470199	-0.622834437086093	-0.868238410596026	4.78039735099338	37.6776158940397	-0.474701986754968			
113	2520	0.055841059602649	0.370754966887417	-1.03152317880795	-1.92662251655629	65.0953642384106	11.1350993377483				1.31295364238411	0.143788079470199	0.189139072847682	4.63390728476821	-4.17218543046358	-13.1859602649007				-0.266172185430464	-0.321271523178808	-1.03194701986755	-28.272582781457	46.9064900662252	-20.0802649006623				0.688529801324503	-0.304529801324503	-1.02972185430464	11.1629139072848	46.9435761589404	4.42437086092715				1.26802649006623	0.131496688741722	0.341933774834437	-12.3682119205298	9.29192052980133	-3.41748344370861				0.463788079470199	-0.590834437086093	-0.884238410596026	-5.85960264900662	41.0376158940397	-6.07470198675497			
114	2540	0.023841059602649	0.482754966887417	-1.06352317880795	6.19337748344371	64.5353642384106	6.65509933774834				1.31295364238411	0.191788079470199	0.333139072847682	0.713907284768212	-14.5321854304636	-7.58596026490066				-0.202172185430464	-0.289271523178808	-1.03194701986755	-33.032582781457	57.2664900662252	-20.6402649006623				0.720529801324503	-0.272529801324503	-1.02972185430464	4.44291390728477	57.0235761589404	3.86437086092715				1.23602649006623	0.195496688741722	0.293933774834437	-23.0082119205298	0.0519205298013249	-7.33748344370861				0.447788079470199	-0.510834437086093	-0.852238410596026	-10.3396026490066	50.8376158940397	-11.674701986755			
115	2560	-0.008158940397351	0.450754966887417	-1.04752317880795	25.5133774834437	74.0553642384106	2.17509933774834				1.20095364238411	0.143788079470199	0.349139072847682	-9.36609271523179	-10.3321854304636	-11.2259602649007				-0.122172185430464	-0.337271523178808	-0.96794701986755	-45.072582781457	64.2664900662252	-22.6002649006623				0.688529801324503	-0.240529801324503	-1.01372185430464	-2.27708609271523	59.5435761589404	1.90437086092715				1.14002649006623	0.211496688741722	0.229933774834437	-20.2082119205298	-1.62807947019868	-10.4174834437086				0.431788079470199	-0.462834437086093	-0.868238410596026	1.98039735099338	59.5176158940397	-20.634701986755			
116	2580	0.135841059602649	0.290754966887417	-1.03152317880795	36.1533774834437	83.0153642384106	-0.904900662251656				1.26495364238411	0.0797880794701987	0.0931390728476822	2.67390728476821	-6.69218543046358	-5.90596026490066				-0.0101721854304636	-0.225271523178808	-0.99994701986755	-29.392582781457	74.3464900662252	-27.3602649006623				0.624529801324503	-0.224529801324503	-0.949721854304636	-1.99708609271523	61.2235761589404	1.62437086092715				1.14002649006623	0.211496688741722	0.261933774834437	-10.6882119205298	8.17192052980133	-12.0974834437086				0.463788079470199	-0.510834437086093	-0.916238410596027	15.1403973509934	55.8776158940397	-29.034701986755			
117	2600	0.087841059602649	0.210754966887417	-1.12752317880795	31.6733774834437	90.2953642384106	-2.86490066225166				1.40895364238411	0.191788079470199	-0.0508609271523178	15.8339072847682	-15.3721854304636	-7.58596026490066				0.0698278145695364	-0.193271523178808	-1.01594701986755	-10.072582781457	82.4664900662252	-30.1602649006623				0.640529801324503	-0.224529801324503	-0.981721854304636	0.802913907284768	67.1035761589404	3.30437086092715				1.26802649006623	0.147496688741722	0.293933774834437	-10.6882119205298	13.2119205298013	-13.2174834437086				0.447788079470199	-0.606834437086093	-0.916238410596027	12.9003973509934	51.1176158940397	-25.394701986755			
118	2620	0.135841059602649	0.210754966887417	-1.09552317880795	20.1933774834437	95.8953642384106	-0.624900662251656				1.37695364238411	0.159788079470199	0.0131390728476822	18.9139072847682	-35.5321854304636	-12.9059602649007				0.0538278145695364	-0.353271523178808	-0.98394701986755	-6.15258278145695	86.9464900662252	-25.9602649006623				0.704529801324503	-0.224529801324503	-0.965721854304636	5.84291390728477	78.8635761589404	6.38437086092715				1.34802649006623	0.163496688741722	0.245933774834437	-20.2082119205298	8.45192052980133	-13.7774834437086				0.543788079470199	-0.590834437086093	-0.900238410596026	-19.2996026490066	64.8376158940397	-25.114701986755			
119	2640	0.199841059602649	0.258754966887417	-1.04752317880795	18.7933774834437	102.055364238411	4.41509933774834				1.24895364238411	0.0957880794701987	0.157139072847682	15.2739072847682	-21.8121854304636	-6.74596026490066				0.133827814569536	-0.417271523178808	-0.96794701986755	-8.95258278145695	94.5064900662252	-15.8802649006623				0.736529801324503	-0.272529801324503	-0.901721854304636	11.7229139072848	88.6635761589404	8.06437086092715				1.33202649006623	0.179496688741722	0.117933774834437	-26.3682119205298	-1.90807947019868	-14.8974834437086				0.623788079470199	-0.414834437086093	-0.916238410596027	-43.0996026490066	89.1976158940397	-39.114701986755			
120	2660	0.199841059602649	0.210754966887417	-1.07952317880795	18.5133774834437	106.815364238411	9.45509933774835				1.31295364238411	0.0797880794701987	0.125139072847682	7.71390728476821	-6.13218543046358	-5.34596026490066				0.181827814569536	-0.321271523178808	-0.95194701986755	-18.752582781457	103.746490066225	-9.16026490066225				0.752529801324503	-0.320529801324503	-0.901721854304636	22.3629139072848	92.3035761589404	8.06437086092715				1.26802649006623	0.147496688741722	0.0699337748344371	-18.2482119205298	-7.22807947019868	-12.9374834437086				0.607788079470199	-0.254834437086093	-0.932238410596026	-26.0196026490066	103.19761589404	-51.434701986755			
121	2680	0.167841059602649	0.162754966887417	-1.06352317880795	29.1533774834437	115.215364238411	13.6550993377483				1.20095364238411	0.175788079470199	-0.162860927152318	15.8339072847682	-30.7721854304636	-16.2659602649007				0.101827814569536	-0.113271523178808	-0.96794701986755	-20.432582781457	108.226490066225	-10.8402649006623				0.736529801324503	-0.336529801324503	-0.901721854304636	33.0029139072848	92.8635761589404	10.3043708609272				1.22002649006623	0.147496688741722	0.117933774834437	-14.0482119205298	-9.18807947019868	-12.3774834437086				0.591788079470199	-0.270834437086093	-0.932238410596026	14.8603973509934	97.0376158940397	-58.994701986755			
122	2700	-0.088158940397351	0.194754966887417	-0.983523178807947	27.1933774834437	119.415364238411	15.8950993377483				1.04095364238411	0.143788079470199	-0.338860927152318	12.4739072847682	-32.4521854304636	-22.1459602649007				0.0698278145695364	-0.145271523178808	-0.98394701986755	-13.152582781457	111.306490066225	-12.2402649006623				0.704529801324503	-0.416529801324503	-0.885721854304636	28.5229139072848	89.2235761589404	13.6643708609272				1.22002649006623	0.147496688741722	0.0859337748344371	-15.4482119205298	-20.6680794701987	-12.3774834437086				0.687788079470199	-0.382834437086093	-0.964238410596026	24.3803973509934	87.5176158940398	-70.754701986755			
123	2720	0.087841059602649	0.242754966887417	-0.983523178807947	28.3133774834437	127.815364238411	15.6150993377483				0.992953642384106	0.0957880794701987	-0.178860927152318	3.79390728476821	15.1478145695364	-17.3859602649007				0.101827814569536	-0.177271523178808	-0.98394701986755	-13.432582781457	118.866490066225	-14.4802649006623				0.704529801324503	-0.400529801324503	-0.869721854304636	20.1229139072848	80.2635761589404	14.7843708609272				1.14002649006623	0.163496688741722	0.0379337748344371	-21.6082119205298	-26.5480794701987	-11.5374834437086				0.735788079470199	-0.350834437086093	-0.980238410596026	10.6603973509934	76.5976158940397	-79.714701986755			
124	2740	0.247841059602649	0.0827549668874172	-0.871523178807947	31.6733774834437	131.735364238411	23.4550993377483				1.26495364238411	0.191788079470199	0.125139072847682	5.75390728476821	45.6678145695364	-12.9059602649007				0.165827814569536	-0.0972715231788079	-0.91994701986755	-21.272582781457	124.186490066225	-16.4402649006623				0.720529801324503	-0.400529801324503	-0.821721854304636	9.48291390728477	76.6235761589404	14.2243708609272				0.996026490066225	0.195496688741722	0.0539337748344371	-14.6082119205298	-16.1880794701987	-14.8974834437086				0.703788079470199	-0.350834437086093	-0.948238410596026	-6.41960264900662	68.1976158940397	-83.354701986755			
125	2760	0.503841059602649	0.0987549668874172	-0.887523178807947	18.7933774834437	138.735364238411	27.0950993377483				1.39295364238411	0.111788079470199	0.125139072847682	-4.04609271523179	-6.69218543046358	-4.50596026490066				0.181827814569536	-0.00127152317880793	-0.83994701986755	-19.872582781457	130.626490066225	-19.8002649006623				0.736529801324503	-0.416529801324503	-0.789721854304636	2.20291390728477	68.7835761589404	10.0243708609272				1.09202649006623	0.147496688741722	0.0379337748344371	-19.9282119205298	-13.9480794701987	-13.4974834437086				0.735788079470199	-0.366834437086093	-0.964238410596026	-29.9396026490066	59.7976158940397	-74.954701986755			
126	2780	0.375841059602649	0.0667549668874172	-0.871523178807947	8.43337748344371	143.775364238411	32.4150993377484				1.00895364238411	0.239788079470199	-0.306860927152318	2.39390728476821	-66.0521854304636	-14.8659602649007				0.181827814569536	-0.00127152317880793	-0.82394701986755	-13.712582781457	132.026490066225	-22.3202649006623				0.672529801324503	-0.288529801324503	-0.773721854304636	-3.39708609271523	64.8635761589404	6.10437086092715				1.15602649006623	0.131496688741722	-0.0260662251655629	-24.4082119205298	-15.6280794701987	-12.6574834437086				0.751788079470199	-0.446834437086093	-0.980238410596026	-35.8196026490066	40.7576158940397	-57.314701986755			
127	2800	0.279841059602649	0.0667549668874172	-0.823523178807947	3.39337748344371	148.535364238411	32.9750993377484				0.768953642384106	0.143788079470199	-0.466860927152318	-1.80609271523179	-27.9721854304636	-18.2259602649007				0.213827814569536	-0.0812715231788079	-0.85594701986755	-8.39258278145695	137.346490066225	-21.7602649006623				0.736529801324503	-0.240529801324503	-0.693721854304636	5.28291390728477	53.1035761589404	4.14437086092715				1.07602649006623	0.179496688741722	-0.0100662251655629	-30.8482119205298	-28.2280794701987	-10.6974834437086				0.703788079470199	-0.446834437086093	-0.916238410596027	-40.2996026490066	24.5176158940397	-43.034701986755			
128	2820	0.407841059602649	0.162754966887417	-0.663523178807947	-2.76662251655629	145.455364238411	28.7750993377483				0.848953642384106	0.143788079470199	-0.258860927152318	11.6339072847682	28.8678145695364	-22.9859602649007				0.325827814569536	-0.161271523178808	-0.79194701986755	-19.032582781457	142.946490066225	-20.3602649006623				0.736529801324503	-0.224529801324503	-0.661721854304636	10.6029139072848	34.3435761589404	6.38437086092715				0.948026490066225	0.227496688741722	0.00593377483443711	-32.2482119205298	-34.9480794701987	-6.77748344370861				0.575788079470199	-0.334834437086093	-0.804238410596027	-67.7396026490066	22.2776158940397	-30.714701986755			
129	2840	0.583841059602649	0.210754966887417	-0.679523178807947	1.99337748344371	150.495364238411	28.7750993377483				1.10495364238411	0.175788079470199	0.0451390728476822	20.0339072847682	29.9878145695364	-14.0259602649007				0.357827814569536	-0.225271523178808	-0.69594701986755	-38.072582781457	150.226490066225	-17.0002649006623				0.768529801324503	-0.192529801324503	-0.677721854304636	17.8829139072848	14.4635761589404	1.06437086092715				0.884026490066225	0.211496688741722	-0.0580662251655629	-17.1282119205298	-38.3080794701987	-1.73748344370861				0.463788079470199	-0.126834437086093	-0.772238410596026	-91.2596026490066	27.3176158940397	-15.314701986755			
130	2860	0.599841059602649	0.226754966887417	-0.711523178807947	18.5133774834437	149.655364238411	30.7350993377483				1.08895364238411	0.111788079470199	-0.130860927152318	36.8339072847682	-16.7721854304636	1.65403973509934				0.373827814569536	-0.177271523178808	-0.63194701986755	-35.552582781457	151.626490066225	-3.28026490066225				0.816529801324503	-0.192529801324503	-0.661721854304636	18.7229139072848	-5.9764238410596	-12.3756291390728				0.852026490066225	0.211496688741722	-0.0260662251655629	-4.5282119205298	-32.4280794701987	1.34251655629139				0.447788079470199	0.0171655629139073	-0.756238410596026	-76.6996026490066	16.9576158940397	-4.67470198675497			
131	2880	0.583841059602649	0.0347549668874172	-0.599523178807947	16.5533774834437	154.695364238411	24.5750993377483				0.752953642384106	0.111788079470199	-0.178860927152318	15.2739072847682	-20.6921854304636	0.25403973509934				0.453827814569536	-0.177271523178808	-0.58394701986755	-23.792582781457	156.106490066225	5.11973509933775				0.720529801324503	-0.288529801324503	-0.533721854304636	9.76291390728477	-26.1364238410596	-25.2556291390729				0.852026490066225	0.115496688741722	-0.0580662251655629	-18.8082119205298	-41.1080794701987	-1.73748344370861				0.447788079470199	0.129165562913907	-0.740238410596026	-49.8196026490066	9.11761589403974	-3.83470198675497			
132	2900	0.599841059602649	0.0187549668874172	-0.519523178807947	8.15337748344371	152.175364238411	14.4950993377483				0.720953642384106	0.0477880794701987	0.0291390728476822	14.9939072847682	10.9478145695364	3.61403973509934				0.565827814569536	-0.129271523178808	-0.51994701986755	-13.432582781457	156.106490066225	5.11973509933775				0.624529801324503	-0.240529801324503	-0.469721854304636	-7.87708609271523	-48.8164238410596	-37.0156291390729				0.660026490066225	0.227496688741722	0.149933774834437	-0.888211920529802	-30.7480794701987	-3.13748344370861				0.447788079470199	0.0651655629139073	-0.660238410596027	-22.3796026490066	0.997615894039735	-8.03470198675497			
133	2920	0.663841059602649	0.0187549668874172	-0.535523178807947	4.23337748344371	159.735364238411	15.3350993377483				0.544953642384106	0.0957880794701987	-0.130860927152318	32.3539072847682	-17.3321854304636	13.9740397350993				0	0	0	0	0	0				0.560529801324503	-0.128529801324503	-0.437721854304636	-21.0370860927152	-69.2564238410596	-37.2956291390729				0.628026490066225	0.195496688741722	0.00593377483443711	22.9117880794702	-30.7480794701987	3.86251655629139				0.447788079470199	-0.0788344370860927	-0.596238410596026	-25.4596026490066	7.99761589403974	-9.99470198675497			
134	2940	0	0	0	0	0	0				0	0	0	0	0	0				0	0	0	0	0	0				0.528529801324503	-0.128529801324503	-0.421721854304636	-16.2770860927152	-77.0964238410596	-28.8956291390729				0.740026490066225	0.0834966887417219	-0.0580662251655629	27.1117880794702	-27.3880794701987	9.46251655629139				0.495788079470199	0.00116556291390731	-0.644238410596026	-50.6596026490066	6.59761589403974	-15.034701986755			
135	3040	0	0	0	0	0	0				0	0	0	0	0	0				0	0	0	0	0	0				0.560529801324503	-0.160529801324503	-0.453721854304636	94.8829139072848	-63.9364238410596	17.8643708609272				0.676026490066225	0.131496688741722	0.133933774834437	33.2717880794702	-24.8680794701987	21.5025165562914				0.639788079470199	-0.206834437086093	-0.628238410596026	36.9803973509934	-77.1223841059603	-45.554701986755			
136	3060	0	0	0	0	0	0				0.528953642384106	0.0797880794701987	0.253139072847682	12.4739072847682	47.9078145695364	5.29403973509934				0.853827814569536	-0.193271523178808	-0.19994701986755	-3.91258278145695	142.106490066225	-17.2802649006623				0.736529801324503	-0.176529801324503	-0.517721854304636	45.3229139072848	-87.4564238410596	20.6643708609272				0.660026490066225	0.227496688741722	0.181933774834437	41.1117880794702	-30.1880794701987	20.3825165562914				0.511788079470199	-0.238834437086093	-0.532238410596027	36.4203973509934	-96.7223841059603	-33.234701986755			
137	3080	0.871841059602649	0.290754966887417	-0.151523178807947	75.0733774834437	126.415364238411	-2.58490066225166				0.752953642384106	0.111788079470199	0.0931390728476822	1.55390728476821	29.9878145695364	7.81403973509934				0.805827814569536	-0.257271523178808	-0.19994701986755	13.167417218543	118.866490066225	1.75973509933775				0.608529801324503	-0.192529801324503	-0.437721854304636	-11.2370860927152	-126.93642384106	16.4643708609272				0.660026490066225	0.0994966887417219	0.0539337748344371	47.2717880794702	-30.1880794701987	20.1025165562914				0.399788079470199	-0.206834437086093	-0.452238410596026	1.70039735099338	-109.88238410596	-15.594701986755			
138	3100	0.711841059602649	-0.0292450331125828	-0.119523178807947	82.6333774834437	116.335364238411	-2.58490066225166				0.128953642384106	0.271788079470199	-0.0668609271523178	-20.5660927152318	37.5478145695364	31.6140397350993				0.821827814569536	-0.241271523178808	-0.37594701986755	10.087417218543	101.226490066225	17.1597350993378				0.352529801324503	-0.128529801324503	-0.341721854304636	27.4029139072848	-109.85642384106	15.3443708609272				0.548026490066225	0.0514966887417219	0.0379337748344371	51.7517880794702	-32.7080794701987	18.1425165562914				0.287788079470199	-0.174834437086093	-0.356238410596026	-12.5796026490066	-107.36238410596	-1.03470198675497			
139	3120	0.855841059602649	-0.525245033112583	-0.215523178807947	68.9133774834437	108.215364238411	19.5350993377483				0.752953642384106	0.0637880794701987	0.0931390728476822	-59.4860927152318	115.667814569536	72.7740397350994				1.02982781456954	-0.305271523178808	-0.21594701986755	-27.432582781457	96.4664900662252	33.9597350993377				0.368529801324503	-0.112529801324503	-0.309721854304636	53.1629139072848	-80.7364238410596	9.74437086092715				0.612026490066225	0.115496688741722	0.0859337748344371	41.6717880794702	-23.4680794701987	12.8225165562914				0.239788079470199	-0.0628344370860927	-0.276238410596026	-25.1796026490066	-90.5623841059603	-3.55470198675497			
140	3140	0.823841059602649	-0.701245033112583	-0.055523178807947	-6.96662251655629	104.295364238411	40.5350993377483				0.288953642384106	0.287788079470199	0.525139072847682	5.19390728476821	129.387814569536	65.4940397350993				1.12582781456954	-0.225271523178808	-0.23194701986755	-33.872582781457	99.5464900662252	39.2797350993377				0.496529801324503	-0.112529801324503	-0.533721854304636	57.9229139072848	-71.4964238410596	2.74437086092715				0.836026490066225	0.131496688741722	0.101933774834437	41.9517880794702	-17.3080794701987	7.22251655629139				0.351788079470199	0.0491655629139073	-0.324238410596026	-43.6596026490066	-53.8823841059603	-18.954701986755			
141	3160	0.775841059602649	-0.269245033112583	0.200476821192053	-88.4466225165563	98.6953642384106	33.5350993377483				0.768953642384106	-0.000211920529801304	0.589139072847682	-6.84609271523179	-32.1721854304636	36.3740397350993				1.09382781456954	-0.0972715231788079	-0.32794701986755	-40.592582781457	60.3464900662252	17.9997350993378				0.544529801324503	-0.304529801324503	-0.549721854304636	40.5629139072848	-61.9764238410596	7.22437086092715				0.788026490066225	0.115496688741722	0.0859337748344371	44.4717880794702	-26.8280794701987	4.14251655629139				0.479788079470199	-0.0308344370860927	-0.468238410596026	-22.3796026490066	-26.7223841059603	-34.354701986755			
142	3180	0.871841059602649	0.178754966887417	0.152476821192053	-97.6866225165563	93.6553642384106	12.2550993377483				0.736953642384106	-0.256211920529801	-0.00286092715231785	10.5139072847682	26.9078145695364	34.4140397350993				0.965827814569536	-0.0972715231788079	-0.00794701986754963	-10.912582781457	18.9064900662252	26.3997350993378				0.368529801324503	-0.384529801324503	-0.549721854304636	26.8429139072848	-62.8164238410596	10.8643708609272				0.564026490066225	0.0354966887417219	0.0859337748344371	49.7917880794702	-22.0680794701987	4.98251655629139				0.511788079470199	-0.0628344370860927	-0.436238410596026	17.6603973509934	-32.0423841059603	-46.114701986755			
143	3200	0.935841059602649	0.370754966887417	0.088476821192053	-67.4466225165563	86.9353642384106	4.97509933774835				1.23295364238411	-0.208211920529801	0.861139072847682	15.8339072847682	56.0278145695364	20.1340397350993				0.917827814569536	-0.00127152317880793	-0.0399470198675496	2.80741721854305	29.2664900662252	6.51973509933775				0.240529801324503	-0.144529801324503	-0.645721854304636	24.6029139072848	-67.2964238410596	1.34437086092715				0.756026490066225	-0.0125033112582781	0.133933774834437	41.1117880794702	2.29192052980133	2.18251655629139				0.495788079470199	0.00116556291390731	-0.468238410596026	22.7003973509934	-12.1623841059603	-53.114701986755			
144	3220	1.14384105960265	0.290754966887417	0.120476821192053	-7.52662251655629	78.5353642384106	2.17509933774834				0.720953642384106	-0.0482119205298013	0.333139072847682	-3.76609271523179	-34.6921854304636	10.8940397350993				0.757827814569536	0.0947284768211921	-0.16794701986755	16.5274172185431	27.8664900662252	3.15973509933775				0.384529801324503	-0.0965298013245033	-0.725721854304636	21.8029139072848	-49.9364238410596	-14.6156291390728				0.900026490066225	0.163496688741722	0.181933774834437	22.9117880794702	4.25192052980133	1.90251655629139				0.655788079470199	-0.142834437086093	-0.692238410596026	21.0203973509934	4.35761589403974	-60.394701986755			
145	3240	1.12784105960265	0.162754966887417	0.184476821192053	65.5533774834437	50.5353642384106	14.7750993377483				0.752953642384106	0.383788079470199	0.413139072847682	-11.0460927152318	0.0278145695364242	-6.46596026490066				0.789827814569536	0.190728476821192	-0.0239470198675496	20.1674172185431	32.0664900662252	-4.12026490066225				0.672529801324503	-0.256529801324503	-0.709721854304636	16.7629139072848	-32.0164238410596	-20.7756291390729				0.964026490066225	0.291496688741722	0.117933774834437	22.9117880794702	0.891920529801325	4.42251655629139				0.863788079470199	-0.302834437086093	-0.820238410596026	40.9003973509934	2.95761589403974	-52.274701986755			
146	3260	1.01584105960265	-0.109245033112583	0.184476821192053	84.3133774834437	24.7753642384106	10.8550993377483				1.00895364238411	0.239788079470199	0.157139072847682	13.8739072847682	8.14781456953643	13.6940397350993				1.02982781456954	0.110728476821192	0.12005298013245	34.7274172185431	19.4664900662252	-5.24026490066225				0.544529801324503	-0.416529801324503	-0.629721854304636	40.8429139072848	-5.4164238410596	-9.85562913907285				0.900026490066225	0.195496688741722	0.0699337748344371	26.8317880794702	8.73192052980133	3.02251655629139				0.831788079470199	-0.318834437086093	-0.740238410596026	43.9803973509934	-26.4423841059603	-29.874701986755			
147	3280	1.07984105960265	-0.189245033112583	0.184476821192053	49.8733774834437	14.1353642384106	7.49509933774834				0.960953642384106	-0.0802119205298013	0.765139072847682	29.8339072847682	38.9478145695364	13.6940397350993				1.04582781456954	-0.129271523178808	0.13605298013245	62.1674172185431	10.5064900662252	-2.44026490066225				0.480529801324503	-0.0965298013245033	-0.693721854304636	15.0829139072848	-15.7764238410596	-6.21562913907285				0.836026490066225	0.195496688741722	0.261933774834437	34.3917880794702	21.6119205298013	4.70251655629139				0.639788079470199	-0.254834437086093	-0.708238410596026	57.7003973509934	-61.7223841059603	-6.91470198675497			
148	3300	0.919841059602649	-0.157245033112583	0.184476821192053	24.9533774834437	9.0953642384106	8.05509933774835				0.896953642384106	-0.000211920529801304	0.429139072847682	40.1939072847682	-19.2921854304636	6.41403973509934				0.949827814569536	-0.225271523178808	0.21605298013245	69.4474172185431	9.38649006622517	-4.40026490066225				0.624529801324503	-0.160529801324503	-0.773721854304636	-4.51708609271523	0.4635761589404	-2.85562913907285				0.980026490066225	0.147496688741722	0.277933774834437	19.5517880794702	17.1319205298013	3.58251655629139				0.559788079470199	-0.254834437086093	-0.676238410596026	44.5403973509934	-63.9623841059603	-2.43470198675497			
149	3320	0.903841059602649	-0.205245033112583	0.264476821192053	26.3533774834437	10.2153642384106	10.5750993377483				0.864953642384106	0.0637880794701987	0.285139072847682	18.3539072847682	7.86781456953642	7.81403973509934				0.917827814569536	-0.161271523178808	0.12005298013245	56.8474172185431	12.1864900662252	-9.44026490066225				0.720529801324503	-0.400529801324503	-0.757721854304636	-14.5970860927152	3.8235761589404	-0.335629139072848				1.01202649006623	0.0994966887417219	0.149933774834437	14.2317880794702	9.85192052980133	1.34251655629139				0.671788079470199	-0.238834437086093	-0.724238410596026	-3.33960264900662	-40.7223841059603	-9.43470198675497			
150	3340	0.951841059602649	-0.125245033112583	0.296476821192053	31.1133774834437	15.2553642384106	3.01509933774834				0.976953642384106	-0.160211920529801	0.317139072847682	15.2739072847682	16.2678145695364	10.6140397350993				0.997827814569536	-0.209271523178808	0.23205298013245	45.927417218543	7.14649006622517	-8.60026490066225				0.496529801324503	-0.432529801324503	-0.693721854304636	6.96291390728477	12.5035761589404	-2.85562913907285				0.980026490066225	-0.0125033112582781	0.117933774834437	18.4317880794702	9.57192052980133	2.74251655629139				0.655788079470199	-0.206834437086093	-0.676238410596026	-6.97960264900662	-25.6023841059603	-9.71470198675497			
151	3360	0.887841059602649	-0.0292450331125828	0.296476821192053	27.7533774834437	18.0553642384106	-5.10490066225166				0.976953642384106	-0.272211920529801	0.381139072847682	9.67390728476821	15.1478145695364	2.77403973509934				1.01382781456954	-0.369271523178808	0.21605298013245	37.8074172185431	-3.21350993377483	-11.9602649006623				0.448529801324503	-0.304529801324503	-0.661721854304636	-6.19708609271523	13.3435761589404	-1.45562913907285				0.932026490066225	0.00349668874172187	0.197933774834437	14.7917880794702	12.9319205298013	5.26251655629139				0.607788079470199	-0.270834437086093	-0.628238410596026	26.3403973509934	-30.6423841059603	-12.234701986755			
152	3380	0.855841059602649	-0.173245033112583	0.200476821192053	31.9533774834437	16.9353642384106	-3.70490066225166				0.944953642384106	-0.0802119205298013	0.381139072847682	-3.20609271523179	0.587814569536424	1.65403973509934				0.997827814569536	-0.369271523178808	0.10405298013245	35.567417218543	-0.693509933774834	-13.3602649006623				0.544529801324503	-0.304529801324503	-0.709721854304636	-34.7570860927152	6.0635761589404	6.10437086092715				0.884026490066225	0.0354966887417219	0.277933774834437	7.5117880794702	10.6919205298013	8.62251655629139				0.607788079470199	-0.302834437086093	-0.676238410596026	46.5003973509934	-27.8423841059603	-15.034701986755			
153	3400	0.967841059602649	-0.221245033112583	0.344476821192053	14.5933774834437	18.8953642384106	-2.30490066225166				0.944953642384106	-0.000211920529801304	0.333139072847682	1.55390728476821	8.14781456953643	3.89403973509934				0.997827814569536	-0.305271523178808	0.0880529801324504	17.087417218543	1.82649006622517	-3.28026490066225				0.624529801324503	-0.288529801324503	-0.741721854304636	-49.8770860927152	-7.3764238410596	16.1843708609272				0.916026490066225	0.0514966887417219	0.181933774834437	-3.1282119205298	7.61192052980133	8.34251655629139				0.559788079470199	-0.286834437086093	-0.740238410596026	49.5803973509934	-29.2423841059603	-10.834701986755			
154	3420	0.903841059602649	-0.125245033112583	0.216476821192053	-12.5666225165563	9.3753642384106	-5.10490066225166				0.992953642384106	-0.112211920529801	0.221139072847682	6.31390728476821	-1.65218543046358	5.29403973509934				1.04582781456954	-0.257271523178808	0.12005298013245	3.92741721854305	1.54649006622517	3.15973509933775				0.608529801324503	-0.288529801324503	-0.725721854304636	-41.4770860927152	1.0235761589404	19.8243708609272				0.948026490066225	0.00349668874172187	0.165933774834437	1.6317880794702	6.77192052980133	6.94251655629139				0.479788079470199	-0.366834437086093	-0.708238410596026	62.7403973509934	-33.4423841059603	2.88529801324503			
155	3440	0.871841059602649	-0.109245033112583	0.120476821192053	-15.3666225165563	16.3753642384106	-4.82490066225166				0.944953642384106	-0.0642119205298013	0.381139072847682	-21.6860927152318	9.54781456953642	-1.70596026490066				1.04582781456954	-0.273271523178808	0.13605298013245	-12.312582781457	-1.53350993377483	3.15973509933775				0.576529801324503	-0.352529801324503	-0.677721854304636	-27.7570860927152	1.3035761589404	9.74437086092715				0.996026490066225	0.0674966887417219	0.101933774834437	-4.8082119205298	9.29192052980133	3.86251655629139				0.415788079470199	-0.398834437086093	-0.612238410596026	32.5003973509934	-29.2423841059603	12.965298013245			
156	3460	0.951841059602649	-0.0612450331125828	0.136476821192053	-24.0466225165563	22.5353642384106	-3.14490066225166				0.864953642384106	0.175788079470199	0.413139072847682	-20.0060927152318	-8.37218543046358	-5.06596026490066				0.949827814569536	-0.225271523178808	0.10405298013245	-25.752582781457	-8.81350993377484	6.51973509933775				0.448529801324503	-0.288529801324503	-0.741721854304636	-43.7170860927152	-13.5364238410596	7.22437086092715				0.948026490066225	0.0834966887417219	0.0699337748344371	-6.7682119205298	12.3719205298013	1.34251655629139				0.479788079470199	-0.286834437086093	-0.644238410596026	-9.49960264900662	-13.2823841059603	17.445298013245			
157	3480	1.06384105960265	0.0347549668874172	0.152476821192053	-15.3666225165563	20.8553642384106	-2.02490066225166				0.848953642384106	0.111788079470199	0.141139072847682	7.71390728476821	-4.17218543046358	-0.86596026490066				0.885827814569536	-0.113271523178808	0.0720529801324504	-22.112582781457	-7.69350993377483	12.3997350993378				0.416529801324503	-0.144529801324503	-0.709721854304636	-24.9570860927152	6.6235761589404	12.8243708609272				0.964026490066225	0.0994966887417219	0.133933774834437	-8.1682119205298	12.9319205298013	-0.337483443708608				0.511788079470199	-0.222834437086093	-0.692238410596026	-2.49960264900662	-5.44238410596027	19.685298013245			
158	3500	0.967841059602649	0.0507549668874172	0.088476821192053	8.71337748344371	14.4153642384106	-3.98490066225166				0.960953642384106	-0.0482119205298013	0.221139072847682	4.07390728476821	26.0678145695364	2.49403973509934				0.901827814569536	-0.0332715231788079	-0.0239470198675496	-5.87258278145695	-3.49350993377483	15.7597350993378				0.448529801324503	-0.192529801324503	-0.709721854304636	-3.95708609271523	23.7035761589404	10.3043708609272				0.948026490066225	0.0674966887417219	0.101933774834437	-11.2482119205298	5.93192052980133	-1.17748344370861				0.447788079470199	-0.222834437086093	-0.660238410596027	14.3003973509934	3.23761589403974	17.725298013245			
159	3520	0.951841059602649	0.0187549668874172	0.360476821192053	-10.3266225165563	15.5353642384106	1.05509933774834				0.960953642384106	-0.000211920529801304	0.301139072847682	-10.4860927152318	14.3078145695364	3.33403973509934				0.869827814569536	0.0467284768211921	-0.0719470198675496	1.68741721854305	3.22649006622517	9.03973509933775				0.512529801324503	-0.288529801324503	-0.725721854304636	-2.83708609271523	22.5835761589404	4.42437086092715				0.916026490066225	0.0674966887417219	0.117933774834437	-14.3282119205298	6.77192052980133	-0.0574834437086077				0.479788079470199	-0.270834437086093	-0.708238410596026	3.66039735099338	16.6776158940397	19.125298013245			
160	3540	0.951841059602649	-0.0932450331125828	0.184476821192053	1.15337748344371	6.5753642384106	0.215099337748344				0.928953642384106	0.0317880794701987	0.205139072847682	-9.36609271523179	0.587814569536424	3.33403973509934				0.853827814569536	0.110728476821192	-0.10394701986755	-1.39258278145695	10.7864900662252	2.87973509933775				0.560529801324503	-0.288529801324503	-0.789721854304636	-18.5170860927152	8.3035761589404	4.70437086092715				0.948026490066225	0.0834966887417219	0.133933774834437	-16.2882119205298	9.57192052980133	1.34251655629139				0.511788079470199	-0.302834437086093	-0.804238410596027	10.9403973509934	14.7176158940397	22.765298013245			
161	3560	0.967841059602649	-0.0452450331125828	0.248476821192053	1.99337748344371	14.6953642384106	-1.74490066225166				0.976953642384106	-0.000211920529801304	0.253139072847682	-3.20609271523179	7.30781456953642	3.33403973509934				0.965827814569536	-0.00127152317880793	-0.0879470198675496	8.12741721854305	15.8264900662252	2.31973509933775				0.640529801324503	-0.272529801324503	-0.757721854304636	-21.3170860927152	1.5835761589404	11.4243708609272				1.01202649006623	0.0994966887417219	0.133933774834437	-14.3282119205298	8.45192052980133	-0.337483443708608				0.479788079470199	-0.270834437086093	-0.836238410596026	19.9003973509934	0.717615894039735	23.325298013245			
162	3580	0.871841059602649	-0.0452450331125828	0.264476821192053	4.51337748344371	21.1353642384106	-3.42490066225166				1.05695364238411	-0.000211920529801304	0.285139072847682	-0.686092715231788	7.30781456953642	3.33403973509934				1.04582781456954	-0.161271523178808	-0.0719470198675496	14.007417218543	15.8264900662252	4.27973509933775				0.640529801324503	-0.272529801324503	-0.741721854304636	-15.1570860927152	2.4235761589404	17.3043708609272				1.01202649006623	0.0994966887417219	0.101933774834437	-10.1282119205298	1.73192052980133	-0.897483443708608				0.415788079470199	-0.222834437086093	-0.852238410596026	6.74039735099338	-3.20238410596026	20.525298013245			
163	3600	0.935841059602649	-0.0452450331125828	0.248476821192053	11.7933774834437	20.0153642384106	-3.42490066225166				1.00895364238411	0.0797880794701987	0.253139072847682	0.993907284768212	-1.37218543046358	6.13403973509934				1.01382781456954	-0.161271523178808	-0.0879470198675496	13.727417218543	14.1464900662252	0.35973509933775				0.560529801324503	-0.288529801324503	-0.773721854304636	-10.9570860927152	0.7435761589404	19.8243708609272				0.996026490066225	0.0994966887417219	0.0539337748344371	-7.6082119205298	-3.02807947019868	-0.897483443708608				0.447788079470199	-0.190834437086093	-0.836238410596026	-10.6196026490066	-4.60238410596027	11.005298013245			
164	3620	0.983841059602649	-0.0452450331125828	0.168476821192053	12.9133774834437	15.5353642384106	-3.42490066225166				0.896953642384106	0.0637880794701987	0.253139072847682	0.433907284768212	0.307814569536424	5.01403973509934				0.933827814569536	-0.145271523178808	-0.0719470198675496	10.647417218543	12.1864900662252	-1.32026490066225				0.480529801324503	-0.224529801324503	-0.805721854304636	-8.71708609271523	2.9835761589404	16.1843708609272				0.948026490066225	0.0994966887417219	0.0699337748344371	-4.8082119205298	-2.46807947019868	-2.01748344370861				0.479788079470199	-0.158834437086093	-0.884238410596026	-14.8196026490066	-12.4423841059603	0.645298013245032			
165	3640	1.03184105960265	-0.0292450331125828	0.184476821192053	15.4333774834437	13.0153642384106	-1.74490066225166				0.944953642384106	-0.000211920529801304	0.205139072847682	5.47390728476821	6.46781456953642	3.61403973509934				0.949827814569536	-0.145271523178808	-0.0559470198675496	5.88741721854305	7.70649006622517	-0.76026490066225				0.496529801324503	-0.208529801324503	-0.773721854304636	-10.1170860927152	1.3035761589404	13.1043708609272				0.996026490066225	0.0834966887417219	0.0539337748344371	-4.5282119205298	-3.58807947019868	-2.01748344370861				0.495788079470199	-0.158834437086093	-0.916238410596027	-12.8596026490066	-13.5623841059603	-9.71470198675497			
166	3660	0.951841059602649	-0.0292450331125828	0.184476821192053	10.9533774834437	15.8153642384106	0.495099337748344				1.05695364238411	-0.0962119205298013	0.237139072847682	-2.08609271523179	6.46781456953642	3.05403973509934				0.997827814569536	-0.161271523178808	-0.0559470198675496	3.08741721854305	0.146490066225167	1.47973509933775				0.496529801324503	-0.256529801324503	-0.773721854304636	-11.7970860927152	-8.4964238410596	9.46437086092715				0.996026490066225	0.0674966887417219	0.0379337748344371	-3.9682119205298	-5.82807947019868	0.222516556291392				0.447788079470199	-0.222834437086093	-0.916238410596027	-2.77960264900662	-11.3223841059603	-8.87470198675497			
167	3680	0.935841059602649	-0.0772450331125828	0.216476821192053	7.59337748344371	16.6553642384106	0.215099337748344				1.00895364238411	-0.0322119205298013	0.221139072847682	-16.0860927152318	1.14781456953642	0.81403973509934				1.01382781456954	-0.177271523178808	-0.11994701986755	-1.11258278145695	-0.973509933774833	2.87973509933775				0.416529801324503	-0.272529801324503	-0.805721854304636	-12.9170860927152	-12.4164238410596	6.38437086092715				0.948026490066225	0.0674966887417219	0.0219337748344371	-1.4482119205298	-4.98807947019868	4.98251655629139				0.415788079470199	-0.238834437086093	-0.884238410596026	9.54039735099338	-18.6023841059603	-2.43470198675497			
168	3700	0.903841059602649	-0.0932450331125828	0.232476821192053	7.59337748344371	25.8953642384106	-2.58490066225166				0.992953642384106	-0.0322119205298013	0.253139072847682	-4.88609271523179	0.307814569536424	0.53403973509934				1.01382781456954	-0.177271523178808	-0.0879470198675496	-4.75258278145695	0.706490066225167	2.03973509933775				0.352529801324503	-0.288529801324503	-0.789721854304636	-8.43708609271523	-10.4564238410596	6.66437086092715				0.948026490066225	0.0354966887417219	0.0379337748344371	-1.7282119205298	-1.62807947019868	5.54251655629139				0.415788079470199	-0.238834437086093	-0.852238410596026	17.3803973509934	-27.5623841059603	4.84529801324503			
169	3720	0.983841059602649	-0.125245033112583	0.200476821192053	7.87337748344371	28.4153642384106	-3.98490066225166				0.976953642384106	-0.0162119205298013	0.301139072847682	-1.52609271523179	-7.81218543046358	-0.0259602649006601				0.981827814569536	-0.129271523178808	-0.0879470198675496	-9.23258278145695	1.26649006622517	0.63973509933775				0.400529801324503	-0.288529801324503	-0.789721854304636	-0.317086092715232	-5.4164238410596	10.5843708609272				0.964026490066225	0.0514966887417219	0.0539337748344371	-4.8082119205298	3.13192052980133	4.14251655629139				0.367788079470199	-0.254834437086093	-0.804238410596027	5.90039735099338	-28.6823841059603	10.725298013245			
170	3740	1.07984105960265	-0.0772450331125828	0.200476821192053	-12.2866225165563	22.2553642384106	-3.98490066225166				0.960953642384106	0.0157880794701987	0.253139072847682	-7.12609271523179	-11.7321854304636	-0.30596026490066				0.981827814569536	-0.0972715231788079	-0.0399470198675496	-14.552582781457	1.82649006622517	1.47973509933775				0.448529801324503	-0.304529801324503	-0.805721854304636	2.20291390728477	2.1435761589404	13.3843708609272				0.964026490066225	0.0674966887417219	0.0379337748344371	-9.8482119205298	-2.18807947019868	2.18251655629139				0.351788079470199	-0.254834437086093	-0.788238410596027	-8.09960264900662	-24.4823841059603	14.365298013245			
171	3760	1.11184105960265	-0.0292450331125828	0.104476821192053	-22.3666225165563	6.2953642384106	-4.54490066225166				0.992953642384106	0.0317880794701987	0.205139072847682	-9.08609271523179	-8.65218543046358	-1.14596026490066				0.997827814569536	-0.0972715231788079	-0.0239470198675496	-12.872582781457	-0.973509933774833	-1.04026490066225				0.464529801324503	-0.272529801324503	-0.805721854304636	-1.99708609271523	6.3435761589404	12.8243708609272				0.980026490066225	0.0834966887417219	0.00593377483443711	-13.7682119205298	-2.18807947019868	2.18251655629139				0.351788079470199	-0.222834437086093	-0.772238410596026	-10.8996026490066	-15.5223841059603	12.685298013245			
172	3780	1.04784105960265	0.00275496688741723	0.088476821192053	-18.1666225165563	-1.5446357615894	-1.18490066225166				0.992953642384106	0.0317880794701987	0.253139072847682	-13.5660927152318	-7.81218543046358	-3.10596026490066				0.997827814569536	-0.113271523178808	-0.00794701986754963	-0.272582781456954	-7.13350993377484	-2.44026490066225				0.464529801324503	-0.256529801324503	-0.805721854304636	-0.597086092715232	8.5835761589404	8.62437086092715				1.01202649006623	0.0994966887417219	0.0219337748344371	-10.6882119205298	-0.508079470198675	2.18251655629139				0.351788079470199	-0.190834437086093	-0.788238410596027	-10.3396026490066	-2.64238410596027	8.20529801324503			
173	3800	1.01584105960265	-0.0292450331125828	0.152476821192053	-2.76662251655629	-4.9046357615894	1.33509933774834				1.00895364238411	-0.0162119205298013	0.221139072847682	-8.52609271523179	-8.09218543046358	-2.82596026490066				0.981827814569536	-0.0972715231788079	-0.0399470198675496	4.48741721854305	-7.69350993377483	-3.56026490066225				0.480529801324503	-0.272529801324503	-0.821721854304636	0.242913907284768	9.1435761589404	3.30437086092715				1.01202649006623	0.0674966887417219	0.00593377483443711	-11.5282119205298	0.611920529801325	2.74251655629139				0.351788079470199	-0.190834437086093	-0.868238410596026	-0.259602649006623	6.87761589403974	8.48529801324503			
174	3820	0.967841059602649	-0.0452450331125828	0.200476821192053	7.59337748344371	-3.7846357615894	0.215099337748344				0.992953642384106	-0.000211920529801304	0.189139072847682	-8.80609271523179	-5.29218543046358	-1.42596026490066				0.981827814569536	-0.113271523178808	-0.0559470198675496	0.847417218543046	-4.33350993377483	-1.32026490066225				0.496529801324503	-0.320529801324503	-0.821721854304636	-3.39708609271523	6.6235761589404	-0.0556291390728476				0.964026490066225	0.0514966887417219	0.0379337748344371	-8.1682119205298	1.17192052980133	3.58251655629139				0.351788079470199	-0.222834437086093	-0.884238410596026	11.7803973509934	7.43761589403974	6.52529801324503			
175	3840	0.935841059602649	-0.0452450331125828	0.312476821192053	2.55337748344371	-0.144635761589404	-1.46490066225166				0.992953642384106	0.0157880794701987	0.141139072847682	-7.12609271523179	-4.73218543046358	-0.86596026490066				0.965827814569536	-0.161271523178808	-0.0879470198675496	-0.832582781456954	-2.37350993377483	0.63973509933775				0.464529801324503	-0.336529801324503	-0.789721854304636	-3.39708609271523	6.9035761589404	-0.0556291390728476				0.948026490066225	0.0514966887417219	0.0379337748344371	-9.8482119205298	2.85192052980133	2.74251655629139				0.351788079470199	-0.222834437086093	-0.868238410596026	14.8603973509934	5.19761589403974	4.00529801324503			
176	3860	0.935841059602649	-0.0612450331125828	0.296476821192053	-0.526622516556291	-2.6646357615894	-1.46490066225166				0.944953642384106	0.0157880794701987	0.157139072847682	-10.2060927152318	-1.65218543046358	0.81403973509934				0.933827814569536	-0.193271523178808	-0.10394701986755	-3.35258278145695	-0.133509933774833	1.47973509933775				0.448529801324503	-0.304529801324503	-0.789721854304636	-1.71708609271523	6.6235761589404	4.42437086092715				0.948026490066225	0.0514966887417219	0.0219337748344371	-9.0082119205298	2.85192052980133	3.02251655629139				0.367788079470199	-0.222834437086093	-0.868238410596026	12.6203973509934	4.35761589403974	4.00529801324503			
177	3880	0.903841059602649	-0.0612450331125828	0.248476821192053	-5.84662251655629	-2.6646357615894	-1.46490066225166				0.944953642384106	-0.000211920529801304	0.221139072847682	-10.2060927152318	-0.252185430463576	2.49403973509934				0.933827814569536	-0.177271523178808	-0.10394701986755	-6.99258278145695	0.706490066225167	0.63973509933775				0.464529801324503	-0.320529801324503	-0.789721854304636	-3.11708609271523	4.6635761589404	9.18437086092715				0.948026490066225	0.0514966887417219	0.00593377483443711	-9.8482119205298	2.29192052980133	2.74251655629139				0.351788079470199	-0.254834437086093	-0.868238410596026	8.14039735099338	2.95761589403974	3.16529801324503			
178	3900	0.967841059602649	-0.0932450331125828	0.248476821192053	-3.60662251655629	2.9353642384106	-1.46490066225166				0.976953642384106	0.0157880794701987	0.109139072847682	-6.84609271523179	-2.49218543046358	1.93403973509934				0.949827814569536	-0.113271523178808	-0.10394701986755	-3.63258278145695	1.82649006622517	0.0797350993377501				0.464529801324503	-0.320529801324503	-0.773721854304636	-4.23708609271523	2.7035761589404	11.4243708609272				0.964026490066225	0.0354966887417219	0.00593377483443711	-8.7282119205298	3.97192052980133	4.14251655629139				0.335788079470199	-0.254834437086093	-0.852238410596026	-4.17960264900662	-3.76238410596027	4.28529801324503			
179	3920	0.983841059602649	-0.0772450331125828	0.264476821192053	-2.48662251655629	1.5353642384106	-2.86490066225166				1.00895364238411	-0.0162119205298013	0.109139072847682	-7.68609271523179	0.867814569536424	2.77403973509934				0.965827814569536	-0.0972715231788079	-0.10394701986755	2.52741721854305	0.986490066225167	1.75973509933775				0.464529801324503	-0.320529801324503	-0.773721854304636	-1.71708609271523	0.4635761589404	11.9843708609272				0.996026490066225	0.0194966887417219	-0.0100662251655629	-6.4882119205298	1.73192052980133	3.86251655629139				0.303788079470199	-0.222834437086093	-0.852238410596026	-12.5796026490066	-0.682384105960265	5.40529801324503			
180	3940	0.967841059602649	-0.0452450331125828	0.216476821192053	-1.92662251655629	0.695364238410596	-2.30490066225166				0.976953642384106	-0.000211920529801304	0.141139072847682	-9.92609271523179	2.82781456953642	3.61403973509934				0.949827814569536	-0.113271523178808	-0.10394701986755	3.92741721854305	-0.973509933774833	0.91973509933775				0.448529801324503	-0.304529801324503	-0.789721854304636	-1.15708609271523	-0.0964238410596001	10.5843708609272				0.980026490066225	0.0194966887417219	-0.0100662251655629	-7.6082119205298	-4.98807947019868	4.42251655629139				0.271788079470199	-0.174834437086093	-0.836238410596026	-7.53960264900662	0.997615894039735	2.88529801324503			
