No	Time	12-AccX	12-AccY	12-AccZ	12-GyroX	12-GyroY	12-GyroZ	13-AccX	13-AccY	13-AccZ	13-GyroX	13-GyroY	13-GyroZ	14-AccX	14-AccY	14-AccZ	14-GyroX	14-GyroY	14-GyroZ	15-AccX	15-AccY	15-AccZ	15-GyroX	15-GyroY	15-GyroZ	16-AccX	16-AccY	16-AccZ	16-GyroX	16-GyroY	16-GyroZ	17-AccX	17-AccY	17-AccZ	17-GyroX	17-GyroY	17-GyroZ
0	100	0	0	0	0	0	0				0	0	0	0	0	0				0	0	0	0	0	0				0.416529801324503	-0.144529801324503	-0.901721854304636	-0.317086092715232	1.5835761589404	2.46437086092715				0.948026490066225	0.147496688741722	0.181933774834437	-0.328211920529802	0.0519205298013249	-1.17748344370861				0.383788079470199	-0.110834437086093	-0.868238410596026	-0.819602649006623	1.55761589403974	-0.754701986754968			
1	120	-0.216158940397351	0.130754966887417	-0.935523178807947	0.0333774834437086	0.415364238410596	-0.904900662251656				0.944953642384106	0.159788079470199	0.333139072847682	-0.126092715231788	0.0278145695364242	1.09403973509934				-0.250172185430464	-0.0812715231788079	-0.88794701986755	-0.552582781456954	0.706490066225167	0.63973509933775				0.400529801324503	-0.128529801324503	-0.885721854304636	-1.43708609271523	-0.3764238410596	2.18437086092715				0.932026490066225	0.147496688741722	0.181933774834437	-0.608211920529802	0.891920529801325	-0.617483443708608				0.399788079470199	-0.126834437086093	-0.868238410596026	0.0203973509933773	0.157615894039735	-0.194701986754968			
2	140	-0.216158940397351	0.114754966887417	-0.951523178807947	-0.526622516556291	0.695364238410596	-1.18490066225166				0.944953642384106	0.159788079470199	0.333139072847682	0.433907284768212	0.0278145695364242	1.09403973509934				-0.266172185430464	-0.0812715231788079	-0.88794701986755	0.567417218543046	0.706490066225167	0.35973509933775				0.400529801324503	-0.128529801324503	-0.869721854304636	-2.83708609271523	-1.2164238410596	1.62437086092715				0.948026490066225	0.147496688741722	0.181933774834437	0.791788079470198	0.891920529801325	-0.897483443708608				0.399788079470199	-0.126834437086093	-0.868238410596026	-0.539602649006623	0.157615894039735	0.0852980132450323			
3	160	-0.216158940397351	0.114754966887417	-0.951523178807947	0.313377483443709	0.695364238410596	-1.18490066225166				0.944953642384106	0.159788079470199	0.333139072847682	0.713907284768212	0.0278145695364242	0.25403973509934				-0.266172185430464	-0.0812715231788079	-0.88794701986755	0.567417218543046	1.26649006622517	-0.20026490066225				0.400529801324503	-0.128529801324503	-0.885721854304636	-3.67708609271523	-1.4964238410596	2.46437086092715				0.948026490066225	0.147496688741722	0.181933774834437	-0.608211920529802	0.891920529801325	-0.897483443708608				0.383788079470199	-0.110834437086093	-0.868238410596026	-0.259602649006623	0.437615894039735	0.0852980132450323			
4	180	-0.216158940397351	0.114754966887417	-0.951523178807947	0.313377483443709	0.415364238410596	-0.904900662251656				0.928953642384106	0.159788079470199	0.333139072847682	1.27390728476821	-0.252185430463576	1.09403973509934				-0.250172185430464	-0.0812715231788079	-0.87194701986755	0.287417218543046	0.706490066225167	-0.76026490066225				0.384529801324503	-0.112529801324503	-0.869721854304636	-3.67708609271523	-0.9364238410596	1.62437086092715				0.948026490066225	0.147496688741722	0.181933774834437	-0.888211920529802	1.73192052980133	-0.617483443708608				0.399788079470199	-0.126834437086093	-0.868238410596026	0.0203973509933773	0.437615894039735	0.645298013245032			
5	200	-0.216158940397351	0.114754966887417	-0.951523178807947	0.313377483443709	0.135364238410596	-0.904900662251656				0.944953642384106	0.143788079470199	0.333139072847682	0.993907284768212	0.587814569536424	1.09403973509934				-0.266172185430464	-0.0812715231788079	-0.87194701986755	0.00741721854304636	0.426490066225167	-0.76026490066225				0.384529801324503	-0.112529801324503	-0.869721854304636	-1.99708609271523	-0.0964238410596001	0.504370860927152				0.948026490066225	0.147496688741722	0.181933774834437	-1.1682119205298	-0.228079470198675	-1.17748344370861				0.399788079470199	-0.126834437086093	-0.852238410596026	-1.09960264900662	1.83761589403974	0.365298013245032			
6	220	-0.216158940397351	0.114754966887417	-0.951523178807947	-0.806622516556291	1.2553642384106	-2.02490066225166				0.928953642384106	0.159788079470199	0.333139072847682	-0.406092715231788	2.26781456953642	0.81403973509934				-0.250172185430464	-0.0812715231788079	-0.87194701986755	-0.272582781456954	0.426490066225167	-0.20026490066225				0.384529801324503	-0.112529801324503	-0.869721854304636	-1.43708609271523	-0.3764238410596	0.224370860927152				0.932026490066225	0.147496688741722	0.197933774834437	-0.328211920529802	0.891920529801325	-0.897483443708608				0.383788079470199	-0.110834437086093	-0.852238410596026	-0.259602649006623	1.27761589403974	1.20529801324503			
7	240	-0.216158940397351	0.130754966887417	-0.935523178807947	-0.526622516556291	0.695364238410596	-0.904900662251656				0.928953642384106	0.159788079470199	0.333139072847682	0.153907284768212	3.66781456953642	0.53403973509934				-0.250172185430464	-0.0812715231788079	-0.87194701986755	0.287417218543046	1.26649006622517	-1.04026490066225				0.384529801324503	-0.112529801324503	-0.869721854304636	-1.99708609271523	-0.0964238410596001	-0.335629139072848				0.932026490066225	0.147496688741722	0.197933774834437	-2.2882119205298	2.01192052980133	-0.337483443708608				0.383788079470199	-0.110834437086093	-0.852238410596026	0.860397350993377	0.997615894039735	-0.194701986754968			
8	260	-0.216158940397351	0.114754966887417	-0.935523178807947	-0.526622516556291	0.415364238410596	-0.904900662251656				0.944953642384106	0.159788079470199	0.349139072847682	-0.406092715231788	1.98781456953642	0.53403973509934				-0.250172185430464	-0.0812715231788079	-0.87194701986755	-0.272582781456954	-0.413509933774833	0.0797350993377501				0.400529801324503	-0.128529801324503	-0.869721854304636	-3.39708609271523	-0.6564238410596	-0.0556291390728476				0.948026490066225	0.147496688741722	0.181933774834437	0.231788079470198	1.73192052980133	-0.617483443708608				0.399788079470199	-0.110834437086093	-0.868238410596026	2.26039735099338	0.717615894039735	-0.754701986754968			
9	280	-0.216158940397351	0.130754966887417	-0.935523178807947	-1.08662251655629	0.415364238410596	-0.904900662251656				0.928953642384106	0.159788079470199	0.333139072847682	-1.52609271523179	1.98781456953642	-0.0259602649006601				-0.250172185430464	-0.0812715231788079	-0.87194701986755	-0.552582781456954	-0.413509933774833	-0.48026490066225				0.400529801324503	-0.0965298013245033	-0.853721854304636	-1.71708609271523	-0.6564238410596	-0.0556291390728476				0.948026490066225	0.147496688741722	0.181933774834437	0.511788079470198	1.45192052980132	-0.617483443708608				0.399788079470199	-0.126834437086093	-0.852238410596026	1.14039735099338	0.437615894039735	0.0852980132450323			
10	300	-0.216158940397351	0.114754966887417	-0.951523178807947	-0.246622516556291	0.695364238410596	-0.624900662251656				0.944953642384106	0.159788079470199	0.349139072847682	-0.406092715231788	2.26781456953642	-0.30596026490066				-0.250172185430464	-0.0812715231788079	-0.88794701986755	0.00741721854304636	0.426490066225167	0.63973509933775				0.400529801324503	-0.0965298013245033	-0.885721854304636	-0.317086092715232	-1.2164238410596	-0.335629139072848				0.948026490066225	0.147496688741722	0.197933774834437	-0.608211920529802	1.73192052980133	0.222516556291392				0.399788079470199	-0.110834437086093	-0.852238410596026	0.300397350993377	1.27761589403974	-0.754701986754968			
11	320	-0.216158940397351	0.130754966887417	-0.951523178807947	0.313377483443709	0.135364238410596	-0.624900662251656				0.944953642384106	0.159788079470199	0.349139072847682	0.433907284768212	2.26781456953642	0.53403973509934				-0.250172185430464	-0.0652715231788079	-0.88794701986755	-0.832582781456954	0.706490066225167	0.63973509933775				0.400529801324503	-0.128529801324503	-0.885721854304636	-0.317086092715232	-0.0964238410596001	-0.335629139072848				0.948026490066225	0.163496688741722	0.197933774834437	0.231788079470198	1.45192052980132	-0.337483443708608				0.399788079470199	-0.110834437086093	-0.868238410596026	1.42039735099338	1.27761589403974	-1.31470198675497			
12	340	-0.216158940397351	0.130754966887417	-0.935523178807947	-0.806622516556291	0.135364238410596	-1.18490066225166				0.944953642384106	0.159788079470199	0.349139072847682	-0.126092715231788	2.54781456953642	-0.0259602649006601				-0.250172185430464	-0.0812715231788079	-0.88794701986755	-0.832582781456954	0.426490066225167	0.63973509933775				0.416529801324503	-0.128529801324503	-0.885721854304636	-0.877086092715232	0.4635761589404	-0.0556291390728476				0.948026490066225	0.163496688741722	0.197933774834437	-0.0482119205298018	0.891920529801325	-0.337483443708608				0.399788079470199	-0.126834437086093	-0.868238410596026	2.82039735099338	0.717615894039735	-1.31470198675497			
13	360	-0.216158940397351	0.130754966887417	-0.935523178807947	-0.246622516556291	0.415364238410596	-1.46490066225166				0.944953642384106	0.159788079470199	0.349139072847682	-0.406092715231788	0.867814569536424	0.25403973509934				-0.250172185430464	-0.0812715231788079	-0.87194701986755	-0.552582781456954	0.426490066225167	0.0797350993377501				0.416529801324503	-0.112529801324503	-0.885721854304636	-1.43708609271523	-0.0964238410596001	-0.0556291390728476				0.964026490066225	0.163496688741722	0.197933774834437	-0.328211920529802	2.01192052980133	-0.0574834437086077				0.415788079470199	-0.142834437086093	-0.868238410596026	1.42039735099338	0.437615894039735	-1.31470198675497			
14	380	-0.216158940397351	0.114754966887417	-0.951523178807947	0.873377483443709	-0.424635761589404	-0.904900662251656				0.944953642384106	0.159788079470199	0.349139072847682	-0.126092715231788	-2.21218543046358	0.25403973509934				-0.250172185430464	-0.0652715231788079	-0.87194701986755	0.287417218543046	0.146490066225167	0.0797350993377501				0.400529801324503	-0.112529801324503	-0.885721854304636	-0.0370860927152318	0.7435761589404	-0.0556291390728476				0.964026490066225	0.163496688741722	0.197933774834437	0.511788079470198	0.611920529801325	-0.337483443708608				0.415788079470199	-0.126834437086093	-0.868238410596026	0.860397350993377	0.157615894039735	-0.754701986754968			
15	400	-0.232158940397351	0.130754966887417	-0.935523178807947	-0.246622516556291	0.415364238410596	-1.18490066225166				0.944953642384106	0.159788079470199	0.333139072847682	1.55390728476821	-3.61218543046358	-0.0259602649006601				-0.266172185430464	-0.0652715231788079	-0.88794701986755	-0.832582781456954	-0.133509933774833	0.35973509933775				0.400529801324503	-0.112529801324503	-0.885721854304636	0.802913907284768	0.7435761589404	-0.0556291390728476				0.948026490066225	0.163496688741722	0.197933774834437	0.511788079470198	0.331920529801325	0.782516556291392				0.399788079470199	-0.110834437086093	-0.852238410596026	0.580397350993377	-0.122384105960265	0.365298013245032			
16	420	-0.216158940397351	0.130754966887417	-0.935523178807947	-1.64662251655629	0.415364238410596	-1.18490066225166				0.944953642384106	0.159788079470199	0.333139072847682	1.27390728476821	-2.77218543046358	0.81403973509934				-0.250172185430464	-0.0652715231788079	-0.88794701986755	0.00741721854304636	-0.133509933774833	0.0797350993377501				0.400529801324503	-0.112529801324503	-0.885721854304636	-1.15708609271523	-1.4964238410596	-0.0556291390728476				0.948026490066225	0.147496688741722	0.197933774834437	-0.0482119205298018	0.891920529801325	0.782516556291392				0.415788079470199	-0.110834437086093	-0.868238410596026	1.70039735099338	-0.402384105960265	0.925298013245032			
17	440	-0.216158940397351	0.130754966887417	-0.935523178807947	-0.526622516556291	0.695364238410596	-1.46490066225166				0.944953642384106	0.175788079470199	0.349139072847682	1.55390728476821	-1.65218543046358	-0.0259602649006601				-0.250172185430464	-0.0652715231788079	-0.88794701986755	0.287417218543046	1.26649006622517	-0.20026490066225				0.384529801324503	-0.112529801324503	-0.885721854304636	-0.597086092715232	-0.3764238410596	0.784370860927152				0.948026490066225	0.147496688741722	0.213933774834437	0.231788079470198	0.891920529801325	0.502516556291392				0.399788079470199	-0.126834437086093	-0.868238410596026	2.26039735099338	0.157615894039735	0.645298013245032			
18	460	-0.216158940397351	0.114754966887417	-0.935523178807947	0.0333774834437086	0.135364238410596	-1.18490066225166				0.944953642384106	0.159788079470199	0.333139072847682	1.83390728476821	-3.33218543046358	0.25403973509934				-0.250172185430464	-0.0652715231788079	-0.87194701986755	-0.552582781456954	-0.693509933774834	-0.76026490066225				0.400529801324503	-0.112529801324503	-0.869721854304636	-0.597086092715232	0.1835761589404	0.784370860927152				0.948026490066225	0.147496688741722	0.197933774834437	0.231788079470198	1.73192052980133	0.782516556291392				0.399788079470199	-0.126834437086093	-0.852238410596026	0.580397350993377	0.157615894039735	1.48529801324503			
19	480	-0.216158940397351	0.114754966887417	-0.951523178807947	0.593377483443709	0.415364238410596	-1.18490066225166				0.944953642384106	0.159788079470199	0.333139072847682	0.993907284768212	-3.89218543046358	-0.0259602649006601				-0.266172185430464	-0.0652715231788079	-0.88794701986755	0.567417218543046	-0.413509933774833	-1.04026490066225				0.400529801324503	-0.112529801324503	-0.869721854304636	0.802913907284768	-0.0964238410596001	0.784370860927152				0.948026490066225	0.163496688741722	0.197933774834437	-0.0482119205298018	2.01192052980133	0.222516556291392				0.399788079470199	-0.126834437086093	-0.852238410596026	1.14039735099338	-0.682384105960265	0.645298013245032			
20	500	-0.216158940397351	0.130754966887417	-0.935523178807947	0.313377483443709	0.415364238410596	-1.18490066225166				0.928953642384106	0.159788079470199	0.333139072847682	0.433907284768212	-3.61218543046358	0.53403973509934				-0.250172185430464	-0.0652715231788079	-0.87194701986755	-0.272582781456954	-0.693509933774834	-0.20026490066225				0.400529801324503	-0.112529801324503	-0.885721854304636	0.802913907284768	-0.0964238410596001	1.06437086092715				0.948026490066225	0.147496688741722	0.181933774834437	0.511788079470198	1.73192052980133	0.502516556291392				0.399788079470199	-0.110834437086093	-0.852238410596026	1.98039735099338	-0.962384105960265	0.645298013245032			
21	520	-0.216158940397351	0.114754966887417	-0.951523178807947	-0.806622516556291	0.135364238410596	-1.18490066225166				0.944953642384106	0.159788079470199	0.333139072847682	0.433907284768212	-3.05218543046358	-0.0259602649006601				-0.266172185430464	-0.0652715231788079	-0.88794701986755	0.00741721854304636	-0.413509933774833	-0.48026490066225				0.400529801324503	-0.112529801324503	-0.869721854304636	0.242913907284768	-0.0964238410596001	1.06437086092715				0.948026490066225	0.147496688741722	0.197933774834437	-0.0482119205298018	0.0519205298013249	-0.337483443708608				0.399788079470199	-0.126834437086093	-0.852238410596026	1.42039735099338	-0.122384105960265	-0.754701986754968			
22	540	-0.216158940397351	0.130754966887417	-0.951523178807947	0.0333774834437086	0.415364238410596	-1.46490066225166				0.944953642384106	0.159788079470199	0.333139072847682	0.433907284768212	-3.05218543046358	-0.585960264900661				-0.250172185430464	-0.0812715231788079	-0.88794701986755	0.567417218543046	0.426490066225167	-0.20026490066225				0.384529801324503	-0.112529801324503	-0.885721854304636	1.08291390728477	0.1835761589404	0.784370860927152				0.932026490066225	0.163496688741722	0.229933774834437	2.4717880794702	1.45192052980132	1.34251655629139				0.399788079470199	-0.110834437086093	-0.852238410596026	0.300397350993377	0.437615894039735	-0.474701986754968			
23	560	-0.216158940397351	0.114754966887417	-0.935523178807947	-0.246622516556291	0.135364238410596	-1.18490066225166				0.944953642384106	0.159788079470199	0.333139072847682	1.55390728476821	-3.61218543046358	-0.30596026490066				-0.250172185430464	-0.0652715231788079	-0.87194701986755	1.96741721854305	0.146490066225167	-0.48026490066225				0.400529801324503	-0.112529801324503	-0.885721854304636	0.522913907284768	1.3035761589404	0.224370860927152				0.948026490066225	0.163496688741722	0.181933774834437	1.3517880794702	-1.34807947019868	-0.0574834437086077				0.399788079470199	-0.126834437086093	-0.852238410596026	0.860397350993377	0.717615894039735	-1.59470198675497			
24	580	-0.216158940397351	0.130754966887417	-0.951523178807947	1.15337748344371	-0.144635761589404	-0.904900662251656				0.944953642384106	0.159788079470199	0.333139072847682	2.39390728476821	-5.01218543046358	1.09403973509934				-0.250172185430464	-0.0812715231788079	-0.88794701986755	1.12741721854305	0.146490066225167	-0.20026490066225				0.400529801324503	-0.128529801324503	-0.885721854304636	1.36291390728477	0.4635761589404	-0.0556291390728476				0.948026490066225	0.147496688741722	0.197933774834437	-2.5682119205298	3.69192052980133	-0.617483443708608				0.399788079470199	-0.110834437086093	-0.852238410596026	0.860397350993377	-0.122384105960265	-0.194701986754968			
25	600	-0.216158940397351	0.130754966887417	-0.951523178807947	-0.246622516556291	-0.704635761589404	-1.18490066225166				0.944953642384106	0.175788079470199	0.317139072847682	1.27390728476821	-3.89218543046358	1.09403973509934				-0.266172185430464	-0.0812715231788079	-0.88794701986755	0.287417218543046	-0.693509933774834	-0.20026490066225				0.400529801324503	-0.112529801324503	-0.885721854304636	2.20291390728477	0.1835761589404	0.224370860927152				0.932026490066225	0.147496688741722	0.213933774834437	-0.608211920529802	2.01192052980133	-0.337483443708608				0.399788079470199	-0.126834437086093	-0.852238410596026	0.0203973509933773	-0.122384105960265	-1.03470198675497			
26	620	-0.216158940397351	0.114754966887417	-0.935523178807947	-0.806622516556291	0.695364238410596	-1.18490066225166				0.944953642384106	0.159788079470199	0.333139072847682	-0.126092715231788	-3.33218543046358	0.53403973509934				-0.250172185430464	-0.0652715231788079	-0.88794701986755	0.567417218543046	-0.693509933774834	-0.20026490066225				0.384529801324503	-0.112529801324503	-0.885721854304636	0.802913907284768	1.0235761589404	0.504370860927152				0.948026490066225	0.147496688741722	0.181933774834437	-0.608211920529802	0.891920529801325	-1.17748344370861				0.383788079470199	-0.126834437086093	-0.852238410596026	1.42039735099338	-0.122384105960265	-1.59470198675497			
27	640	-0.216158940397351	0.130754966887417	-0.951523178807947	-0.246622516556291	0.135364238410596	-1.46490066225166				0.944953642384106	0.159788079470199	0.349139072847682	0.993907284768212	-5.01218543046358	-0.0259602649006601				-0.266172185430464	-0.0812715231788079	-0.88794701986755	0.287417218543046	0.426490066225167	0.0797350993377501				0.400529801324503	-0.112529801324503	-0.869721854304636	1.36291390728477	1.0235761589404	0.224370860927152				0.948026490066225	0.147496688741722	0.213933774834437	1.9117880794702	0.891920529801325	0.502516556291392				0.399788079470199	-0.126834437086093	-0.884238410596026	-0.259602649006623	0.717615894039735	-1.87470198675497			
28	660	-0.216158940397351	0.114754966887417	-0.935523178807947	0.593377483443709	0.695364238410596	-0.904900662251656				0.944953642384106	0.159788079470199	0.317139072847682	2.11390728476821	-4.73218543046358	-0.0259602649006601				-0.250172185430464	-0.0812715231788079	-0.88794701986755	0.567417218543046	0.986490066225167	-0.48026490066225				0.400529801324503	-0.112529801324503	-0.885721854304636	0.242913907284768	0.7435761589404	-0.335629139072848				0.964026490066225	0.147496688741722	0.197933774834437	1.9117880794702	0.891920529801325	0.782516556291392				0.399788079470199	-0.142834437086093	-0.868238410596026	0.0203973509933773	0.437615894039735	-2.43470198675497			
29	680	-0.216158940397351	0.130754966887417	-0.935523178807947	0.873377483443709	0.415364238410596	-0.0649006622516557				0.944953642384106	0.159788079470199	0.333139072847682	2.39390728476821	-3.61218543046358	0.25403973509934				-0.250172185430464	-0.0812715231788079	-0.88794701986755	0.567417218543046	1.26649006622517	-0.76026490066225				0.400529801324503	-0.112529801324503	-0.885721854304636	2.20291390728477	1.5835761589404	-0.615629139072848				0.964026490066225	0.147496688741722	0.213933774834437	1.3517880794702	-0.228079470198675	-0.0574834437086077				0.399788079470199	-0.126834437086093	-0.868238410596026	-0.259602649006623	0.997615894039735	-1.31470198675497			
30	700	-0.216158940397351	0.114754966887417	-0.935523178807947	-0.246622516556291	0.695364238410596	-1.18490066225166				0.944953642384106	0.159788079470199	0.365139072847682	1.83390728476821	-4.73218543046358	0.53403973509934				-0.250172185430464	-0.0812715231788079	-0.87194701986755	-0.552582781456954	-0.693509933774834	-0.48026490066225				0.400529801324503	-0.128529801324503	-0.885721854304636	2.20291390728477	1.8635761589404	-0.0556291390728476				0.948026490066225	0.147496688741722	0.197933774834437	2.1917880794702	-1.34807947019868	0.222516556291392				0.399788079470199	-0.126834437086093	-0.868238410596026	-1.65960264900662	0.717615894039735	-0.474701986754968			
31	720	-0.216158940397351	0.114754966887417	-0.951523178807947	-0.526622516556291	0.695364238410596	-2.02490066225166				0.944953642384106	0.159788079470199	0.317139072847682	0.713907284768212	-5.29218543046358	1.09403973509934				-0.250172185430464	-0.0652715231788079	-0.87194701986755	-0.272582781456954	-0.133509933774833	-0.48026490066225				0.400529801324503	-0.128529801324503	-0.885721854304636	1.64291390728477	0.4635761589404	0.504370860927152				0.948026490066225	0.147496688741722	0.197933774834437	2.1917880794702	-0.508079470198675	1.06251655629139				0.415788079470199	-0.126834437086093	-0.852238410596026	0.0203973509933773	0.437615894039735	0.0852980132450323			
32	740	-0.216158940397351	0.114754966887417	-0.935523178807947	-1.64662251655629	0.975364238410596	-0.624900662251656				0.944953642384106	0.175788079470199	0.317139072847682	0.993907284768212	-6.13218543046358	0.53403973509934				-0.266172185430464	-0.0652715231788079	-0.87194701986755	-0.832582781456954	-0.413509933774833	-0.48026490066225				0.400529801324503	-0.112529801324503	-0.885721854304636	0.242913907284768	-0.9364238410596	0.784370860927152				0.948026490066225	0.147496688741722	0.197933774834437	1.6317880794702	0.331920529801325	-0.0574834437086077				0.415788079470199	-0.142834437086093	-0.852238410596026	1.14039735099338	-0.122384105960265	0.0852980132450323			
33	760	-0.216158940397351	0.114754966887417	-0.935523178807947	-0.526622516556291	-0.424635761589404	-0.0649006622516557				0.944953642384106	0.159788079470199	0.317139072847682	3.23390728476821	-6.41218543046358	0.81403973509934				-0.250172185430464	-0.0652715231788079	-0.87194701986755	0.847417218543046	0.426490066225167	-0.48026490066225				0.384529801324503	-0.112529801324503	-0.869721854304636	-0.317086092715232	-0.3764238410596	0.504370860927152				0.948026490066225	0.147496688741722	0.197933774834437	-0.0482119205298018	-0.508079470198675	0.222516556291392				0.399788079470199	-0.142834437086093	-0.852238410596026	-1.09960264900662	-0.122384105960265	0.645298013245032			
34	780	-0.216158940397351	0.114754966887417	-0.951523178807947	-0.246622516556291	-0.424635761589404	-0.344900662251656				0.944953642384106	0.159788079470199	0.301139072847682	3.51390728476821	-5.85218543046358	-0.0259602649006601				-0.250172185430464	-0.0652715231788079	-0.87194701986755	1.12741721854305	0.706490066225167	-0.48026490066225				0.384529801324503	-0.112529801324503	-0.869721854304636	0.522913907284768	-1.7764238410596	-0.0556291390728476				0.948026490066225	0.147496688741722	0.197933774834437	-1.1682119205298	-1.34807947019868	0.782516556291392				0.399788079470199	-0.110834437086093	-0.852238410596026	-0.819602649006623	-0.962384105960265	-0.194701986754968			
35	800	-0.216158940397351	0.114754966887417	-0.935523178807947	0.313377483443709	-0.144635761589404	-1.18490066225166				0.944953642384106	0.159788079470199	0.301139072847682	2.11390728476821	-5.01218543046358	0.81403973509934				-0.250172185430464	-0.0812715231788079	-0.87194701986755	-0.272582781456954	0.146490066225167	0.0797350993377501				0.384529801324503	-0.128529801324503	-0.869721854304636	1.36291390728477	-1.4964238410596	0.784370860927152				0.948026490066225	0.147496688741722	0.197933774834437	-0.888211920529802	0.611920529801325	-0.617483443708608				0.399788079470199	-0.110834437086093	-0.868238410596026	0.300397350993377	-1.24238410596026	-0.754701986754968			
36	820	-0.216158940397351	0.114754966887417	-0.935523178807947	-0.526622516556291	0.135364238410596	-0.624900662251656				0.928953642384106	0.159788079470199	0.301139072847682	0.993907284768212	-3.33218543046358	0.53403973509934				-0.250172185430464	-0.0812715231788079	-0.88794701986755	0.287417218543046	-0.973509933774833	-0.20026490066225				0.400529801324503	-0.112529801324503	-0.869721854304636	1.92291390728477	-0.3764238410596	0.224370860927152				0.948026490066225	0.163496688741722	0.197933774834437	-0.0482119205298018	-0.788079470198675	0.782516556291392				0.399788079470199	-0.126834437086093	-0.868238410596026	1.70039735099338	-0.682384105960265	-1.31470198675497			
37	840	-0.232158940397351	0.130754966887417	-0.935523178807947	0.0333774834437086	0.135364238410596	-1.18490066225166				0.944953642384106	0.159788079470199	0.301139072847682	1.55390728476821	-1.09218543046358	-0.585960264900661				-0.250172185430464	-0.0812715231788079	-0.88794701986755	0.287417218543046	-0.413509933774833	-0.20026490066225				0.384529801324503	-0.128529801324503	-0.869721854304636	1.64291390728477	-0.3764238410596	1.62437086092715				0.932026490066225	0.147496688741722	0.197933774834437	-0.328211920529802	1.73192052980133	0.782516556291392				0.383788079470199	-0.126834437086093	-0.852238410596026	1.98039735099338	-1.52238410596026	-0.474701986754968			
38	860	-0.232158940397351	0.130754966887417	-0.951523178807947	-0.806622516556291	-0.424635761589404	-1.18490066225166				0.960953642384106	0.159788079470199	0.317139072847682	0.433907284768212	-1.65218543046358	0.53403973509934				-0.266172185430464	-0.0652715231788079	-0.88794701986755	0.287417218543046	0.706490066225167	-0.20026490066225				0.384529801324503	-0.112529801324503	-0.885721854304636	1.64291390728477	0.4635761589404	0.784370860927152				0.948026490066225	0.147496688741722	0.197933774834437	1.3517880794702	-1.06807947019868	-0.337483443708608				0.383788079470199	-0.126834437086093	-0.852238410596026	0.580397350993377	-1.24238410596026	-1.31470198675497			
39	880	-0.216158940397351	0.130754966887417	-0.951523178807947	1.15337748344371	-0.144635761589404	-1.46490066225166				0.944953642384106	0.159788079470199	0.317139072847682	-0.406092715231788	-1.37218543046358	-0.0259602649006601				-0.266172185430464	-0.0812715231788079	-0.88794701986755	0.287417218543046	0.146490066225167	-0.48026490066225				0.400529801324503	-0.112529801324503	-0.885721854304636	0.522913907284768	-0.0964238410596001	0.504370860927152				0.948026490066225	0.147496688741722	0.181933774834437	1.9117880794702	0.0519205298013249	1.06251655629139				0.383788079470199	-0.126834437086093	-0.868238410596026	-0.259602649006623	-0.402384105960265	-1.59470198675497			
40	900	-0.216158940397351	0.130754966887417	-0.935523178807947	-0.806622516556291	0.975364238410596	-0.904900662251656				0.944953642384106	0.159788079470199	0.301139072847682	-0.406092715231788	-0.812185430463576	-0.30596026490066				-0.250172185430464	-0.0812715231788079	-0.87194701986755	0.00741721854304636	-0.413509933774833	-0.48026490066225				0.384529801324503	-0.112529801324503	-0.885721854304636	0.242913907284768	-0.3764238410596	0.224370860927152				0.948026490066225	0.147496688741722	0.197933774834437	0.231788079470198	-0.508079470198675	0.502516556291392				0.383788079470199	-0.142834437086093	-0.852238410596026	-0.259602649006623	-0.122384105960265	-1.87470198675497			
41	920	-0.216158940397351	0.130754966887417	-0.951523178807947	-0.526622516556291	0.415364238410596	-0.904900662251656				0.944953642384106	0.159788079470199	0.317139072847682	0.153907284768212	-0.812185430463576	0.25403973509934				-0.266172185430464	-0.0652715231788079	-0.87194701986755	0.287417218543046	0.706490066225167	-0.48026490066225				0.400529801324503	-0.112529801324503	-0.885721854304636	0.802913907284768	0.4635761589404	-1.17562913907285				0.948026490066225	0.147496688741722	0.197933774834437	1.0717880794702	-0.788079470198675	-1.17748344370861				0.383788079470199	-0.126834437086093	-0.852238410596026	0.0203973509933773	0.717615894039735	-1.59470198675497			
42	940	-0.216158940397351	0.114754966887417	-0.951523178807947	0.873377483443709	-0.144635761589404	-1.18490066225166				0	0	0	0	0	0				0	0	0	0	0	0				0	0	0	0	0	0				0	0	0	0	0	0				0	0	0	0	0	0			
43	1040	-0.216158940397351	0.130754966887417	-0.935523178807947	-0.246622516556291	0.695364238410596	-0.624900662251656				0.960953642384106	0.159788079470199	0.301139072847682	0.993907284768212	-2.49218543046358	-0.0259602649006601				-0.266172185430464	-0.0652715231788079	-0.88794701986755	0.287417218543046	0.426490066225167	-0.20026490066225				0	0	0	0	0	0				0	0	0	0	0	0				0	0	0	0	0	0			
44	1060	-0.216158940397351	0.114754966887417	-0.935523178807947	-0.246622516556291	0.135364238410596	-0.624900662251656				0.960953642384106	0.159788079470199	0.301139072847682	1.83390728476821	-1.93218543046358	1.09403973509934				-0.250172185430464	-0.0652715231788079	-0.87194701986755	0.287417218543046	0.986490066225167	0.0797350993377501				0	0	0	0	0	0				0.948026490066225	0.147496688741722	0.181933774834437	-0.0482119205298018	-1.34807947019868	0.502516556291392				0.399788079470199	-0.110834437086093	-0.852238410596026	0.580397350993377	-0.682384105960265	-1.87470198675497			
45	1080	-0.216158940397351	0.130754966887417	-0.935523178807947	0.0333774834437086	0.695364238410596	-1.18490066225166				0.944953642384106	0.159788079470199	0.285139072847682	1.27390728476821	-0.812185430463576	0.81403973509934				-0.250172185430464	-0.0812715231788079	-0.88794701986755	0.847417218543046	0.986490066225167	-0.48026490066225				0.400529801324503	-0.112529801324503	-0.885721854304636	-0.317086092715232	-0.0964238410596001	-0.895629139072848				0.948026490066225	0.163496688741722	0.197933774834437	0.231788079470198	0.611920529801325	0.222516556291392				0.399788079470199	-0.126834437086093	-0.868238410596026	0.580397350993377	-0.402384105960265	-1.31470198675497			
46	1100	-0.216158940397351	0.130754966887417	-0.935523178807947	0.0333774834437086	0.975364238410596	-1.18490066225166				0.944953642384106	0.159788079470199	0.301139072847682	1.55390728476821	-0.252185430463576	0.25403973509934				-0.250172185430464	-0.0812715231788079	-0.88794701986755	0.567417218543046	-0.693509933774834	0.0797350993377501				0.384529801324503	-0.112529801324503	-0.869721854304636	-0.877086092715232	-0.9364238410596	-0.895629139072848				0.948026490066225	0.147496688741722	0.197933774834437	0.511788079470198	0.0519205298013249	-0.617483443708608				0.399788079470199	-0.126834437086093	-0.868238410596026	0.0203973509933773	-0.682384105960265	-1.87470198675497			
47	1120	-0.216158940397351	0.130754966887417	-0.935523178807947	-0.806622516556291	0.135364238410596	-0.624900662251656				0.944953642384106	0.175788079470199	0.301139072847682	1.27390728476821	0.0278145695364242	0.25403973509934				-0.250172185430464	-0.0812715231788079	-0.87194701986755	0.00741721854304636	-0.133509933774833	-0.76026490066225				0.400529801324503	-0.112529801324503	-0.885721854304636	0.802913907284768	-0.3764238410596	-0.615629139072848				0.948026490066225	0.163496688741722	0.181933774834437	0.231788079470198	0.331920529801325	-0.0574834437086077				0.399788079470199	-0.110834437086093	-0.852238410596026	0.580397350993377	0.157615894039735	-1.87470198675497			
48	1140	-0.216158940397351	0.114754966887417	-0.919523178807947	0.593377483443709	0.135364238410596	-1.74490066225166				0.944953642384106	0.159788079470199	0.301139072847682	0.433907284768212	0.0278145695364242	0.53403973509934				-0.266172185430464	-0.0812715231788079	-0.88794701986755	0.00741721854304636	0.426490066225167	-0.20026490066225				0.400529801324503	-0.128529801324503	-0.885721854304636	1.64291390728477	-0.0964238410596001	-0.615629139072848				0.948026490066225	0.147496688741722	0.197933774834437	1.3517880794702	0.331920529801325	0.222516556291392				0.399788079470199	-0.110834437086093	-0.868238410596026	0.580397350993377	-0.402384105960265	-1.59470198675497			
49	1160	-0.216158940397351	0.130754966887417	-0.951523178807947	0.0333774834437086	0.415364238410596	-0.624900662251656				0.944953642384106	0.159788079470199	0.301139072847682	0.433907284768212	0.0278145695364242	0.53403973509934				-0.266172185430464	-0.0652715231788079	-0.88794701986755	-0.272582781456954	0.706490066225167	-0.48026490066225				0.400529801324503	-0.128529801324503	-0.885721854304636	-0.0370860927152318	-0.6564238410596	-0.0556291390728476				0.948026490066225	0.147496688741722	0.181933774834437	1.6317880794702	-0.228079470198675	-0.0574834437086077				0.399788079470199	-0.126834437086093	-0.852238410596026	0.0203973509933773	-0.122384105960265	-1.59470198675497			
50	1180	-0.232158940397351	0.114754966887417	-0.935523178807947	0.0333774834437086	0.415364238410596	-1.46490066225166				0.944953642384106	0.159788079470199	0.301139072847682	-0.686092715231788	0.587814569536424	0.25403973509934				-0.266172185430464	-0.0812715231788079	-0.87194701986755	-0.272582781456954	0.146490066225167	-0.48026490066225				0.384529801324503	-0.112529801324503	-0.885721854304636	0.242913907284768	-0.6564238410596	-0.0556291390728476				0.932026490066225	0.163496688741722	0.229933774834437	2.4717880794702	2.29192052980133	-0.337483443708608				0.399788079470199	-0.142834437086093	-0.852238410596026	0.0203973509933773	0.157615894039735	-1.03470198675497			
51	1200	-0.216158940397351	0.130754966887417	-0.935523178807947	0.593377483443709	-0.144635761589404	-1.18490066225166				0.944953642384106	0.175788079470199	0.317139072847682	0.993907284768212	-0.532185430463576	0.53403973509934				-0.250172185430464	-0.0812715231788079	-0.87194701986755	0.847417218543046	-0.133509933774833	0.0797350993377501				0.384529801324503	-0.128529801324503	-0.869721854304636	0.242913907284768	1.3035761589404	-0.615629139072848				0.948026490066225	0.147496688741722	0.165933774834437	1.3517880794702	-2.18807947019868	-0.0574834437086077				0.399788079470199	-0.110834437086093	-0.868238410596026	0.0203973509933773	0.157615894039735	-1.31470198675497			
52	1220	-0.216158940397351	0.130754966887417	-0.935523178807947	-0.246622516556291	0.135364238410596	-1.74490066225166				0.944953642384106	0.159788079470199	0.285139072847682	0.993907284768212	0.867814569536424	1.09403973509934				-0.266172185430464	-0.0652715231788079	-0.88794701986755	0.00741721854304636	0.426490066225167	-0.20026490066225				0.384529801324503	-0.128529801324503	-0.885721854304636	-0.0370860927152318	0.7435761589404	-0.335629139072848				0.948026490066225	0.147496688741722	0.181933774834437	-1.7282119205298	1.17192052980133	-1.45748344370861				0.399788079470199	-0.126834437086093	-0.852238410596026	0.300397350993377	0.437615894039735	-1.03470198675497			
53	1240	-0.216158940397351	0.130754966887417	-0.935523178807947	0.313377483443709	1.2553642384106	-1.74490066225166				0.944953642384106	0.175788079470199	0.301139072847682	0.153907284768212	4.50781456953642	0.81403973509934				-0.250172185430464	-0.0812715231788079	-0.88794701986755	-0.272582781456954	0.426490066225167	-0.20026490066225				0.384529801324503	-0.112529801324503	-0.885721854304636	1.36291390728477	1.3035761589404	-0.0556291390728476				0.932026490066225	0.163496688741722	0.197933774834437	-1.7282119205298	1.73192052980133	-0.617483443708608				0.383788079470199	-0.126834437086093	-0.852238410596026	1.14039735099338	-0.402384105960265	-0.194701986754968			
54	1260	-0.216158940397351	0.114754966887417	-0.935523178807947	-1.36662251655629	0.135364238410596	-1.74490066225166				0.944953642384106	0.159788079470199	0.333139072847682	0.153907284768212	0.587814569536424	0.25403973509934				-0.250172185430464	-0.0652715231788079	-0.87194701986755	0.287417218543046	0.706490066225167	-0.48026490066225				0.384529801324503	-0.112529801324503	-0.885721854304636	0.522913907284768	1.8635761589404	0.504370860927152				0.948026490066225	0.147496688741722	0.181933774834437	-0.888211920529802	1.45192052980132	-0.617483443708608				0.383788079470199	-0.126834437086093	-0.852238410596026	0.0203973509933773	0.157615894039735	-1.59470198675497			
55	1280	-0.216158940397351	0.114754966887417	-0.935523178807947	0.0333774834437086	-0.424635761589404	-0.904900662251656				0.944953642384106	0.159788079470199	0.317139072847682	-1.24609271523179	-1.09218543046358	-0.585960264900661				-0.250172185430464	-0.0812715231788079	-0.87194701986755	0.567417218543046	-0.133509933774833	0.0797350993377501				0.400529801324503	-0.112529801324503	-0.869721854304636	-0.317086092715232	1.5835761589404	0.224370860927152				0.948026490066225	0.147496688741722	0.197933774834437	1.6317880794702	4.53192052980133	-0.617483443708608				0.399788079470199	-0.110834437086093	-0.868238410596026	0.580397350993377	-0.402384105960265	-1.59470198675497			
56	1300	-0.216158940397351	0.130754966887417	-0.951523178807947	0.0333774834437086	0.135364238410596	-1.46490066225166				0.944953642384106	0.159788079470199	0.301139072847682	-0.686092715231788	1.70781456953642	-0.30596026490066				-0.266172185430464	-0.0812715231788079	-0.88794701986755	0.00741721854304636	-0.133509933774833	-0.76026490066225				0.384529801324503	-0.128529801324503	-0.885721854304636	-0.597086092715232	-0.0964238410596001	0.784370860927152				0.948026490066225	0.163496688741722	0.197933774834437	-0.608211920529802	0.611920529801325	0.502516556291392				0.399788079470199	-0.126834437086093	-0.868238410596026	0.580397350993377	-0.962384105960265	-0.754701986754968			
57	1320	-0.216158940397351	0.130754966887417	-0.935523178807947	0.313377483443709	0.135364238410596	-0.904900662251656				0.944953642384106	0.175788079470199	0.301139072847682	-0.686092715231788	3.94781456953642	-0.86596026490066				-0.266172185430464	-0.0652715231788079	-0.88794701986755	0.847417218543046	-0.413509933774833	-0.76026490066225				0.384529801324503	-0.128529801324503	-0.901721854304636	-0.877086092715232	0.4635761589404	2.74437086092715				0.948026490066225	0.163496688741722	0.181933774834437	-0.328211920529802	1.17192052980133	0.502516556291392				0.415788079470199	-0.126834437086093	-0.868238410596026	1.14039735099338	-2.64238410596027	-1.03470198675497			
58	1340	-0.216158940397351	0.130754966887417	-0.935523178807947	-1.64662251655629	0.415364238410596	-1.18490066225166				0.944953642384106	0.191788079470199	0.301139072847682	-1.24609271523179	4.78781456953642	-0.30596026490066				-0.266172185430464	-0.0652715231788079	-0.88794701986755	0.287417218543046	0.426490066225167	-0.76026490066225				0.384529801324503	-0.128529801324503	-0.901721854304636	-0.0370860927152318	1.0235761589404	3.58437086092715				0.932026490066225	0.147496688741722	0.197933774834437	-1.4482119205298	1.17192052980133	-0.617483443708608				0.399788079470199	-0.126834437086093	-0.868238410596026	0.300397350993377	-2.64238410596027	0.365298013245032			
59	1360	-0.200158940397351	0.130754966887417	-0.935523178807947	-0.806622516556291	-0.144635761589404	-0.344900662251656				0.944953642384106	0.175788079470199	0.317139072847682	-0.406092715231788	5.34781456953642	1.09403973509934				-0.250172185430464	-0.0492715231788079	-0.87194701986755	1.96741721854305	0.146490066225167	0.0797350993377501				0.368529801324503	-0.144529801324503	-0.901721854304636	-1.43708609271523	0.7435761589404	4.42437086092715				0.948026490066225	0.147496688741722	0.197933774834437	-3.6882119205298	1.45192052980132	-0.617483443708608				0.415788079470199	-0.126834437086093	-0.868238410596026	0.860397350993377	-4.88238410596027	1.48529801324503			
60	1380	-0.216158940397351	0.130754966887417	-0.935523178807947	0.593377483443709	-0.424635761589404	0.775099337748344				0.960953642384106	0.159788079470199	0.317139072847682	2.67390728476821	5.34781456953642	5.01403973509934				-0.250172185430464	-0.0652715231788079	-0.87194701986755	2.52741721854305	0.426490066225167	-0.48026490066225				0.368529801324503	-0.144529801324503	-0.901721854304636	-1.99708609271523	0.7435761589404	5.54437086092715				0.948026490066225	0.147496688741722	0.181933774834437	-5.3682119205298	3.41192052980132	-1.17748344370861				0.415788079470199	-0.126834437086093	-0.900238410596026	1.14039735099338	-6.00238410596027	1.76529801324503			
61	1400	-0.232158940397351	0.114754966887417	-0.951523178807947	0.313377483443709	-0.704635761589404	-0.624900662251656				0.976953642384106	0.175788079470199	0.269139072847682	6.31390728476821	0.307814569536424	3.61403973509934				-0.250172185430464	-0.0812715231788079	-0.88794701986755	1.40741721854305	-0.133509933774833	-0.48026490066225				0.368529801324503	-0.144529801324503	-0.901721854304636	-3.11708609271523	0.7435761589404	7.78437086092715				0.964026490066225	0.147496688741722	0.197933774834437	-5.6482119205298	4.53192052980133	-0.617483443708608				0.399788079470199	-0.110834437086093	-0.884238410596026	1.14039735099338	-6.56238410596027	3.72529801324503			
62	1420	-0.232158940397351	0.114754966887417	-0.967523178807947	0.0333774834437086	0.415364238410596	-1.18490066225166				0.976953642384106	0.191788079470199	0.269139072847682	9.11390728476821	-4.17218543046358	3.33403973509934				-0.266172185430464	-0.0812715231788079	-0.88794701986755	1.68741721854305	0.426490066225167	-1.32026490066225				0.368529801324503	-0.144529801324503	-0.917721854304636	-4.51708609271523	0.1835761589404	10.3043708609272				0.964026490066225	0.147496688741722	0.181933774834437	-7.0482119205298	5.65192052980133	-0.337483443708608				0.399788079470199	-0.142834437086093	-0.900238410596026	4.22039735099338	-8.24238410596027	4.28529801324503			
63	1440	-0.232158940397351	0.114754966887417	-0.935523178807947	-1.08662251655629	0.975364238410596	-0.0649006622516557				0.992953642384106	0.175788079470199	0.285139072847682	7.71390728476821	-6.41218543046358	1.37403973509934				-0.282172185430464	-0.0652715231788079	-0.90394701986755	2.24741721854305	1.26649006622517	-1.32026490066225				0.384529801324503	-0.160529801324503	-0.917721854304636	-3.11708609271523	0.4635761589404	12.5443708609272				0.996026490066225	0.131496688741722	0.197933774834437	-8.4482119205298	6.21192052980133	-0.337483443708608				0.431788079470199	-0.174834437086093	-0.932238410596026	4.78039735099338	-9.36238410596027	7.36529801324503			
64	1460	-0.232158940397351	0.130754966887417	-0.935523178807947	-1.92662251655629	0.695364238410596	-0.0649006622516557				1.04095364238411	0.143788079470199	0.253139072847682	3.51390728476821	-11.4521854304636	-1.14596026490066				-0.282172185430464	-0.0492715231788079	-0.88794701986755	2.52741721854305	1.26649006622517	-0.76026490066225				0.368529801324503	-0.176529801324503	-0.949721854304636	-0.0370860927152318	1.3035761589404	14.5043708609272				0.996026490066225	0.131496688741722	0.165933774834437	-11.2482119205298	3.97192052980133	-1.17748344370861				0.415788079470199	-0.158834437086093	-0.964238410596026	8.42039735099338	-4.60238410596027	12.685298013245			
65	1480	-0.248158940397351	0.0987549668874172	-0.951523178807947	-0.806622516556291	1.2553642384106	0.775099337748344				1.07295364238411	0.191788079470199	0.221139072847682	-5.72609271523179	-16.4921854304636	-5.62596026490066				-0.250172185430464	-0.0492715231788079	-0.87194701986755	3.92741721854305	2.10649006622517	-0.76026490066225				0.352529801324503	-0.160529801324503	-0.949721854304636	12.5629139072848	-5.9764238410596	16.4643708609272				1.01202649006623	0.131496688741722	0.181933774834437	-17.1282119205298	5.93192052980133	-1.45748344370861				0.383788079470199	-0.190834437086093	-0.964238410596026	14.8603973509934	-9.92238410596027	18.285298013245			
66	1500	-0.248158940397351	0.0667549668874172	-0.951523178807947	-2.76662251655629	1.5353642384106	1.61509933774834				1.08895364238411	0.191788079470199	0.237139072847682	-4.04609271523179	-32.4521854304636	-4.50596026490066				-0.250172185430464	-0.0812715231788079	-0.88794701986755	5.88741721854305	1.82649006622517	-2.72026490066225				0.352529801324503	-0.160529801324503	-0.981721854304636	11.1629139072848	-7.6564238410596	18.1443708609272				1.02802649006623	0.131496688741722	0.149933774834437	-15.7282119205298	3.41192052980132	-2.57748344370861				0.367788079470199	-0.222834437086093	-0.948238410596026	15.1403973509934	-12.7223841059603	26.685298013245			
67	1520	-0.232158940397351	0.0187549668874172	-0.951523178807947	-6.96662251655629	2.9353642384106	-0.624900662251656				1.23295364238411	0.255788079470199	0.157139072847682	9.39390728476821	-74.4521854304636	-6.74596026490066				-0.250172185430464	-0.0812715231788079	-0.88794701986755	4.20741721854305	1.82649006622517	-3.84026490066225				0.336529801324503	-0.176529801324503	-0.981721854304636	24.3229139072848	-14.3764238410596	17.0243708609272				1.02802649006623	0.131496688741722	0.117933774834437	-16.5682119205298	1.73192052980133	-2.29748344370861				0.335788079470199	-0.222834437086093	-0.980238410596026	17.9403973509934	-6.28238410596027	35.645298013245			
68	1540	-0.184158940397351	0.0507549668874172	-0.935523178807947	-17.6066225165563	2.6553642384106	1.61509933774834				1.20095364238411	0.239788079470199	0.0611390728476822	23.1139072847682	-105.252185430464	2.21403973509934				-0.234172185430464	-0.0652715231788079	-0.85594701986755	4.76741721854305	2.38649006622517	-7.48026490066225				0.336529801324503	-0.176529801324503	-1.06172185430464	16.7629139072848	-16.3364238410596	16.7443708609272				1.02802649006623	0.163496688741722	0.117933774834437	-18.5282119205298	1.73192052980133	-1.17748344370861				0.239788079470199	-0.222834437086093	-0.980238410596026	19.9003973509934	-19.4423841059603	46.005298013245			
69	1560	-0.248158940397351	0.0827549668874172	-0.919523178807947	-17.8866225165563	0.135364238410596	6.65509933774834				1.02495364238411	0.239788079470199	0.0451390728476822	14.7139072847682	-103.572185430464	9.49403973509934				-0.266172185430464	-0.0332715231788079	-0.83994701986755	3.36741721854305	1.82649006622517	-8.04026490066225				0.352529801324503	-0.240529801324503	-1.10972185430464	2.76291390728477	-16.6164238410596	10.0243708609272				1.07602649006623	0.179496688741722	0.0699337748344371	-16.8482119205298	1.73192052980133	-0.897483443708608				0.239788079470199	-0.174834437086093	-1.01223841059603	2.82039735099338	-16.3623841059603	51.605298013245			
70	1580	-0.328158940397351	0.114754966887417	-0.951523178807947	-19.2866225165563	-0.704635761589404	8.61509933774835				0.896953642384106	0.207788079470199	-0.0188609271523178	10.5139072847682	-88.7321854304636	18.1740397350993				-0.314172185430464	-0.0332715231788079	-0.85594701986755	4.48741721854305	-0.973509933774833	-7.48026490066225				0.320529801324503	-0.240529801324503	-1.09372185430464	-12.0770860927152	-24.4564238410596	2.74437086092715				1.10802649006623	0.179496688741722	0.00593377483443711	-12.3682119205298	-2.18807947019868	-1.17748344370861				0.207788079470199	-0.206834437086093	-1.06023841059603	0.0203973509933773	-28.4023841059603	61.965298013245			
71	1600	-0.344158940397351	0.114754966887417	-0.919523178807947	-17.6066225165563	2.9353642384106	11.1350993377483				0.816953642384106	0.271788079470199	-0.0668609271523178	3.79390728476821	-59.0521854304636	15.3740397350993				-0.314172185430464	-0.0812715231788079	-0.91994701986755	16.247417218543	-1.81350993377483	-7.48026490066225				0.256529801324503	-0.224529801324503	-1.07772185430464	-31.3970860927152	-35.0964238410596	-0.335629139072848				1.07602649006623	0.163496688741722	-0.0260662251655629	-8.4482119205298	-3.58807947019868	-0.337483443708608				0.0477880794701987	-0.238834437086093	-1.01223841059603	-4.73960264900662	-34.5623841059603	73.445298013245			
72	1620	-0.312158940397351	0.114754966887417	-0.919523178807947	-22.3666225165563	2.3753642384106	11.9750993377483				0.880953642384106	0.239788079470199	-0.0988609271523179	3.23390728476821	-43.0921854304636	17.8940397350993				-0.330172185430464	-0.0812715231788079	-0.91994701986755	19.607417218543	1.82649006622517	-9.16026490066225				0.224529801324503	-0.208529801324503	-1.07772185430464	-40.9170860927152	-44.8964238410596	-5.37562913907285				1.04402649006623	0.179496688741722	-0.0580662251655629	-9.0082119205298	-10.3080794701987	0.782516556291392				0.0317880794701987	-0.222834437086093	-0.996238410596026	-26.8596026490066	-18.6023841059603	81.565298013245			
73	1640	-0.248158940397351	0.114754966887417	-0.935523178807947	-22.0866225165563	1.5353642384106	12.2550993377483				0.960953642384106	0.0957880794701987	-0.0828609271523179	-7.40609271523179	-15.9321854304636	31.0540397350993				-0.314172185430464	-0.129271523178808	-0.88794701986755	21.287417218543	4.06649006622517	-9.44026490066225				0.160529801324503	-0.160529801324503	-1.04572185430464	-42.5970860927152	-53.5764238410596	-14.0556291390728				0.996026490066225	0.163496688741722	-0.0900662251655629	-3.9682119205298	-11.9880794701987	3.58251655629139				0.0477880794701987	-0.158834437086093	-1.06023841059603	-34.9796026490066	-27.2823841059603	97.245298013245			
74	1660	-0.248158940397351	0.162754966887417	-0.935523178807947	-33.2866225165563	3.4953642384106	13.0950993377483				0.864953642384106	0.175788079470199	-0.0668609271523178	-11.6060927152318	0.307814569536424	26.8540397350993				-0.282172185430464	-0.129271523178808	-0.85594701986755	22.967417218543	-6.29350993377483	-11.1202649006623				0.0805298013245033	-0.256529801324503	-0.981721854304636	-43.1570860927152	-54.1364238410596	-20.7756291390729				0.980026490066225	0.0674966887417219	-0.0740662251655629	6.1117880794702	-7.50807947019868	6.38251655629139				-0.000211920529801336	-0.126834437086093	-1.02823841059603	-4.17960264900662	-32.0423841059603	108.445298013245			
75	1680	-0.216158940397351	0.226754966887417	-0.935523178807947	-31.8866225165563	2.3753642384106	13.0950993377483				0.880953642384106	0.271788079470199	-0.130860927152318	8.83390728476821	17.6678145695364	25.4540397350993				-0.298172185430464	-0.0972715231788079	-0.85594701986755	21.8474172185431	-2.65350993377483	-9.44026490066225				-0.0154701986754967	-0.288529801324503	-0.965721854304636	-52.1170860927152	-53.0164238410596	-23.2956291390729				0.964026490066225	0.0834966887417219	-0.0900662251655629	2.1917880794702	-4.14807947019868	4.70251655629139				-0.000211920529801336	-0.0628344370860927	-0.996238410596026	8.70039735099338	-23.0823841059603	112.085298013245			
76	1700	-0.232158940397351	0.258754966887417	-0.983523178807947	-28.5266225165563	6.2953642384106	15.6150993377483				0.944953642384106	0.127788079470199	-0.146860927152318	27.0339072847682	27.4678145695364	35.5340397350993				-0.314172185430464	-0.0972715231788079	-0.90394701986755	22.127417218543	5.18649006622517	-7.20026490066225				-0.0154701986754967	-0.240529801324503	-0.917721854304636	-56.8770860927152	-45.4564238410596	-21.0556291390728				0.980026490066225	0.0994966887417219	-0.0900662251655629	1.3517880794702	2.29192052980133	2.46251655629139				-0.0322119205298013	-0.0308344370860927	-1.02823841059603	35.3003973509934	-19.4423841059603	107.605298013245			
77	1720	-0.280158940397351	0.242754966887417	-0.967523178807947	-21.5266225165563	10.4953642384106	18.4150993377483				0.928953642384106	0.0157880794701987	-0.114860927152318	-2.08609271523179	57.7078145695364	33.0140397350993				-0.346172185430464	-0.161271523178808	-0.88794701986755	22.967417218543	9.38649006622517	-1.60026490066225				0.0325298013245033	-0.144529801324503	-0.933721854304636	-48.1970860927152	-37.0564238410596	-17.4156291390728				0.948026490066225	0.0674966887417219	-0.0740662251655629	10.3117880794702	10.6919205298013	5.26251655629139				-0.0322119205298013	-0.0468344370860927	-0.964238410596026	48.1803973509934	-20.8423841059603	106.485298013245			
78	1740	-0.312158940397351	0.210754966887417	-0.951523178807947	-24.0466225165563	10.7753642384106	18.9750993377483				0.864953642384106	0.239788079470199	-0.00286092715231785	-2.36609271523179	75.3478145695364	11.1740397350993				-0.330172185430464	-0.225271523178808	-0.91994701986755	19.8874172185431	9.38649006622517	7.07973509933775				0.0645298013245033	-0.0805298013245033	-0.949721854304636	-27.7570860927152	-32.5764238410596	-19.9356291390729				0.964026490066225	0.0514966887417219	0.00593377483443711	13.3917880794702	14.8919205298013	7.78251655629139				-0.0322119205298013	-0.0308344370860927	-0.964238410596026	57.4203973509934	-8.24238410596027	96.965298013245			
79	1760	-0.312158940397351	0.258754966887417	-0.951523178807947	-29.9266225165563	16.6553642384106	20.0950993377483				0.928953642384106	0.111788079470199	0.0771390728476822	23.1139072847682	76.7478145695364	19.0140397350993				-0.410172185430464	-0.241271523178808	-0.96794701986755	14.567417218543	8.26649006622517	11.5597350993378				0.160529801324503	-0.0805298013245033	-0.949721854304636	-9.27708609271523	-21.9364238410596	-22.4556291390729				0.980026490066225	0.0994966887417219	0.00593377483443711	16.4717880794702	11.2519205298013	5.26251655629139				-0.112211920529801	-0.0308344370860927	-0.964238410596026	56.5803973509934	3.51761589403974	85.765298013245			
80	1780	-0.344158940397351	0.274754966887417	-0.951523178807947	-34.6866225165563	20.5753642384106	19.5350993377483				0.928953642384106	0.0157880794701987	0.189139072847682	7.71390728476821	85.7078145695364	19.2940397350993				-0.346172185430464	-0.193271523178808	-0.85594701986755	23.807417218543	11.3464900662252	10.7197350993378				0.224529801324503	-0.0805298013245033	-0.981721854304636	1.08291390728477	-20.2564238410596	-25.2556291390729				0.980026490066225	0.115496688741722	-0.0100662251655629	28.7917880794702	6.49192052980132	4.14251655629139				-0.128211920529801	-0.0308344370860927	-0.932238410596026	47.3403973509934	4.35761589403974	77.925298013245			
81	1800	-0.328158940397351	0.258754966887417	-0.951523178807947	-17.6066225165563	22.5353642384106	20.3750993377483				0.848953642384106	-0.0642119205298013	0.141139072847682	-32.3260927152318	97.4678145695364	7.53403973509934				-0.314172185430464	-0.193271523178808	-0.90394701986755	10.087417218543	13.8664900662252	9.31973509933775				0.192529801324503	-0.0965298013245033	-0.981721854304636	3.60291390728477	-25.8564238410596	-30.2956291390729				0.948026490066225	0.0834966887417219	0.0219337748344371	42.2317880794702	4.25192052980133	3.02251655629139				-0.0962119205298013	-0.0148344370860927	-0.900238410596026	35.8603973509934	7.15761589403974	70.925298013245			
82	1820	-0.232158940397351	0.226754966887417	-0.951523178807947	-22.3666225165563	27.2953642384106	18.6950993377483				0.896953642384106	0.223788079470199	0.237139072847682	-19.4460927152318	138.347814569536	5.85403973509934				-0.298172185430464	-0.129271523178808	-1.12794701986755	29.9674172185431	21.9864900662252	7.07973509933775				0.160529801324503	-0.112529801324503	-0.997721854304636	-10.3970860927152	-29.2164238410596	-43.1756291390729				0.916026490066225	0.0674966887417219	0.0379337748344371	46.7117880794702	4.53192052980133	1.62251655629139				-0.0962119205298013	-0.0468344370860927	-0.884238410596026	17.3803973509934	6.87761589403974	60.565298013245			
83	1840	-0.248158940397351	0.242754966887417	-0.983523178807947	-32.1666225165563	32.3353642384106	24.0150993377483				1.02495364238411	0.239788079470199	0.525139072847682	2.67390728476821	151.787814569536	16.4940397350993				-0.266172185430464	-0.113271523178808	-0.85594701986755	26.607417218543	32.3464900662252	1.75973509933775				0.176529801324503	-0.0965298013245033	-1.04572185430464	-20.7570860927152	-26.6964238410596	-49.6156291390729				0.948026490066225	0.163496688741722	0.0859337748344371	47.2717880794702	18.8119205298013	-8.17748344370861				0.0157880794701987	-0.0788344370860927	-0.852238410596026	3.10039735099338	6.31761589403974	41.245298013245			
84	1860	-0.248158940397351	0.290754966887417	-1.01552317880795	-39.7266225165563	40.7353642384106	29.6150993377483				1.15295364238411	0.143788079470199	0.605139072847682	-0.126092715231788	133.307814569536	20.6940397350993				-0.282172185430464	-0.113271523178808	-1.03194701986755	31.6474172185431	31.2264900662252	1.19973509933775				0.112529801324503	-0.0645298013245033	-1.06172185430464	-7.87708609271523	-17.4564238410596	-45.6956291390729				1.04402649006623	0.211496688741722	0.149933774834437	47.5517880794702	24.6919205298013	-22.1774834437086				0.0957880794701987	-0.238834437086093	-0.900238410596026	16.2603973509934	10.5176158940397	32.565298013245			
85	1880	-0.232158940397351	0.370754966887417	-1.06352317880795	-29.9266225165563	49.1353642384106	38.0150993377484				0.976953642384106	-0.0642119205298013	0.621139072847682	-16.3660927152318	130.227814569536	29.6540397350993				-0.250172185430464	-0.129271523178808	-0.96794701986755	40.3274172185431	38.2264900662252	-1.60026490066225				0.0165298013245033	-0.0805298013245033	-1.01372185430464	-2.83708609271523	-12.4164238410596	-42.0556291390728				1.01202649006623	0.339496688741722	0.293933774834437	63.7917880794702	27.4919205298013	-21.0574834437086				0.239788079470199	-0.478834437086093	-0.964238410596026	28.0203973509934	12.4776158940397	27.525298013245			
86	1900	-0.120158940397351	0.386754966887417	-0.951523178807947	-15.3666225165563	59.2153642384106	43.3350993377484				0.880953642384106	0.0477880794701987	0.829139072847682	-41.0060927152318	148.147814569536	19.5740397350993				-0.234172185430464	-0.177271523178808	-0.96794701986755	36.1274172185431	45.7864900662252	-1.32026490066225				0.0965298013245033	-0.000529801324503289	-1.02972185430464	-12.0770860927152	-6.8164238410596	-27.7756291390729				0.980026490066225	0.243496688741722	0.389933774834437	56.7917880794702	42.8919205298013	-18.8174834437086				0.335788079470199	-0.814834437086093	-0.916238410596027	39.2203973509934	16.6776158940397	38.725298013245			
87	1920	-0.184158940397351	0.354754966887417	-1.03152317880795	-19.8466225165563	61.4553642384106	45.5750993377484				1.26495364238411	0.143788079470199	0.973139072847682	-41.8460927152318	128.827814569536	12.5740397350993				-0.314172185430464	-0.193271523178808	-1.01594701986755	36.6874172185431	54.1864900662252	-4.40026490066225				0.224529801324503	0.0794701986754967	-1.17372185430464	-5.63708609271523	10.2635761589404	-13.2156291390728				1.04402649006623	0.195496688741722	0.581933774834437	60.7117880794702	46.8119205298013	-20.2174834437086				0.511788079470199	-0.878834437086093	-0.980238410596026	6.18039735099338	12.4776158940397	51.885298013245			
88	1940	-0.248158940397351	0.434754966887417	-1.04752317880795	-29.9266225165563	66.2153642384106	49.2150993377483				1.32895364238411	0.0157880794701987	0.877139072847682	-15.8060927152318	81.5078145695364	5.01403973509934				-0.378172185430464	-0.401271523178808	-1.01594701986755	22.127417218543	62.8664900662252	-5.80026490066225				0.336529801324503	0.127470198675497	-1.22172185430464	-4.23708609271523	20.9035761589404	-8.17562913907285				1.20402649006623	0.211496688741722	0.709933774834437	43.6317880794702	53.5319205298013	-25.8174834437086				0.655788079470199	-1.19883443708609	-0.964238410596026	-15.9396026490066	26.7576158940397	49.085298013245			
89	1960	-0.088158940397351	0.562754966887417	-1.01552317880795	-13.1266225165563	77.4153642384106	50.3350993377484				1.13695364238411	-0.256211920529801	0.829139072847682	10.2339072847682	50.9878145695364	10.3340397350993				-0.250172185430464	-0.241271523178808	-1.06394701986755	-9.79258278145695	72.6664900662252	-4.40026490066225				0.336529801324503	0.0474701986754967	-1.18972185430464	-1.15708609271523	27.0635761589404	-2.29562913907285				1.30002649006623	0.211496688741722	0.741933774834437	55.3917880794702	54.6519205298013	-19.6574834437086				1.1677880794702	-0.718834437086093	-0.996238410596026	-93.7796026490066	44.6776158940397	-17.274701986755			
90	1980	-0.008158940397351	0.546754966887417	-0.967523178807947	10.9533774834437	86.6553642384106	49.7750993377484				1.15295364238411	0.175788079470199	0.909139072847682	-6.56609271523179	42.8678145695364	-15.1459602649007				-0.202172185430464	-0.0492715231788079	-1.09594701986755	-8.67258278145695	79.3864900662252	-8.04026490066225				0.368529801324503	0.0954701986754967	-1.26972185430464	-10.3970860927152	23.9835761589404	-2.29562913907285				1.25202649006623	0.211496688741722	0.709933774834437	3.3117880794702	54.0919205298013	-21.6174834437086				0	0	0	0	0	0			
91	2040	0	0	0	0	0	0				0	0	0	0	0	0				0	0	0	0	0	0				0.448529801324503	0.287470198675497	-1.28572185430464	15.9229139072848	62.0635761589404	22.6243708609272				1.26802649006623	0.483496688741722	0.517933774834437	-45.4082119205298	21.6119205298013	-24.9774834437086				0.383788079470199	-0.878834437086093	-0.788238410596027	-2.77960264900662	100.95761589404	-24.834701986755			
92	2060	0	0	0	0	0	0				0	0	0	0	0	0				0	0	0	0	0	0				0.400529801324503	0.0634701986754967	-1.23772185430464	4.16291390728477	75.5035761589404	14.5043708609272				1.15602649006623	0.499496688741722	0.469933774834437	-29.4482119205298	22.4519205298013	-19.3774834437086				0.367788079470199	-0.494834437086093	-1.15623841059603	-2.21960264900662	101.79761589404	-30.154701986755			
93	2080	0.423841059602649	0.450754966887417	-0.919523178807947	37.2733774834437	131.455364238411	31.0150993377483				1.10495364238411	0.223788079470199	0.749139072847682	40.1939072847682	-23.7721854304636	-7.86596026490066				0.0858278145695364	-0.129271523178808	-1.01594701986755	-19.312582781457	127.826490066225	-24.5602649006623				0.336529801324503	0.0314701986754967	-1.10972185430464	-9.55708609271523	95.6635761589404	15.6243708609272				1.10802649006623	0.435496688741722	0.437933774834437	-23.5682119205298	30.5719205298013	-20.2174834437086				0.751788079470199	-0.558834437086093	-1.06023841059603	-2.49960264900662	95.6376158940397	-12.514701986755			
94	2100	0.455841059602649	0.258754966887417	-0.903523178807947	41.4733774834437	136.775364238411	30.1750993377483				1.18495364238411	0.191788079470199	0.621139072847682	42.9939072847682	-9.77218543046358	0.81403973509934				0.181827814569536	-0.177271523178808	-0.95194701986755	-3.63258278145695	132.306490066225	-26.2402649006623				0.512529801324503	0.287470198675497	-1.07772185430464	-4.79708609271523	102.66357615894	18.1443708609272				1.15602649006623	0.387496688741722	0.389933774834437	-14.0482119205298	28.8919205298013	-20.7774834437086				0.687788079470199	-0.542834437086093	-0.980238410596026	30.2603973509934	54.7576158940397	-20.074701986755			
95	2120	0.391841059602649	0.178754966887417	-0.919523178807947	21.3133774834437	137.055364238411	26.5350993377483				1.16895364238411	0.0317880794701987	0.797139072847682	-4.60609271523179	7.58781456953643	1.65403973509934				0.245827814569536	-0.225271523178808	-0.95194701986755	5.60741721854305	135.946490066225	-29.8802649006623				0.592529801324503	0.255470198675497	-1.02972185430464	23.2029139072848	99.3035761589404	19.8243708609272				1.18802649006623	0.387496688741722	0.469933774834437	-7.6082119205298	25.5319205298013	-18.2574834437086				0.591788079470199	-0.638834437086093	-0.852238410596026	61.6203973509934	42.7176158940397	-41.634701986755			
96	2140	0.359841059602649	0.226754966887417	-0.807523178807947	17.9533774834437	142.655364238411	24.0150993377483				1.00895364238411	0.143788079470199	0.749139072847682	-3.76609271523179	-15.3721854304636	-5.62596026490066				0.245827814569536	-0.257271523178808	-0.90394701986755	4.20741721854305	144.626490066225	-34.0802649006623				0.560529801324503	0.0474701986754967	-1.10972185430464	44.4829139072848	95.9435761589404	14.5043708609272				1.09202649006623	0.403496688741722	0.501933774834437	-2.5682119205298	20.2119205298013	-11.2574834437086				0.559788079470199	-0.734834437086093	-0.868238410596026	48.7403973509934	56.9976158940397	-42.754701986755			
97	2160	0.407841059602649	0.258754966887417	-0.775523178807947	22.4333774834437	147.415364238411	23.1750993377483				1.02495364238411	0.175788079470199	0.461139072847682	37.3939072847682	-38.0521854304636	-3.38596026490066				0.261827814569536	-0.177271523178808	-0.85594701986755	0.567417218543046	149.106490066225	-36.0402649006623				0.752529801324503	0.0154701986754967	-1.09372185430464	12.0029139072848	85.5835761589404	8.90437086092715				1.04402649006623	0.403496688741722	0.469933774834437	-5.0882119205298	16.2919205298013	-7.05748344370861				0.655788079470199	-0.766834437086093	-0.900238410596026	3.66039735099338	67.6376158940397	-31.554701986755			
98	2180	0.439841059602649	0.242754966887417	-0.759523178807947	35.3133774834437	147.415364238411	24.8550993377483				1.04095364238411	0.0637880794701987	0.493139072847682	36.8339072847682	-27.4121854304636	-1.14596026490066				0.277827814569536	-0.0812715231788079	-0.79194701986755	-0.272582781456954	151.066490066225	-38.2802649006623				0.720529801324503	0.0154701986754967	-1.02972185430464	-15.7170860927152	70.7435761589404	10.3043708609272				1.02802649006623	0.371496688741722	0.485933774834437	-11.2482119205298	8.17192052980133	-4.81748344370861				0.719788079470199	-0.718834437086093	-0.836238410596026	-30.7796026490066	65.1176158940397	-15.314701986755			
99	2200	0.455841059602649	0.194754966887417	-0.727523178807947	41.7533774834437	152.735364238411	25.9750993377483				1.12095364238411	0.111788079470199	0.621139072847682	12.4739072847682	-8.37218543046358	6.41403973509934				0.325827814569536	-0.0652715231788079	-0.72794701986755	9.24741721854305	156.106490066225	-38.2802649006623				0.640529801324503	0.0954701986754967	-0.917721854304636	-9.27708609271523	62.3435761589404	11.4243708609272				1.04402649006623	0.387496688741722	0.485933774834437	-19.0882119205298	0.331920529801325	-1.73748344370861				0.719788079470199	-0.606834437086093	-0.772238410596026	-33.2996026490066	45.5176158940397	-2.99470198675497			
100	2220	0.487841059602649	0.114754966887417	-0.711523178807947	45.1133774834437	160.855364238411	25.4150993377483				1.00895364238411	0.159788079470199	0.717139072847682	0.993907284768212	-25.7321854304636	11.1740397350993				0.341827814569536	-0.161271523178808	-0.66394701986755	2.52741721854305	160.026490066225	-39.1202649006623				0.640529801324503	0.175470198675497	-0.805721854304636	5.84291390728477	64.8635761589404	14.7843708609272				0.964026490066225	0.371496688741722	0.421933774834437	-14.6082119205298	-12.5480794701987	1.90251655629139				0.623788079470199	-0.542834437086093	-0.740238410596026	-15.6596026490066	31.2376158940397	6.24529801324503			
101	2240	0.519841059602649	0.0507549668874172	-0.599523178807947	40.9133774834437	169.815364238411	22.8950993377483				0.832953642384106	0.127788079470199	0.477139072847682	20.0339072847682	-54.8521854304636	10.0540397350993				0.389827814569536	-0.161271523178808	-0.56794701986755	-14.832582781457	163.106490066225	-36.0402649006623				0.672529801324503	0.143470198675497	-0.757721854304636	21.5229139072848	63.4635761589404	27.3843708609272				0.852026490066225	0.323496688741722	0.469933774834437	-10.9682119205298	-13.3880794701987	6.38251655629139				0.591788079470199	-0.526834437086093	-0.692238410596026	-8.37960264900662	32.9176158940397	6.24529801324503			
102	2260	0.583841059602649	0.0827549668874172	-0.567523178807947	31.6733774834437	172.615364238411	22.0550993377483				0.800953642384106	-0.0642119205298013	0.317139072847682	45.5139072847682	-70.5321854304636	4.45403973509934				0.469827814569536	-0.113271523178808	-0.53594701986755	-23.232582781457	162.546490066225	-31.0002649006623				0.640529801324503	0.0634701986754967	-0.677721854304636	25.1629139072848	57.5835761589404	30.1843708609272				0.820026490066225	0.259496688741722	0.453933774834437	-4.8082119205298	-14.7880794701987	15.0625165562914				0.591788079470199	-0.510834437086093	-0.612238410596026	-12.2996026490066	48.5976158940397	4.56529801324503			
103	2280	0.615841059602649	0.0507549668874172	-0.503523178807947	23.5533774834437	173.175364238411	24.2950993377483				0.800953642384106	-0.0322119205298013	0.365139072847682	59.5139072847682	-62.4121854304636	5.29403973509934				0.581827814569536	-0.0972715231788079	-0.50394701986755	-19.312582781457	169.266490066225	-24.0002649006623				0.480529801324503	0.0154701986754967	-0.565721854304636	24.3229139072848	41.3435761589404	22.0643708609272				0.756026490066225	0.163496688741722	0.373933774834437	-3.1282119205298	-24.3080794701987	20.9425165562914				0.607788079470199	-0.462834437086093	-0.548238410596027	2.26039735099338	35.9976158940397	-1.87470198675497			
104	2300	0.567841059602649	0.0187549668874172	-0.503523178807947	23.5533774834437	169.535364238411	27.0950993377483				0.736953642384106	0.0157880794701987	0.285139072847682	31.2339072847682	-64.3721854304636	9.21403973509934				0.645827814569536	-0.113271523178808	-0.43994701986755	-23.232582781457	163.946490066225	-15.0402649006623				0.320529801324503	0.0954701986754967	-0.469721854304636	36.9229139072848	30.4235761589404	20.1043708609272				0.708026490066225	0.115496688741722	0.325933774834437	-6.4882119205298	-29.9080794701987	26.5425165562914				0.495788079470199	-0.430834437086093	-0.484238410596026	-4.45960264900662	22.2776158940397	-4.39470198675497			
105	2320	0.583841059602649	0.00275496688741723	-0.423523178807947	24.6733774834437	177.655364238411	27.0950993377483				0.704953642384106	0.0797880794701987	0.205139072847682	24.2339072847682	-74.4521854304636	9.49403973509934				0.629827814569536	-0.145271523178808	-0.40794701986755	-20.152582781457	166.466490066225	-8.60026490066225				0.304529801324503	0.0954701986754967	-0.405721854304636	62.1229139072848	36.5835761589404	26.5443708609272				0.644026490066225	0.115496688741722	0.293933774834437	-15.1682119205298	-39.7080794701987	28.2225165562914				0.415788079470199	-0.366834437086093	-0.484238410596026	-33.0196026490066	29.2776158940397	-6.91470198675497			
106	2340	0.647841059602649	0.0187549668874172	-0.423523178807947	26.9133774834437	177.095364238411	24.5750993377483				0.592953642384106	0.0637880794701987	0.173139072847682	24.2339072847682	-100.492185430464	8.09403973509934				0.501827814569536	-0.129271523178808	-0.31194701986755	-27.432582781457	169.266490066225	-3.84026490066225				0.320529801324503	-0.000529801324503289	-0.373721854304636	82.2829139072848	50.0235761589404	34.6643708609272				0.580026490066225	0.131496688741722	0.261933774834437	-24.6882119205298	-51.7480794701987	28.7825165562914				0.383788079470199	-0.270834437086093	-0.452238410596026	-39.7396026490066	25.6376158940397	-4.67470198675497			
107	2360	0.647841059602649	0.0507549668874172	-0.375523178807947	13.4733774834437	181.575364238411	23.4550993377483				0.464953642384106	-0.000211920529801304	-0.00286092715231785	18.9139072847682	-116.732185430464	5.85403973509934				0.485827814569536	0.0147284768211921	-0.29594701986755	-25.472582781457	178.786490066225	-3.84026490066225				0.304529801324503	-0.112529801324503	-0.437721854304636	70.5229139072848	41.3435761589404	36.0643708609272				0.500026490066225	0.115496688741722	0.165933774834437	-24.4082119205298	-62.1080794701987	32.7025165562914				0.319788079470199	-0.190834437086093	-0.452238410596026	-33.0196026490066	11.3576158940397	-1.87470198675497			
108	2380	0.647841059602649	0.0187549668874172	-0.407523178807947	19.6333774834437	168.695364238411	21.7750993377483				0.400953642384106	-0.000211920529801304	0.141139072847682	0.993907284768212	-80.3321854304636	5.01403973509934				0.629827814569536	0.110728476821192	-0.35994701986755	-12.872582781457	180.746490066225	-6.64026490066225				0.304529801324503	-0.0965298013245033	-0.437721854304636	44.4829139072848	18.1035761589404	34.9443708609272				0.468026490066225	0.115496688741722	0.0859337748344371	-21.6082119205298	-61.8280794701987	36.9025165562914				0.255788079470199	-0.126834437086093	-0.436238410596026	-39.4596026490066	4.63761589403974	-0.194701986754968			
109	2400	0.695841059602649	0.0347549668874172	-0.327523178807947	21.8733774834437	164.495364238411	18.6950993377483				0.480953642384106	0.0637880794701987	0.253139072847682	-1.24609271523179	-56.8121854304636	12.0140397350993				0.677827814569536	0.110728476821192	-0.32794701986755	6.16741721854305	177.386490066225	-15.6002649006622				0.400529801324503	-0.0645298013245033	-0.373721854304636	32.1629139072848	-0.6564238410596	34.9443708609272				0.404026490066225	0.131496688741722	0.117933774834437	-9.8482119205298	-59.3080794701987	40.2625165562914				0.223788079470199	-0.0948344370860927	-0.436238410596026	-44.4996026490066	0.437615894039735	-4.67470198675497			
110	2420	0.727841059602649	0.0667549668874172	-0.359523178807947	19.3533774834437	162.255364238411	20.6550993377483				0.464953642384106	0.0797880794701987	0.333139072847682	8.27390728476821	-67.4521854304636	14.5340397350993				0.709827814569536	0.0947284768211921	-0.35994701986755	11.767417218543	161.706490066225	-27.6402649006623				0.400529801324503	-0.128529801324503	-0.405721854304636	29.6429139072848	-18.5764238410596	38.0243708609272				0.388026490066225	0.131496688741722	0.133933774834437	2.4717880794702	-59.0280794701987	38.5825165562914				0.191788079470199	-0.0628344370860927	-0.452238410596026	-45.6196026490066	-2.64238410596027	-2.99470198675497			
111	2440	0.775841059602649	0.0667549668874172	-0.343523178807947	28.8733774834437	152.455364238411	24.5750993377483				0.320953642384106	0.0957880794701987	0.173139072847682	13.3139072847682	-94.3321854304636	13.1340397350993				0.661827814569536	0.0627284768211921	-0.29594701986755	-8.39258278145695	163.946490066225	-32.4002649006623				0.352529801324503	-0.176529801324503	-0.469721854304636	31.6029139072848	-34.8164238410596	39.7043708609272				0.388026490066225	0.115496688741722	0.133933774834437	6.1117880794702	-55.3880794701987	35.7825165562914				0.143788079470199	-0.0468344370860927	-0.452238410596026	-41.9796026490066	-8.80238410596027	0.645298013245032			
112	2460	0.855841059602649	0.0667549668874172	-0.263523178807947	29.7133774834437	142.375364238411	27.0950993377483				0.464953642384106	0.0477880794701987	0.0291390728476822	-5.16609271523179	-55.9721854304636	15.0940397350993				0.773827814569536	0.0147284768211921	-0.27994701986755	-4.19258278145695	151.906490066225	-30.7202649006623				0.336529801324503	-0.192529801324503	-0.437721854304636	27.9629139072848	-40.6964238410596	38.8643708609272				0.468026490066225	0.0674966887417219	0.101933774834437	12.5517880794702	-46.9880794701987	32.4225165562914				0.127788079470199	-0.110834437086093	-0.436238410596026	-36.6596026490066	-10.4823841059603	4.56529801324503			
113	2480	0.839841059602649	0.0827549668874172	-0.167523178807947	36.9933774834437	130.615364238411	25.6950993377483				0.672953642384106	0.0957880794701987	0.205139072847682	-16.0860927152318	-26.2921854304636	6.69403973509934				0.933827814569536	-0.0972715231788079	-0.23194701986755	-0.832582781456954	138.186490066225	-16.1602649006623				0.272529801324503	-0.176529801324503	-0.405721854304636	18.7229139072848	-41.5364238410596	34.9443708609272				0.532026490066225	0.0354966887417219	0.117933774834437	11.9917880794702	-45.8680794701987	29.9025165562914				0.191788079470199	-0.238834437086093	-0.388238410596026	-34.4196026490066	-12.1623841059603	2.88529801324503			
114	2500	0.807841059602649	0.130754966887417	-0.023523178807947	39.2333774834437	117.735364238411	23.1750993377483				0.640953642384106	0.127788079470199	0.349139072847682	8.27390728476821	-40.0121854304636	5.29403973509934				0.997827814569536	-0.241271523178808	-0.13594701986755	12.887417218543	118.866490066225	-4.68026490066225				0.240529801324503	-0.128529801324503	-0.453721854304636	25.7229139072848	-31.7364238410596	26.8243708609272				0.596026490066225	0.0354966887417219	0.117933774834437	-1.4482119205298	-37.7480794701987	24.8625165562914				0.239788079470199	-0.270834437086093	-0.420238410596026	-43.9396026490066	-14.6823841059603	-4.11470198675497			
115	2520	0.871841059602649	0.178754966887417	0.056476821192053	44.8333774834437	107.655364238411	20.9350993377483				0.544953642384106	0.0957880794701987	0.269139072847682	8.83390728476821	-47.8521854304636	-0.585960264900661				0.981827814569536	-0.353271523178808	-0.10394701986755	21.567417218543	97.0264900662252	3.43973509933775				0.272529801324503	-0.160529801324503	-0.549721854304636	36.9229139072848	-19.6964238410596	16.1843708609272				0.612026490066225	0.0674966887417219	0.149933774834437	-3.6882119205298	-39.4280794701987	18.9825165562914				0.271788079470199	-0.222834437086093	-0.532238410596027	-47.0196026490066	-17.4823841059603	-8.59470198675497			
116	2540	0.983841059602649	0.178754966887417	0.120476821192053	43.4333774834437	97.2953642384106	13.3750993377483				0.528953642384106	0.0957880794701987	0.221139072847682	-0.686092715231788	17.9478145695364	6.97403973509934				0.933827814569536	-0.337271523178808	-0.0559470198675496	14.847417218543	81.6264900662252	12.9597350993378				0.432529801324503	-0.224529801324503	-0.645721854304636	26.2829139072848	-19.9764238410596	6.94437086092715				0.740026490066225	0.0834966887417219	0.133933774834437	-1.1682119205298	-34.6680794701987	13.6625165562914				0.303788079470199	-0.174834437086093	-0.596238410596026	-32.1796026490066	-17.7623841059603	-8.87470198675497			
117	2560	1.07984105960265	0.146754966887417	0.152476821192053	43.4333774834437	76.5753642384106	7.21509933774835				0.864953642384106	0.0637880794701987	0.461139072847682	-14.6860927152318	39.7878145695364	7.81403973509934				0.901827814569536	-0.225271523178808	-0.0399470198675496	-16.512582781457	73.5064900662252	12.1197350993378				0.608529801324503	-0.272529801324503	-0.757721854304636	11.1629139072848	-35.6564238410596	8.90437086092715				0.788026490066225	0.115496688741722	0.213933774834437	3.0317880794702	-32.1480794701987	11.4225165562914				0.383788079470199	-0.222834437086093	-0.644238410596026	-15.9396026490066	-18.8823841059603	-8.59470198675497			
118	2580	1.06384105960265	0.0667549668874172	0.168476821192053	38.6733774834437	58.3753642384106	6.09509933774834				0.960953642384106	0.0317880794701987	0.429139072847682	-14.1260927152318	12.9078145695364	12.0140397350993				1.07782781456954	-0.113271523178808	0.0560529801324504	-36.112582781457	65.6664900662252	12.9597350993378				0.592529801324503	-0.384529801324503	-0.821721854304636	8.92291390728477	-36.2164238410596	8.90437086092715				0.852026490066225	0.115496688741722	0.197933774834437	6.1117880794702	-29.3480794701987	8.62251655629139				0.495788079470199	-0.286834437086093	-0.740238410596026	-9.49960264900662	-20.5623841059603	-8.03470198675497			
119	2600	0.983841059602649	-0.0612450331125828	0.184476821192053	39.5133774834437	54.1753642384106	6.37509933774834				0.896953642384106	-0.0162119205298013	0.301139072847682	-9.64609271523179	37.8278145695364	21.2540397350993				1.06182781456954	-0.00127152317880793	0.15205298013245	-32.752582781457	49.9864900662252	7.63973509933775				0.464529801324503	-0.384529801324503	-0.821721854304636	2.20291390728477	-36.2164238410596	5.26437086092715				0.868026490066225	0.0994966887417219	0.181933774834437	8.6317880794702	-15.6280794701987	7.22251655629139				0.575788079470199	-0.382834437086093	-0.804238410596027	1.14039735099338	-30.0823841059603	-4.39470198675497			
120	2620	0.903841059602649	-0.157245033112583	0.296476821192053	43.1533774834437	55.5753642384106	8.05509933774835				1.05695364238411	-0.0162119205298013	0.573139072847682	-11.8860927152318	26.0678145695364	20.4140397350993				1.10982781456954	0.0947284768211921	0.21605298013245	-16.232582781457	31.5064900662252	3.71973509933775				0.400529801324503	-0.224529801324503	-0.725721854304636	-8.71708609271523	-39.0164238410596	6.66437086092715				0.868026490066225	0.0674966887417219	0.261933774834437	7.5117880794702	-5.54807947019868	8.06251655629139				0.607788079470199	-0.494834437086093	-0.756238410596026	3.66039735099338	-36.2423841059603	-0.194701986754968			
121	2640	0.951841059602649	-0.221245033112583	0.392476821192053	34.7533774834437	58.6553642384106	6.37509933774834				0.992953642384106	-0.0482119205298013	0.445139072847682	1.83390728476821	-3.89218543046358	17.3340397350993				1.07782781456954	0.0467284768211921	0.10405298013245	5.88741721854305	22.2664900662252	2.03973509933775				0.384529801324503	-0.176529801324503	-0.709721854304636	2.20291390728477	-27.8164238410596	12.8243708609272				0.916026490066225	0.0834966887417219	0.245933774834437	-2.8482119205298	-1.06807947019868	8.90251655629139				0.575788079470199	-0.526834437086093	-0.724238410596026	-13.1396026490066	-37.6423841059603	10.725298013245			
122	2660	1.01584105960265	-0.221245033112583	0.536476821192053	20.7533774834437	59.7753642384106	8.89509933774834				0.928953642384106	0.0157880794701987	0.509139072847682	-2.64609271523179	-11.1721854304636	5.57403973509934				1.02982781456954	-0.0172715231788079	0.0880529801324504	13.447417218543	15.2664900662252	-2.72026490066225				0.400529801324503	-0.272529801324503	-0.725721854304636	12.5629139072848	-9.0564238410596	17.8643708609272				0.932026490066225	0.0194966887417219	0.245933774834437	-7.8882119205298	5.09192052980133	9.46251655629139				0.559788079470199	-0.478834437086093	-0.708238410596026	-20.1396026490066	-41.2823841059603	21.645298013245			
123	2680	0.983841059602649	-0.0932450331125828	0.536476821192053	-3.04662251655629	51.6553642384106	0.215099337748344				0.912953642384106	-0.0482119205298013	0.445139072847682	-0.966092715231788	-14.5321854304636	0.81403973509934				0.965827814569536	-0.0812715231788079	0.12005298013245	17.927417218543	14.9864900662252	-6.36026490066225				0.480529801324503	-0.256529801324503	-0.725721854304636	5.56291390728477	7.7435761589404	16.7443708609272				0.932026490066225	0.0514966887417219	0.261933774834437	-17.4082119205298	5.93192052980133	9.18251655629139				0.527788079470199	-0.462834437086093	-0.660238410596027	-25.7396026490066	-42.6823841059603	28.645298013245			
124	2700	0.999841059602649	-0.0132450331125828	0.344476821192053	-10.8866225165563	48.8553642384106	-6.78490066225166				0.896953642384106	-0.0962119205298013	0.445139072847682	-16.3660927152318	-18.4521854304636	-1.42596026490066				0.965827814569536	-0.113271523178808	0.16805298013245	23.807417218543	7.14649006622517	-9.16026490066225				0.512529801324503	-0.224529801324503	-0.741721854304636	-1.71708609271523	12.5035761589404	17.3043708609272				0.868026490066225	0.115496688741722	0.261933774834437	-23.2882119205298	4.53192052980133	9.74251655629139				0.511788079470199	-0.334834437086093	-0.612238410596026	-24.6196026490066	-38.7623841059603	26.125298013245			
125	2720	1.03184105960265	0.0347549668874172	0.232476821192053	-7.52662251655629	42.9753642384106	-6.78490066225166				0.848953642384106	0.0477880794701987	0.381139072847682	-20.2860927152318	-20.1321854304636	-5.06596026490066				0.965827814569536	-0.145271523178808	0.21605298013245	31.087417218543	4.06649006622517	-12.2402649006623				0.528529801324503	-0.224529801324503	-0.741721854304636	-9.55708609271523	7.1835761589404	17.5843708609272				0.820026490066225	0.0994966887417219	0.245933774834437	-18.5282119205298	7.89192052980133	11.7025165562914				0.479788079470199	-0.238834437086093	-0.596238410596026	2.54039735099338	-32.3223841059603	20.245298013245			
126	2740	1.01584105960265	0.0347549668874172	0.168476821192053	-5.84662251655629	24.7753642384106	-6.50490066225166				0.848953642384106	-0.000211920529801304	0.301139072847682	-13.0060927152318	-8.09218543046358	5.29403973509934				0.981827814569536	-0.129271523178808	0.26405298013245	31.3674172185431	-6.29350993377483	-11.6802649006622				0.560529801324503	-0.208529801324503	-0.725721854304636	-13.1970860927152	6.3435761589404	12.2643708609272				0.820026490066225	0.115496688741722	0.277933774834437	-13.7682119205298	16.2919205298013	11.1425165562914				0.367788079470199	-0.238834437086093	-0.580238410596026	24.9403973509934	-16.6423841059603	15.485298013245			
127	2760	0.983841059602649	-0.0132450331125828	0.152476821192053	1.15337748344371	3.7753642384106	-3.14490066225166				0.848953642384106	0.0157880794701987	0.445139072847682	-12.1660927152318	6.18781456953642	8.93403973509934				0.965827814569536	-0.129271523178808	0.26405298013245	24.3674172185431	-12.4535099337748	-12.5202649006623				0.592529801324503	-0.176529801324503	-0.677721854304636	-5.91708609271523	7.7435761589404	9.18437086092715				0.836026490066225	0.0994966887417219	0.293933774834437	-8.4482119205298	22.7319205298013	8.90251655629139				0.303788079470199	-0.286834437086093	-0.564238410596026	26.9003973509934	2.39761589403974	9.88529801324503			
128	2780	0.919841059602649	-0.0132450331125828	0.120476821192053	1.71337748344371	-9.38463576158941	1.33509933774834				0.880953642384106	0.111788079470199	0.381139072847682	-11.6060927152318	0.307814569536424	9.21403973509934				0.981827814569536	-0.129271523178808	0.26405298013245	30.5274172185431	-17.4935099337748	-12.8002649006623				0.624529801324503	-0.224529801324503	-0.661721854304636	-3.11708609271523	8.8635761589404	7.22437086092715				0.884026490066225	0.0834966887417219	0.277933774834437	-1.4482119205298	20.4919205298013	7.78251655629139				0.335788079470199	-0.382834437086093	-0.628238410596026	28.5803973509934	12.4776158940397	6.24529801324503			
129	2800	0.935841059602649	-0.0132450331125828	0.184476821192053	10.6733774834437	-8.26463576158941	3.57509933774835				0.912953642384106	0.0957880794701987	0.333139072847682	-14.1260927152318	1.70781456953642	8.37403973509934				0.965827814569536	-0.113271523178808	0.23205298013245	27.727417218543	-18.8935099337748	-9.44026490066225				0.592529801324503	-0.272529801324503	-0.677721854304636	-13.1970860927152	10.2635761589404	5.26437086092715				0.900026490066225	0.115496688741722	0.277933774834437	-5.3682119205298	19.6519205298013	5.54251655629139				0.399788079470199	-0.446834437086093	-0.692238410596026	23.8203973509934	19.4776158940397	5.68529801324503			
130	2820	0.999841059602649	-0.0132450331125828	0.312476821192053	14.3133774834437	-1.8246357615894	4.69509933774834				0.944953642384106	0.0157880794701987	0.349139072847682	-19.7260927152318	4.22781456953642	9.49403973509934				0.965827814569536	-0.0652715231788079	0.24805298013245	11.207417218543	-13.0135099337748	-3.28026490066225				0.528529801324503	-0.240529801324503	-0.725721854304636	-16.2770860927152	18.3835761589404	4.14437086092715				0.932026490066225	0.0674966887417219	0.293933774834437	-5.0882119205298	22.1719205298013	3.30251655629139				0.479788079470199	-0.478834437086093	-0.756238410596026	23.5403973509934	20.0376158940397	10.725298013245			
131	2840	0.999841059602649	0.00275496688741723	0.376476821192053	8.15337748344371	1.8153642384106	0.775099337748344				0.976953642384106	-0.0482119205298013	0.381139072847682	-20.0060927152318	11.5078145695364	6.97403973509934				0.949827814569536	-0.0812715231788079	0.23205298013245	3.64741721854305	-10.2135099337748	-1.04026490066225				0.576529801324503	-0.256529801324503	-0.741721854304636	-9.55708609271523	21.7435761589404	5.54437086092715				0.948026490066225	0.0354966887417219	0.309933774834437	-3.9682119205298	22.4519205298013	3.58251655629139				0.479788079470199	-0.526834437086093	-0.772238410596026	14.8603973509934	11.6376158940397	21.365298013245			
132	2860	0.967841059602649	0.0187549668874172	0.408476821192053	6.19337748344371	0.695364238410596	-3.98490066225166				0.960953642384106	-0.0802119205298013	0.461139072847682	-21.6860927152318	14.5878145695364	5.85403973509934				0.933827814569536	-0.113271523178808	0.15205298013245	-1.67258278145695	-5.73350993377484	-1.32026490066225				0.656529801324503	-0.256529801324503	-0.757721854304636	-11.5170860927152	14.4635761589404	7.50437086092715				0.948026490066225	0.0354966887417219	0.341933774834437	-3.1282119205298	24.1319205298013	2.18251655629139				0.463788079470199	-0.478834437086093	-0.740238410596026	6.74039735099338	6.87761589403974	25.285298013245			
133	2880	0.967841059602649	0.0187549668874172	0.360476821192053	-1.36662251655629	-2.1046357615894	-5.10490066225166				0.976953642384106	-0.0802119205298013	0.365139072847682	-20.0060927152318	5.90781456953642	7.53403973509934				0.965827814569536	-0.0812715231788079	0.12005298013245	-2.51258278145695	-3.49350993377483	-2.72026490066225				0.704529801324503	-0.256529801324503	-0.773721854304636	-10.9570860927152	6.6235761589404	9.18437086092715				0.980026490066225	0.0194966887417219	0.357933774834437	-3.9682119205298	21.0519205298013	1.90251655629139				0.511788079470199	-0.414834437086093	-0.740238410596026	11.5003973509934	6.87761589403974	16.605298013245			
134	2900	0.983841059602649	0.0187549668874172	0.312476821192053	-13.4066225165563	-2.6646357615894	-5.38490066225166				1.00895364238411	0.0477880794701987	0.141139072847682	-18.6060927152318	3.94781456953642	5.57403973509934				1.01382781456954	-0.0332715231788079	0.12005298013245	-2.79258278145695	0.146490066225167	-1.32026490066225				0.640529801324503	-0.304529801324503	-0.741721854304636	-5.35708609271523	-0.0964238410596001	11.7043708609272				0.980026490066225	0.0194966887417219	0.357933774834437	0.791788079470198	15.4519205298013	3.02251655629139				0.495788079470199	-0.462834437086093	-0.772238410596026	18.5003973509934	3.79761589403974	4.84529801324503			
135	2920	0.951841059602649	0.0347549668874172	0.312476821192053	-20.9666225165563	1.2553642384106	-3.14490066225166				0.976953642384106	0.0157880794701987	0.205139072847682	-18.8860927152318	13.1878145695364	4.45403973509934				0.997827814569536	-0.0492715231788079	0.12005298013245	-0.272582781456954	-1.53350993377483	0.91973509933775				0.544529801324503	-0.320529801324503	-0.741721854304636	-6.19708609271523	0.1835761589404	16.4643708609272				0.980026490066225	0.0354966887417219	0.277933774834437	-1.1682119205298	10.1319205298013	3.86251655629139				0.463788079470199	-0.510834437086093	-0.756238410596026	18.5003973509934	-0.122384105960265	-0.754701986754968			
136	2940	0.951841059602649	-0.0132450331125828	0.296476821192053	-21.2466225165563	4.8953642384106	-1.74490066225166				0	0	0	0	0	0				0	0	0	0	0	0				0.496529801324503	-0.256529801324503	-0.741721854304636	-9.55708609271523	6.3435761589404	17.3043708609272				0.964026490066225	0.0354966887417219	0.261933774834437	-0.888211920529802	10.4119205298013	3.86251655629139				0	0	0	0	0	0			
137	3040	0	0	0	0	0	0				0	0	0	0	0	0				0	0	0	0	0	0				0.496529801324503	-0.256529801324503	-0.757721854304636	-12.9170860927152	4.6635761589404	7.50437086092715				0.948026490066225	0.0194966887417219	0.245933774834437	-9.0082119205298	12.3719205298013	-5.37748344370861				0.399788079470199	-0.446834437086093	-0.724238410596026	-0.259602649006623	-0.402384105960265	14.365298013245			
138	3060	0	0	0	0	0	0				0.976953642384106	0.0637880794701987	0.317139072847682	10.5139072847682	7.58781456953643	1.09403973509934				1.01382781456954	0.0147284768211921	-0.0879470198675496	3.64741721854305	6.30649006622517	0.35973509933775				0.544529801324503	-0.256529801324503	-0.773721854304636	-12.9170860927152	4.1035761589404	9.18437086092715				0.948026490066225	0.0194966887417219	0.309933774834437	-5.3682119205298	13.2119205298013	-5.09748344370861				0.543788079470199	-0.366834437086093	-0.708238410596026	7.30039735099338	-2.64238410596027	-9.43470198675497			
139	3080	0.983841059602649	0.0507549668874172	0.184476821192053	4.79337748344371	-2.1046357615894	0.215099337748344				0.976953642384106	0.0477880794701987	0.301139072847682	13.0339072847682	4.22781456953642	0.53403973509934				1.01382781456954	0.0147284768211921	-0.0559470198675496	4.48741721854305	5.74649006622517	0.0797350993377501				0.560529801324503	-0.288529801324503	-0.757721854304636	-2.55708609271523	-1.2164238410596	-6.21562913907285				0.964026490066225	0.0194966887417219	0.277933774834437	-8.4482119205298	7.89192052980133	-3.69748344370861				0.399788079470199	-0.430834437086093	-0.740238410596026	2.54039735099338	9.95761589403974	8.76529801324503			
140	3100	0.983841059602649	-0.0292450331125828	0.184476821192053	-15.0866225165563	-5.7446357615894	-2.02490066225166				0.992953642384106	-0.0162119205298013	0.317139072847682	-13.2860927152318	15.1478145695364	0.81403973509934				0.965827814569536	-0.0492715231788079	-0.00794701986754963	-16.512582781457	3.22649006622517	7.35973509933775				0.560529801324503	-0.240529801324503	-0.773721854304636	-13.1970860927152	1.8635761589404	8.90437086092715				0.964026490066225	0.0354966887417219	0.293933774834437	-6.4882119205298	6.49192052980132	-4.25748344370861				0.415788079470199	-0.478834437086093	-0.756238410596026	1.42039735099338	12.7576158940397	7.36529801324503			
141	3120	0.967841059602649	-0.0452450331125828	0.216476821192053	-17.8866225165563	-4.0646357615894	-0.904900662251656				1.00895364238411	-0.0322119205298013	0.333139072847682	-10.4860927152318	8.14781456953643	0.53403973509934				0.965827814569536	-0.0492715231788079	-0.00794701986754963	-10.912582781457	1.26649006622517	7.35973509933775				0.544529801324503	-0.240529801324503	-0.773721854304636	-5.63708609271523	2.1435761589404	8.62437086092715				0.964026490066225	0.0194966887417219	0.293933774834437	-6.2082119205298	2.29192052980133	-3.41748344370861				0.431788079470199	-0.478834437086093	-0.772238410596026	-0.819602649006623	9.95761589403974	5.68529801324503			
142	3140	0.951841059602649	-0.0452450331125828	0.200476821192053	-16.2066225165563	-2.3846357615894	-0.624900662251656				0.976953642384106	-0.0162119205298013	0.253139072847682	-9.36609271523179	2.54781456953642	-0.0259602649006601				0.965827814569536	-0.0332715231788079	-0.0399470198675496	-7.55258278145695	0.146490066225167	5.95973509933775				0.528529801324503	-0.240529801324503	-0.773721854304636	-3.67708609271523	1.5835761589404	7.22437086092715				0.948026490066225	0.0354966887417219	0.293933774834437	-6.4882119205298	1.45192052980132	-2.85748344370861				0.431788079470199	-0.462834437086093	-0.772238410596026	0.860397350993377	6.59761589403974	4.28529801324503			
143	3160	0.967841059602649	-0.0452450331125828	0.200476821192053	-10.0466225165563	0.415364238410596	-0.0649006622516557				0.976953642384106	-0.000211920529801304	0.237139072847682	-8.80609271523179	4.22781456953642	-1.14596026490066				0.981827814569536	-0.0492715231788079	-0.0559470198675496	-10.912582781457	-0.973509933774833	3.99973509933775				0.512529801324503	-0.256529801324503	-0.725721854304636	-9.27708609271523	-1.4964238410596	5.54437086092715				0.948026490066225	0.0354966887417219	0.293933774834437	-5.9282119205298	1.73192052980133	-2.01748344370861				0.431788079470199	-0.446834437086093	-0.772238410596026	0.860397350993377	1.83761589403974	3.72529801324503			
144	3180	0.967841059602649	-0.0132450331125828	0.200476821192053	-8.08662251655629	2.6553642384106	-1.46490066225166				0.992953642384106	-0.000211920529801304	0.301139072847682	-8.24609271523179	6.46781456953642	-2.54596026490066				0.965827814569536	-0.0492715231788079	-0.0559470198675496	-10.912582781457	3.50649006622517	2.87973509933775				0.528529801324503	-0.224529801324503	-0.741721854304636	-7.59708609271523	-0.0964238410596001	5.54437086092715				0.948026490066225	0.0354966887417219	0.293933774834437	-7.3282119205298	1.45192052980132	-2.01748344370861				0.415788079470199	-0.462834437086093	-0.772238410596026	-0.259602649006623	-0.122384105960265	4.28529801324503			
145	3200	0.951841059602649	0.0187549668874172	0.200476821192053	-5.84662251655629	3.2153642384106	-0.624900662251656				0.976953642384106	-0.000211920529801304	0.349139072847682	-1.24609271523179	0.867814569536424	-1.70596026490066				0.981827814569536	-0.0492715231788079	-0.0559470198675496	-6.43258278145695	4.90649006622517	0.91973509933775				0.528529801324503	-0.240529801324503	-0.757721854304636	1.08291390728477	4.9435761589404	6.10437086092715				0.964026490066225	0.0514966887417219	0.277933774834437	-9.5682119205298	0.0519205298013249	-0.897483443708608				0.399788079470199	-0.446834437086093	-0.756238410596026	-1.37960264900662	0.997615894039735	4.00529801324503			
146	3220	0.967841059602649	-0.0292450331125828	0.216476821192053	-2.76662251655629	3.4953642384106	0.215099337748344				0.960953642384106	-0.000211920529801304	0.301139072847682	2.11390728476821	-5.57218543046358	-1.70596026490066				0.981827814569536	-0.0652715231788079	-0.0399470198675496	-2.23258278145695	3.78649006622517	-0.76026490066225				0.496529801324503	-0.272529801324503	-0.773721854304636	3.04291390728477	8.8635761589404	5.26437086092715				0.932026490066225	0.0514966887417219	0.261933774834437	-4.5282119205298	0.611920529801325	-1.17748344370861				0.383788079470199	-0.414834437086093	-0.756238410596026	-2.77960264900662	4.91761589403974	5.12529801324503			
147	3240	0.983841059602649	-0.0292450331125828	0.216476821192053	0.313377483443709	2.6553642384106	0.495099337748344				0.960953642384106	0.0157880794701987	0.269139072847682	1.27390728476821	-3.89218543046358	-1.98596026490066				0.997827814569536	-0.0652715231788079	-0.0239470198675496	0.287417218543046	2.10649006622517	-1.60026490066225				0.512529801324503	-0.272529801324503	-0.789721854304636	-0.877086092715232	7.7435761589404	5.54437086092715				0.932026490066225	0.0514966887417219	0.261933774834437	-3.6882119205298	0.891920529801325	-0.897483443708608				0.383788079470199	-0.414834437086093	-0.740238410596026	-4.17960264900662	6.87761589403974	5.12529801324503			
148	3260	0.967841059602649	-0.0292450331125828	0.200476821192053	1.43337748344371	0.695364238410596	0.495099337748344				0.960953642384106	-0.0162119205298013	0.301139072847682	1.27390728476821	-1.09218543046358	-0.86596026490066				0.997827814569536	-0.0972715231788079	-0.0399470198675496	4.48741721854305	0.146490066225167	-1.88026490066225				0.512529801324503	-0.256529801324503	-0.805721854304636	-1.43708609271523	5.2235761589404	5.54437086092715				0.932026490066225	0.0354966887417219	0.261933774834437	-3.4082119205298	1.17192052980133	-1.17748344370861				0.415788079470199	-0.414834437086093	-0.756238410596026	-5.29960264900662	7.15761589403974	3.72529801324503			
149	3280	0.951841059602649	-0.0292450331125828	0.200476821192053	6.19337748344371	0.415364238410596	0.215099337748344				0.960953642384106	-0.0322119205298013	0.301139072847682	4.35390728476821	-2.49218543046358	-0.0259602649006601				0.981827814569536	-0.0972715231788079	-0.0239470198675496	6.44741721854305	-1.25350993377483	-2.72026490066225				0.512529801324503	-0.288529801324503	-0.789721854304636	-5.63708609271523	-1.2164238410596	3.02437086092715				0.932026490066225	0.0194966887417219	0.277933774834437	-3.4082119205298	0.611920529801325	-2.57748344370861				0.399788079470199	-0.382834437086093	-0.772238410596026	-1.93960264900662	5.47761589403974	-1.59470198675497			
150	3300	0.951841059602649	-0.0292450331125828	0.216476821192053	5.63337748344371	3.4953642384106	-0.0649006622516557				0.960953642384106	-0.0162119205298013	0.301139072847682	3.51390728476821	0.587814569536424	-0.30596026490066				0.981827814569536	-0.0972715231788079	0.00805298013245037	6.16741721854305	-1.81350993377483	-2.72026490066225				0.496529801324503	-0.272529801324503	-0.773721854304636	-8.15708609271523	-2.3364238410596	2.46437086092715				0.948026490066225	0.0354966887417219	0.261933774834437	-3.9682119205298	0.331920529801325	-3.13748344370861				0.383788079470199	-0.398834437086093	-0.788238410596027	2.54039735099338	4.91761589403974	-6.35470198675497			
151	3320	0.967841059602649	-0.0292450331125828	0.216476821192053	2.55337748344371	3.7753642384106	-0.344900662251656				0.976953642384106	0.0157880794701987	0.301139072847682	3.23390728476821	-1.37218543046358	0.25403973509934				0.981827814569536	-0.113271523178808	0.00805298013245037	5.60741721854305	-4.05350993377483	-1.60026490066225				0.480529801324503	-0.256529801324503	-0.757721854304636	-1.99708609271523	0.7435761589404	4.14437086092715				0.948026490066225	0.0514966887417219	0.229933774834437	-2.8482119205298	0.331920529801325	-2.57748344370861				0.399788079470199	-0.430834437086093	-0.788238410596027	1.70039735099338	3.51761589403974	-5.23470198675497			
152	3340	0.999841059602649	-0.0452450331125828	0.216476821192053	3.39337748344371	2.3753642384106	-0.344900662251656				0.960953642384106	-0.000211920529801304	0.269139072847682	6.03390728476821	-5.57218543046358	0.25403973509934				0.981827814569536	-0.0972715231788079	0.0240529801324504	8.12741721854305	-5.45350993377483	-1.88026490066225				0.496529801324503	-0.224529801324503	-0.741721854304636	1.08291390728477	6.3435761589404	4.70437086092715				0.916026490066225	0.0514966887417219	0.245933774834437	3.0317880794702	2.29192052980133	-1.17748344370861				0.415788079470199	-0.446834437086093	-0.788238410596027	-1.93960264900662	0.717615894039735	-2.71470198675497			
153	3360	0.983841059602649	-0.0132450331125828	0.184476821192053	2.83337748344371	-0.144635761589404	-1.18490066225166				0.960953642384106	-0.0162119205298013	0.269139072847682	6.87390728476821	0.307814569536424	0.81403973509934				0.981827814569536	-0.0812715231788079	0.0240529801324504	10.367417218543	-3.49350993377483	-2.44026490066225				0.480529801324503	-0.240529801324503	-0.773721854304636	-0.317086092715232	5.5035761589404	3.86437086092715				0.932026490066225	0.0354966887417219	0.261933774834437	1.0717880794702	2.29192052980133	-1.17748344370861				0.399788079470199	-0.414834437086093	-0.772238410596026	-3.61960264900662	-2.08238410596027	-1.03470198675497			
154	3380	0.951841059602649	-0.0132450331125828	0.168476821192053	2.83337748344371	-2.6646357615894	-0.904900662251656				0.960953642384106	-0.0162119205298013	0.333139072847682	5.19390728476821	1.14781456953642	0.53403973509934				0.965827814569536	-0.0812715231788079	0.0400529801324504	10.367417218543	-0.973509933774833	-1.88026490066225				0.496529801324503	-0.256529801324503	-0.789721854304636	-1.15708609271523	1.8635761589404	2.18437086092715				0.932026490066225	0.0354966887417219	0.261933774834437	0.511788079470198	0.611920529801325	0.222516556291392				0.383788079470199	-0.398834437086093	-0.772238410596026	-3.33960264900662	-1.24238410596026	-0.194701986754968			
155	3400	0.967841059602649	-0.0452450331125828	0.168476821192053	4.23337748344371	-2.1046357615894	-0.0649006622516557				0.960953642384106	-0.0162119205298013	0.285139072847682	4.63390728476821	-1.93218543046358	0.53403973509934				0.965827814569536	-0.113271523178808	0.0400529801324504	6.16741721854305	0.706490066225167	-1.04026490066225				0.496529801324503	-0.272529801324503	-0.789721854304636	-0.317086092715232	2.7035761589404	1.34437086092715				0.948026490066225	0.0354966887417219	0.245933774834437	2.1917880794702	1.17192052980133	-0.897483443708608				0.399788079470199	-0.398834437086093	-0.772238410596026	-0.539602649006623	-0.962384105960265	-0.194701986754968			
156	3420	0.967841059602649	-0.0452450331125828	0.200476821192053	5.07337748344371	-1.2646357615894	-0.624900662251656				0.944953642384106	-0.0162119205298013	0.285139072847682	3.51390728476821	-0.252185430463576	0.53403973509934				0.981827814569536	-0.0972715231788079	0.0560529801324504	3.92741721854305	0.426490066225167	-0.48026490066225				0.496529801324503	-0.272529801324503	-0.789721854304636	1.92291390728477	2.7035761589404	1.62437086092715				0.916026490066225	0.0194966887417219	0.261933774834437	5.2717880794702	0.611920529801325	-0.617483443708608				0.399788079470199	-0.414834437086093	-0.756238410596026	1.42039735099338	-0.962384105960265	-1.59470198675497			
157	3440	0.967841059602649	-0.0452450331125828	0.200476821192053	2.27337748344371	0.135364238410596	-1.18490066225166				0.960953642384106	-0.0162119205298013	0.285139072847682	2.11390728476821	-2.49218543046358	0.53403973509934				0.981827814569536	-0.0972715231788079	0.0400529801324504	2.52741721854305	-0.693509933774834	-1.32026490066225				0.464529801324503	-0.272529801324503	-0.789721854304636	-0.317086092715232	2.1435761589404	0.224370860927152				0.916026490066225	0.0194966887417219	0.261933774834437	3.3117880794702	1.17192052980133	-0.0574834437086077				0.399788079470199	-0.398834437086093	-0.756238410596026	2.54039735099338	-0.962384105960265	-3.83470198675497			
158	3460	0.951841059602649	-0.0292450331125828	0.200476821192053	-1.08662251655629	0.135364238410596	-2.58490066225166				0.944953642384106	-0.0322119205298013	0.269139072847682	0.153907284768212	-1.09218543046358	1.37403973509934				0.981827814569536	-0.113271523178808	0.0400529801324504	-0.832582781456954	0.706490066225167	-0.76026490066225				0.464529801324503	-0.256529801324503	-0.773721854304636	-3.95708609271523	-0.9364238410596	-1.45562913907285				0.932026490066225	0.0354966887417219	0.245933774834437	1.6317880794702	2.29192052980133	-2.01748344370861				0.383788079470199	-0.398834437086093	-0.756238410596026	3.10039735099338	-0.682384105960265	-5.79470198675497			
159	3480	0.967841059602649	-0.0132450331125828	0.184476821192053	-4.44662251655629	-0.704635761589404	-3.98490066225166				0.960953642384106	-0.0162119205298013	0.285139072847682	-1.24609271523179	2.26781456953642	0.81403973509934				0.981827814569536	-0.0972715231788079	0.0240529801324504	-3.91258278145695	0.706490066225167	-1.32026490066225				0.480529801324503	-0.256529801324503	-0.773721854304636	-1.99708609271523	1.3035761589404	-0.335629139072848				0.964026490066225	0.0354966887417219	0.261933774834437	-0.0482119205298018	1.17192052980133	-1.17748344370861				0.415788079470199	-0.430834437086093	-0.772238410596026	3.38039735099338	0.157615894039735	-5.79470198675497			
160	3500	0.967841059602649	-0.0292450331125828	0.200476821192053	-5.00662251655629	-0.424635761589404	-3.42490066225166				0.960953642384106	-0.000211920529801304	0.301139072847682	-2.36609271523179	3.10781456953642	0.81403973509934				0.981827814569536	-0.0812715231788079	0.0240529801324504	-3.91258278145695	0.426490066225167	-1.32026490066225				0.480529801324503	-0.256529801324503	-0.773721854304636	2.76291390728477	4.3835761589404	0.784370860927152				0.948026490066225	0.0354966887417219	0.245933774834437	-0.328211920529802	1.17192052980133	0.222516556291392				0.415788079470199	-0.430834437086093	-0.772238410596026	1.70039735099338	-0.122384105960265	-3.83470198675497			
161	3520	0.983841059602649	-0.0452450331125828	0.200476821192053	-1.92662251655629	-0.424635761589404	-2.02490066225166				0.976953642384106	-0.000211920529801304	0.285139072847682	-0.966092715231788	1.14781456953642	1.09403973509934				0.997827814569536	-0.0652715231788079	0.0240529801324504	-1.67258278145695	-0.133509933774833	-1.04026490066225				0.480529801324503	-0.272529801324503	-0.773721854304636	5.00291390728477	4.6635761589404	0.784370860927152				0.948026490066225	0.0354966887417219	0.245933774834437	-0.328211920529802	0.331920529801325	-0.0574834437086077				0.415788079470199	-0.414834437086093	-0.772238410596026	1.42039735099338	-0.122384105960265	-2.43470198675497			
162	3540	0.967841059602649	-0.0292450331125828	0.216476821192053	-2.48662251655629	0.695364238410596	-1.74490066225166				0.960953642384106	-0.000211920529801304	0.285139072847682	-0.966092715231788	3.10781456953642	0.25403973509934				0.997827814569536	-0.0812715231788079	0.00805298013245037	-0.832582781456954	1.26649006622517	-1.32026490066225				0.480529801324503	-0.256529801324503	-0.773721854304636	3.60291390728477	3.2635761589404	1.06437086092715				0.932026490066225	0.0514966887417219	0.245933774834437	-2.0082119205298	0.891920529801325	-0.0574834437086077				0.415788079470199	-0.398834437086093	-0.772238410596026	3.10039735099338	0.717615894039735	-1.31470198675497			
163	3560	0.967841059602649	-0.0132450331125828	0.216476821192053	-2.76662251655629	0.415364238410596	-2.58490066225166				0.944953642384106	-0.000211920529801304	0.301139072847682	-1.52609271523179	3.38781456953642	-0.0259602649006601				0.981827814569536	-0.0812715231788079	0.00805298013245037	-2.51258278145695	0.706490066225167	0.0797350993377501				0.496529801324503	-0.256529801324503	-0.805721854304636	-1.43708609271523	-0.9364238410596	-0.615629139072848				0.932026490066225	0.0514966887417219	0.245933774834437	-1.1682119205298	2.57192052980133	1.34251655629139				0.415788079470199	-0.382834437086093	-0.756238410596026	4.50039735099338	0.717615894039735	-1.31470198675497			
