No	Time	12-AccX	12-AccY	12-AccZ	12-GyroX	12-GyroY	12-GyroZ	13-AccX	13-AccY	13-AccZ	13-GyroX	13-GyroY	13-GyroZ	14-AccX	14-AccY	14-AccZ	14-GyroX	14-GyroY	14-GyroZ	15-AccX	15-AccY	15-AccZ	15-GyroX	15-GyroY	15-GyroZ	16-AccX	16-AccY	16-AccZ	16-GyroX	16-GyroY	16-GyroZ	17-AccX	17-AccY	17-AccZ	17-GyroX	17-GyroY	17-GyroZ
0	120	0	0	0	0	0	0				0	0	0	0	0	0				-0.202172185430464	-0.177271523178808	-0.88794701986755	1.12741721854305	0.426490066225167	-0.76026490066225				0.624529801324503	-0.192529801324503	-0.725721854304636	3.04291390728477	1.3035761589404	-0.335629139072848				0.948026490066225	0.0994966887417219	0.245933774834437	1.3517880794702	-1.62807947019868	-0.0574834437086077				0.607788079470199	-0.0628344370860927	-0.756238410596026	-0.819602649006623	2.11761589403974	-1.59470198675497			
1	140	-0.168158940397351	0.162754966887417	-0.951523178807947	0.0333774834437086	1.2553642384106	-0.624900662251656				0.944953642384106	0.175788079470199	0.269139072847682	-0.686092715231788	5.34781456953642	-0.0259602649006601				-0.202172185430464	-0.161271523178808	-0.88794701986755	2.24741721854305	-0.133509933774833	-0.20026490066225				0.624529801324503	-0.208529801324503	-0.725721854304636	1.36291390728477	0.4635761589404	-0.335629139072848				0.948026490066225	0.0994966887417219	0.229933774834437	1.9117880794702	-1.90807947019868	0.782516556291392				0.607788079470199	-0.0628344370860927	-0.740238410596026	-1.37960264900662	0.997615894039735	-0.474701986754968			
2	160	-0.168158940397351	0.162754966887417	-0.951523178807947	-0.806622516556291	1.2553642384106	-0.904900662251656				0.944953642384106	0.191788079470199	0.269139072847682	-1.52609271523179	5.34781456953642	-0.30596026490066				-0.186172185430464	-0.193271523178808	-0.88794701986755	0.287417218543046	0.706490066225167	0.63973509933775				0.624529801324503	-0.208529801324503	-0.725721854304636	-0.0370860927152318	-0.3764238410596	-0.615629139072848				0.932026490066225	0.0834966887417219	0.229933774834437	2.4717880794702	-0.508079470198675	0.222516556291392				0.607788079470199	-0.0628344370860927	-0.740238410596026	-0.819602649006623	-0.682384105960265	0.0852980132450323			
3	180	-0.168158940397351	0.162754966887417	-0.919523178807947	0.593377483443709	0.695364238410596	-1.46490066225166				0.960953642384106	0.175788079470199	0.285139072847682	-0.406092715231788	5.34781456953642	0.53403973509934				-0.202172185430464	-0.177271523178808	-0.87194701986755	0.567417218543046	0.426490066225167	-1.04026490066225				0.624529801324503	-0.208529801324503	-0.725721854304636	0.242913907284768	-0.9364238410596	-1.45562913907285				0.948026490066225	0.0834966887417219	0.229933774834437	0.511788079470198	-1.34807947019868	-1.17748344370861				0.591788079470199	-0.0628344370860927	-0.740238410596026	-0.819602649006623	-0.122384105960265	-0.194701986754968			
4	200	-0.168158940397351	0.162754966887417	-0.935523178807947	0.593377483443709	0.135364238410596	-0.344900662251656				0.944953642384106	0.175788079470199	0.269139072847682	0.153907284768212	4.78781456953642	0.53403973509934				-0.202172185430464	-0.177271523178808	-0.87194701986755	2.52741721854305	-0.133509933774833	-1.04026490066225				0.608529801324503	-0.192529801324503	-0.709721854304636	0.522913907284768	-0.3764238410596	-0.895629139072848				0.932026490066225	0.0834966887417219	0.229933774834437	-0.608211920529802	-1.90807947019868	-0.337483443708608				0.607788079470199	-0.0628344370860927	-0.740238410596026	-0.819602649006623	0.157615894039735	-0.754701986754968			
5	220	-0.152158940397351	0.162754966887417	-0.951523178807947	0.0333774834437086	-0.144635761589404	-0.624900662251656				0.960953642384106	0.175788079470199	0.285139072847682	-0.406092715231788	4.78781456953642	0.25403973509934				-0.186172185430464	-0.177271523178808	-0.88794701986755	1.68741721854305	-0.133509933774833	-0.20026490066225				0.608529801324503	-0.192529801324503	-0.725721854304636	0.242913907284768	-1.4964238410596	-0.615629139072848				0.932026490066225	0.0834966887417219	0.245933774834437	1.0717880794702	-0.508079470198675	-0.617483443708608				0.591788079470199	-0.0628344370860927	-0.724238410596026	-0.539602649006623	0.717615894039735	-1.03470198675497			
6	240	-0.152158940397351	0.162754966887417	-0.951523178807947	0.0333774834437086	0.975364238410596	-1.18490066225166				0.944953642384106	0.175788079470199	0.269139072847682	-1.24609271523179	4.50781456953642	-0.585960264900661				-0.186172185430464	-0.177271523178808	-0.87194701986755	1.40741721854305	0.426490066225167	-0.48026490066225				0.608529801324503	-0.192529801324503	-0.725721854304636	-0.317086092715232	-0.6564238410596	-1.17562913907285				0.916026490066225	0.0834966887417219	0.229933774834437	0.791788079470198	-2.46807947019868	-0.0574834437086077				0.607788079470199	-0.0628344370860927	-0.724238410596026	-1.37960264900662	0.997615894039735	-0.194701986754968			
7	260	-0.152158940397351	0.146754966887417	-0.935523178807947	0.313377483443709	0.135364238410596	-0.624900662251656				0.944953642384106	0.175788079470199	0.301139072847682	-1.80609271523179	6.18781456953642	-0.0259602649006601				-0.202172185430464	-0.193271523178808	-0.87194701986755	0.847417218543046	-0.413509933774833	-0.48026490066225				0.608529801324503	-0.192529801324503	-0.709721854304636	-0.317086092715232	0.1835761589404	-0.335629139072848				0.948026490066225	0.0994966887417219	0.229933774834437	-2.0082119205298	-1.34807947019868	-1.17748344370861				0.591788079470199	-0.0628344370860927	-0.740238410596026	-0.539602649006623	0.717615894039735	-1.59470198675497			
8	280	-0.168158940397351	0.162754966887417	-0.951523178807947	0.593377483443709	-0.704635761589404	-0.624900662251656				0.960953642384106	0.175788079470199	0.301139072847682	-0.126092715231788	3.94781456953642	1.09403973509934				-0.186172185430464	-0.193271523178808	-0.87194701986755	0.847417218543046	-0.973509933774833	-0.20026490066225				0.608529801324503	-0.192529801324503	-0.725721854304636	-0.0370860927152318	0.1835761589404	-0.895629139072848				0.948026490066225	0.0834966887417219	0.229933774834437	-0.608211920529802	-1.62807947019868	-0.617483443708608				0.591788079470199	-0.0628344370860927	-0.740238410596026	-0.539602649006623	0.997615894039735	-1.59470198675497			
9	300	-0.168158940397351	0.162754966887417	-0.951523178807947	-0.806622516556291	-0.144635761589404	-1.18490066225166				0.944953642384106	0.175788079470199	0.285139072847682	-0.126092715231788	3.66781456953642	0.81403973509934				-0.202172185430464	-0.193271523178808	-0.88794701986755	0.287417218543046	-0.133509933774833	0.0797350993377501				0.608529801324503	-0.192529801324503	-0.709721854304636	0.242913907284768	-0.0964238410596001	0.224370860927152				0.948026490066225	0.0994966887417219	0.229933774834437	0.231788079470198	-1.62807947019868	0.222516556291392				0.591788079470199	-0.0628344370860927	-0.740238410596026	-0.819602649006623	0.997615894039735	-1.31470198675497			
10	320	-0.184158940397351	0.162754966887417	-0.951523178807947	0.313377483443709	0.415364238410596	-0.904900662251656				0.944953642384106	0.191788079470199	0.285139072847682	-1.52609271523179	2.54781456953642	-1.98596026490066				-0.202172185430464	-0.193271523178808	-0.88794701986755	1.96741721854305	-0.133509933774833	-0.48026490066225				0.624529801324503	-0.192529801324503	-0.709721854304636	-0.0370860927152318	-0.6564238410596	-1.17562913907285				0.948026490066225	0.0994966887417219	0.229933774834437	-0.888211920529802	-1.34807947019868	0.222516556291392				0.591788079470199	-0.0628344370860927	-0.740238410596026	-1.09960264900662	1.55761589403974	-1.59470198675497			
11	340	-0.168158940397351	0.162754966887417	-0.935523178807947	0.0333774834437086	0.415364238410596	-1.18490066225166				0.944953642384106	0.191788079470199	0.285139072847682	-2.08609271523179	2.82781456953642	-1.42596026490066				-0.186172185430464	-0.193271523178808	-0.88794701986755	2.52741721854305	0.146490066225167	-0.76026490066225				0.624529801324503	-0.192529801324503	-0.725721854304636	0.802913907284768	0.7435761589404	-0.335629139072848				0.964026490066225	0.0834966887417219	0.229933774834437	-0.328211920529802	-2.18807947019868	-0.337483443708608				0.607788079470199	-0.0468344370860927	-0.740238410596026	-0.259602649006623	1.27761589403974	-2.15470198675497			
12	360	-0.168158940397351	0.162754966887417	-0.935523178807947	0.0333774834437086	0.135364238410596	-1.46490066225166				0.944953642384106	0.175788079470199	0.301139072847682	-0.686092715231788	4.22781456953642	0.25403973509934				-0.186172185430464	-0.177271523178808	-0.87194701986755	0.847417218543046	0.706490066225167	0.35973509933775				0.624529801324503	-0.208529801324503	-0.725721854304636	2.48291390728477	2.1435761589404	-0.895629139072848				0.948026490066225	0.0994966887417219	0.229933774834437	-0.608211920529802	-2.46807947019868	0.222516556291392				0.607788079470199	-0.0628344370860927	-0.740238410596026	0.300397350993377	0.717615894039735	-1.87470198675497			
13	380	-0.168158940397351	0.162754966887417	-0.951523178807947	0.593377483443709	-0.144635761589404	-1.18490066225166				0.960953642384106	0.159788079470199	0.285139072847682	0.433907284768212	2.82781456953642	1.37403973509934				-0.186172185430464	-0.177271523178808	-0.87194701986755	-2.23258278145695	0.146490066225167	0.0797350993377501				0.624529801324503	-0.192529801324503	-0.725721854304636	1.36291390728477	1.5835761589404	-0.335629139072848				0.948026490066225	0.0834966887417219	0.229933774834437	0.231788079470198	-3.30807947019868	0.782516556291392				0.607788079470199	-0.0628344370860927	-0.740238410596026	0.0203973509933773	0.437615894039735	-1.03470198675497			
14	400	-0.168158940397351	0.146754966887417	-0.935523178807947	0.873377483443709	-0.424635761589404	-0.344900662251656				0.960953642384106	0.175788079470199	0.285139072847682	1.27390728476821	1.70781456953642	0.25403973509934				-0.186172185430464	-0.177271523178808	-0.88794701986755	-2.51258278145695	0.986490066225167	0.0797350993377501				0.608529801324503	-0.192529801324503	-0.725721854304636	2.20291390728477	0.1835761589404	-0.0556291390728476				0.948026490066225	0.0994966887417219	0.213933774834437	-0.0482119205298018	-3.58807947019868	0.222516556291392				0.607788079470199	-0.0628344370860927	-0.740238410596026	-1.09960264900662	0.437615894039735	0.0852980132450323			
15	420	-0.168158940397351	0.146754966887417	-0.951523178807947	-1.08662251655629	0.415364238410596	-1.46490066225166				0.944953642384106	0.175788079470199	0.285139072847682	-0.126092715231788	1.98781456953642	-0.585960264900661				-0.202172185430464	-0.177271523178808	-0.88794701986755	-0.272582781456954	1.26649006622517	-0.20026490066225				0.624529801324503	-0.192529801324503	-0.725721854304636	2.20291390728477	-0.3764238410596	-0.895629139072848				0.948026490066225	0.0994966887417219	0.229933774834437	-0.328211920529802	-3.86807947019868	0.782516556291392				0.607788079470199	-0.0468344370860927	-0.740238410596026	-1.37960264900662	0.437615894039735	0.645298013245032			
16	440	-0.168158940397351	0.162754966887417	-0.935523178807947	-1.08662251655629	0.135364238410596	-1.74490066225166				0.944953642384106	0.175788079470199	0.285139072847682	-2.92609271523179	1.42781456953642	-0.30596026490066				-0.202172185430464	-0.161271523178808	-0.87194701986755	2.80741721854305	0.986490066225167	-0.48026490066225				0.608529801324503	-0.208529801324503	-0.725721854304636	1.36291390728477	-0.9364238410596	-1.73562913907285				0.932026490066225	0.0834966887417219	0.229933774834437	0.231788079470198	-3.30807947019868	0.502516556291392				0.607788079470199	-0.0628344370860927	-0.740238410596026	-0.259602649006623	0.717615894039735	-0.474701986754968			
17	460	-0.168158940397351	0.162754966887417	-0.935523178807947	0.593377483443709	-0.424635761589404	-1.46490066225166				0.928953642384106	0.175788079470199	0.301139072847682	-3.20609271523179	3.10781456953642	-1.14596026490066				-0.202172185430464	-0.177271523178808	-0.87194701986755	0.287417218543046	0.426490066225167	-0.20026490066225				0.608529801324503	-0.208529801324503	-0.709721854304636	1.08291390728477	-0.0964238410596001	-1.73562913907285				0.948026490066225	0.0834966887417219	0.229933774834437	1.0717880794702	-3.02807947019868	0.782516556291392				0.591788079470199	-0.0628344370860927	-0.740238410596026	0.580397350993377	0.437615894039735	0.365298013245032			
18	480	-0.184158940397351	0.146754966887417	-0.951523178807947	0.0333774834437086	0.415364238410596	-1.46490066225166				0.960953642384106	0.175788079470199	0.301139072847682	-0.966092715231788	3.66781456953642	-0.30596026490066				-0.186172185430464	-0.193271523178808	-0.87194701986755	-1.67258278145695	1.54649006622517	0.35973509933775				0.592529801324503	-0.192529801324503	-0.709721854304636	-0.0370860927152318	0.4635761589404	-2.01562913907285				0.932026490066225	0.0834966887417219	0.213933774834437	0.231788079470198	-1.90807947019868	0.782516556291392				0.591788079470199	-0.0628344370860927	-0.740238410596026	0.0203973509933773	0.437615894039735	0.925298013245032			
19	500	-0.152158940397351	0.162754966887417	-0.935523178807947	-0.246622516556291	0.695364238410596	-1.18490066225166				0.944953642384106	0.175788079470199	0.285139072847682	-0.126092715231788	1.70781456953642	-0.0259602649006601				-0.186172185430464	-0.193271523178808	-0.88794701986755	-2.23258278145695	2.66649006622517	-0.20026490066225				0.592529801324503	-0.192529801324503	-0.709721854304636	0.242913907284768	2.1435761589404	-2.85562913907285				0.948026490066225	0.0834966887417219	0.213933774834437	0.231788079470198	-1.90807947019868	0.222516556291392				0.591788079470199	-0.0628344370860927	-0.740238410596026	-1.09960264900662	1.27761589403974	1.48529801324503			
20	520	-0.168158940397351	0.146754966887417	-0.935523178807947	-0.246622516556291	-0.144635761589404	-1.46490066225166				0.944953642384106	0.191788079470199	0.285139072847682	-1.24609271523179	-2.21218543046358	-0.86596026490066				-0.186172185430464	-0.177271523178808	-0.88794701986755	-2.23258278145695	1.54649006622517	0.63973509933775				0.592529801324503	-0.208529801324503	-0.725721854304636	3.32291390728477	3.8235761589404	-0.895629139072848				0.932026490066225	0.0834966887417219	0.213933774834437	1.0717880794702	-3.86807947019868	0.782516556291392				0.607788079470199	-0.0468344370860927	-0.756238410596026	-0.819602649006623	0.717615894039735	0.645298013245032			
21	540	-0.168158940397351	0.146754966887417	-0.935523178807947	0.0333774834437086	-0.984635761589404	-1.18490066225166				0.944953642384106	0.207788079470199	0.269139072847682	-1.24609271523179	0.307814569536424	-1.14596026490066				-0.202172185430464	-0.145271523178808	-0.87194701986755	-3.35258278145695	-1.53350993377483	0.91973509933775				0.608529801324503	-0.208529801324503	-0.725721854304636	3.60291390728477	6.0635761589404	1.62437086092715				0.932026490066225	0.0994966887417219	0.213933774834437	-1.4482119205298	0.331920529801325	0.502516556291392				0.607788079470199	-0.0628344370860927	-0.772238410596026	-3.33960264900662	-3.48238410596027	-0.194701986754968			
22	560	-0.184158940397351	0.162754966887417	-0.951523178807947	-0.526622516556291	-0.144635761589404	-1.46490066225166				0.960953642384106	0.191788079470199	0.285139072847682	2.11390728476821	-1.37218543046358	1.37403973509934				-0.202172185430464	-0.177271523178808	-0.87194701986755	-4.19258278145695	-1.53350993377483	2.03973509933775				0.608529801324503	-0.224529801324503	-0.741721854304636	3.88291390728477	5.2235761589404	3.02437086092715				0.932026490066225	0.0994966887417219	0.181933774834437	-2.2882119205298	1.17192052980133	0.502516556291392				0.591788079470199	-0.0628344370860927	-0.756238410596026	-5.01960264900662	-6.28238410596027	0.645298013245032			
23	580	-0.184158940397351	0.146754966887417	-0.935523178807947	-0.806622516556291	0.415364238410596	-0.624900662251656				0.960953642384106	0.159788079470199	0.269139072847682	1.55390728476821	-5.29218543046358	1.65403973509934				-0.186172185430464	-0.193271523178808	-0.88794701986755	-6.43258278145695	-1.25350993377483	2.03973509933775				0.592529801324503	-0.224529801324503	-0.741721854304636	2.48291390728477	4.1035761589404	4.42437086092715				0.948026490066225	0.0834966887417219	0.197933774834437	-1.7282119205298	1.45192052980132	-0.337483443708608				0.575788079470199	-0.0468344370860927	-0.756238410596026	-7.81960264900662	-5.44238410596027	1.76529801324503			
24	600	-0.152158940397351	0.130754966887417	-0.935523178807947	-1.92662251655629	0.135364238410596	-0.624900662251656				0.944953642384106	0.175788079470199	0.253139072847682	-4.60609271523179	-6.41218543046358	-0.585960264900661				-0.202172185430464	-0.161271523178808	-0.87194701986755	-11.192582781457	-2.93350993377483	1.19973509933775				0.592529801324503	-0.224529801324503	-0.741721854304636	4.72291390728477	4.1035761589404	7.22437086092715				0.964026490066225	0.0674966887417219	0.181933774834437	-4.5282119205298	1.73192052980133	0.502516556291392				0.575788079470199	-0.0308344370860927	-0.772238410596026	-8.09960264900662	-7.40238410596027	1.48529801324503			
25	620	-0.152158940397351	0.130754966887417	-0.935523178807947	-2.76662251655629	-1.2646357615894	-0.904900662251656				0.944953642384106	0.191788079470199	0.253139072847682	-7.68609271523179	-5.85218543046358	-1.98596026490066				-0.202172185430464	-0.145271523178808	-0.88794701986755	-20.712582781457	-9.09350993377483	0.63973509933775				0.592529801324503	-0.224529801324503	-0.773721854304636	11.7229139072848	-1.4964238410596	10.5843708609272				0.980026490066225	0.0674966887417219	0.197933774834437	-1.7282119205298	1.45192052980132	-0.0574834437086077				0.591788079470199	-0.0628344370860927	-0.820238410596026	-11.1796026490066	-12.1623841059603	1.76529801324503			
26	640	-0.168158940397351	0.146754966887417	-0.951523178807947	-2.48662251655629	-2.1046357615894	-0.624900662251656				0.976953642384106	0.191788079470199	0.237139072847682	-5.16609271523179	-4.73218543046358	-0.30596026490066				-0.218172185430464	-0.0812715231788079	-0.87194701986755	-19.312582781457	-12.4535099337748	0.0797350993377501				0.592529801324503	-0.256529801324503	-0.805721854304636	14.8029139072848	-5.4164238410596	10.3043708609272				0.980026490066225	0.0834966887417219	0.165933774834437	-3.1282119205298	-0.788079470198675	1.06251655629139				0.575788079470199	-0.0788344370860927	-0.820238410596026	-14.8196026490066	-17.2023841059603	3.72529801324503			
27	660	-0.168158940397351	0.162754966887417	-0.967523178807947	-2.76662251655629	-1.5446357615894	0.215099337748344				0.992953642384106	0.175788079470199	0.237139072847682	-0.406092715231788	-4.45218543046358	3.89403973509934				-0.234172185430464	-0.0972715231788079	-0.91994701986755	-12.872582781457	-12.4535099337748	-2.16026490066225				0.592529801324503	-0.336529801324503	-0.805721854304636	10.0429139072848	-12.1364238410596	10.8643708609272				0.964026490066225	0.0834966887417219	0.149933774834437	-5.9282119205298	2.01192052980133	1.34251655629139				0.559788079470199	-0.0148344370860927	-0.836238410596026	-15.0996026490066	-20.0023841059603	7.08529801324503			
28	680	-0.184158940397351	0.162754966887417	-0.951523178807947	-3.04662251655629	0.415364238410596	2.73509933774834				0.976953642384106	0.191788079470199	0.221139072847682	-0.686092715231788	-4.45218543046358	5.01403973509934				-0.234172185430464	-0.0972715231788079	-0.95194701986755	-20.152582781457	-14.4135099337748	-4.68026490066225				0.576529801324503	-0.320529801324503	-0.821721854304636	-3.67708609271523	-16.3364238410596	15.0643708609272				0.964026490066225	0.0674966887417219	0.165933774834437	-5.3682119205298	6.49192052980132	0.502516556291392				0.543788079470199	0.0171655629139073	-0.868238410596026	-12.5796026490066	-21.4023841059603	8.20529801324503			
29	700	-0.184158940397351	0.162754966887417	-0.919523178807947	-3.32662251655629	0.135364238410596	2.73509933774834				0.960953642384106	0.207788079470199	0.269139072847682	-5.44609271523179	-4.45218543046358	1.65403973509934				-0.218172185430464	-0.0492715231788079	-0.96794701986755	-43.672582781457	-19.4535099337748	-8.04026490066225				0.560529801324503	-0.320529801324503	-0.821721854304636	-15.1570860927152	-18.2964238410596	22.0643708609272				0.964026490066225	0.0834966887417219	0.117933774834437	-6.4882119205298	7.61192052980133	0.502516556291392				0.543788079470199	0.0171655629139073	-0.900238410596026	-8.93960264900662	-28.1223841059603	7.36529801324503			
30	720	-0.184158940397351	0.146754966887417	-0.935523178807947	-5.56662251655629	-0.704635761589404	4.69509933774834				0.960953642384106	0.239788079470199	0.253139072847682	-7.40609271523179	-4.17218543046358	-0.0259602649006601				-0.250172185430464	-0.0172715231788079	-0.93594701986755	-56.832582781457	-18.8935099337748	-12.2402649006623				0.528529801324503	-0.320529801324503	-0.853721854304636	-8.99708609271523	-19.1364238410596	28.7843708609272				0.980026490066225	0.0834966887417219	0.133933774834437	-6.7682119205298	10.4119205298013	0.222516556291392				0.543788079470199	-0.0308344370860927	-0.916238410596027	-6.69960264900662	-41.0023841059603	8.20529801324503			
31	740	-0.136158940397351	0.178754966887417	-0.935523178807947	-6.40662251655629	-0.704635761589404	5.53509933774834				1.02495364238411	0.207788079470199	0.189139072847682	-6.56609271523179	-10.8921854304636	3.05403973509934				-0.234172185430464	0.0627284768211921	-0.96794701986755	-72.792582781457	-13.5735099337748	-17.2802649006623				0.496529801324503	-0.352529801324503	-0.853721854304636	2.48291390728477	-25.0164238410596	31.8643708609272				0.996026490066225	0.0834966887417219	0.101933774834437	-7.0482119205298	11.8119205298013	-0.337483443708608				0.495788079470199	-0.0468344370860927	-0.964238410596026	-2.49960264900662	-40.1623841059603	15.205298013245			
32	760	-0.136158940397351	0.162754966887417	-0.919523178807947	-8.64662251655629	-2.3846357615894	6.93509933774835				1.04095364238411	0.239788079470199	0.109139072847682	-6.00609271523179	-21.8121854304636	4.45403973509934				-0.234172185430464	0.0787284768211921	-0.98394701986755	-83.152582781457	-8.53350993377483	-24.5602649006623				0.480529801324503	-0.416529801324503	-0.917721854304636	-3.67708609271523	-30.3364238410596	34.1043708609272				0.996026490066225	0.0514966887417219	0.0859337748344371	-9.8482119205298	15.7319205298013	-2.85748344370861				0.479788079470199	-0.0308344370860927	-0.964238410596026	11.2203973509934	-46.3223841059603	23.885298013245			
33	780	-0.200158940397351	0.162754966887417	-0.935523178807947	-6.68662251655629	-5.1846357615894	8.05509933774835				0.992953642384106	0.239788079470199	0.0771390728476822	-15.2460927152318	-18.4521854304636	2.77403973509934				-0.202172185430464	0.0307284768211921	-0.95194701986755	-108.072582781457	-20.2935099337748	-22.6002649006623				0.464529801324503	-0.448529801324503	-0.933721854304636	-25.5170860927152	-33.9764238410596	35.5043708609272				1.02802649006623	0.0354966887417219	0.0699337748344371	-12.6482119205298	17.1319205298013	-3.41748344370861				0.463788079470199	-0.0628344370860927	-0.996238410596026	13.1803973509934	-63.4023841059603	30.325298013245			
34	800	-0.232158940397351	0.194754966887417	-0.951523178807947	-6.68662251655629	-2.6646357615894	7.21509933774835				1.02495364238411	0.207788079470199	0.0931390728476822	-18.0460927152318	-19.0121854304636	9.77403973509934				-0.154172185430464	0.0147284768211921	-0.88794701986755	-103.312582781457	-41.5735099337748	-29.8802649006623				0.384529801324503	-0.416529801324503	-0.933721854304636	-40.9170860927152	-36.2164238410596	40.2643708609272				1.02802649006623	0.0514966887417219	0.0379337748344371	-14.3282119205298	18.5319205298013	-3.69748344370861				0.415788079470199	-0.0788344370860927	-0.980238410596026	7.86039735099338	-71.5223841059603	39.565298013245			
35	820	-0.232158940397351	0.162754966887417	-0.951523178807947	-13.1266225165563	-0.424635761589404	8.33509933774834				1.04095364238411	0.175788079470199	0.0131390728476822	-21.9660927152318	-18.4521854304636	12.0140397350993				-0.522172185430464	0.0307284768211921	-0.66394701986755	-21.552582781457	-76.2935099337748	-49.7602649006623				0.352529801324503	-0.368529801324503	-0.933721854304636	-44.2770860927152	-38.7364238410596	46.7043708609272				1.06002649006623	0.0514966887417219	0.0379337748344371	-13.7682119205298	20.4919205298013	-4.81748344370861				0.351788079470199	-0.0468344370860927	-1.01223841059603	5.34039735099338	-71.8023841059603	47.685298013245			
36	840	-0.280158940397351	0.146754966887417	-0.935523178807947	-13.9666225165563	-0.704635761589404	7.21509933774835				1.08895364238411	0.223788079470199	-0.00286092715231785	-50.5260927152318	-9.21218543046358	6.41403973509934				-0.346172185430464	-0.0332715231788079	-0.80794701986755	41.4474172185431	-6.57350993377483	-37.7202649006623				0.304529801324503	-0.368529801324503	-0.949721854304636	-41.1970860927152	-39.0164238410596	50.0643708609272				1.12402649006623	0.0194966887417219	0.0379337748344371	-12.0882119205298	15.7319205298013	-3.41748344370861				0.303788079470199	-0.0308344370860927	-1.04423841059603	13.1803973509934	-67.8823841059603	56.085298013245			
37	860	-0.312158940397351	0.178754966887417	-0.935523178807947	-15.3666225165563	2.6553642384106	7.21509933774835				0.912953642384106	0.143788079470199	0.0291390728476822	-80.7660927152318	-0.812185430463576	21.8140397350993				-0.314172185430464	-0.0172715231788079	-0.85594701986755	31.927417218543	-15.8135099337748	-40.2402649006623				0.320529801324503	-0.368529801324503	-0.981721854304636	-42.0370860927152	-39.2964238410596	51.1843708609272				1.15602649006623	0.0194966887417219	0.0219337748344371	-17.9682119205298	11.2519205298013	-3.97748344370861				0.287788079470199	-0.0468344370860927	-1.01223841059603	17.9403973509934	-67.3223841059603	64.485298013245			
38	880	-0.280158940397351	0.210754966887417	-1.04752317880795	-14.5266225165563	0.975364238410596	7.77509933774834				0.816953642384106	0.239788079470199	0.0291390728476822	-60.0460927152318	40.0678145695364	38.3340397350993				-0.298172185430464	-0.545271523178808	-0.88794701986755	47.8874172185431	-10.4935099337748	-23.1602649006623				0.336529801324503	-0.336529801324503	-0.981721854304636	-41.1970860927152	-35.9364238410596	58.7443708609272				1.18802649006623	0.0354966887417219	0.0859337748344371	-19.6482119205298	11.2519205298013	-1.73748344370861				0.335788079470199	-0.0468344370860927	-1.09223841059603	14.0203973509934	-62.8423841059603	66.165298013245			
39	900	-0.344158940397351	0.242754966887417	-1.17552317880795	-23.7666225165563	16.0953642384106	8.89509933774834				1.07295364238411	0.111788079470199	0.221139072847682	-23.9260927152318	113.427814569536	44.4940397350993				-0.410172185430464	-0.929271523178808	-0.99994701986755	12.327417218543	4.06649006622517	9.03973509933775				0.368529801324503	-0.304529801324503	-0.965721854304636	-28.3170860927152	-32.2964238410596	63.5043708609272				1.17202649006623	0.0994966887417219	0.0699337748344371	-24.4082119205298	3.41192052980132	1.34251655629139				0.303788079470199	-0.0308344370860927	-1.09223841059603	8.42039735099338	-62.8423841059603	61.405298013245			
40	920	-0.392158940397351	0.290754966887417	-1.03152317880795	-24.6066225165563	35.4153642384106	10.2950993377483				1.26495364238411	-0.0962119205298013	0.621139072847682	-67.3260927152318	132.187814569536	45.0540397350993				-0.426172185430464	-0.529271523178808	-1.15994701986755	-41.712582781457	26.4664900662252	19.6797350993378				0.608529801324503	-0.336529801324503	-0.933721854304636	-26.3570860927152	-26.1364238410596	68.8243708609272				1.12402649006623	0.115496688741722	0.149933774834437	-14.6082119205298	1.73192052980133	3.02251655629139				0.207788079470199	-0.126834437086093	-1.07623841059603	22.7003973509934	-58.0823841059603	60.285298013245			
41	940	-0.328158940397351	0.306754966887417	-0.887523178807947	-21.5266225165563	36.5353642384106	13.6550993377483				1.40895364238411	0.0797880794701987	0.525139072847682	-54.1660927152318	83.7478145695364	58.2140397350993				0	0	0	0	0	0				0.880529801324503	-0.272529801324503	-0.981721854304636	-17.6770860927152	-26.9764238410596	72.7443708609272				1.14002649006623	0.0994966887417219	0.453933774834437	17.8717880794702	15.4519205298013	1.34251655629139				0.223788079470199	-0.318834437086093	-1.06023841059603	21.5803973509934	-44.6423841059603	69.525298013245			
42	1040	0	0	0	0	0	0				1.10495364238411	0.0157880794701987	0.589139072847682	20.5939072847682	-16.4921854304636	-14.8659602649007				-0.202172185430464	0.0147284768211921	-0.99994701986755	15.407417218543	80.2264900662252	7.07973509933775				0.656529801324503	-0.0485298013245033	-0.933721854304636	-9.55708609271523	42.7435761589404	-9.85562913907285				1.38002649006623	0.0834966887417219	0.613933774834437	-13.4882119205298	22.4519205298013	-18.2574834437086				0.527788079470199	-0.174834437086093	-1.10823841059603	31.9403973509934	3.23761589403974	-4.67470198675497			
43	1060	-0.040158940397351	0.338754966887417	-1.06352317880795	12.6333774834437	95.6153642384106	44.4550993377484				0.896953642384106	0.0637880794701987	0.381139072847682	35.9939072847682	-11.4521854304636	-26.0659602649007				-0.218172185430464	-0.177271523178808	-1.14394701986755	6.72741721854305	91.1464900662252	7.91973509933775				0.688529801324503	-0.176529801324503	-0.853721854304636	10.3229139072848	43.3035761589404	-3.97562913907285				1.15602649006623	0.195496688741722	0.421933774834437	-14.3282119205298	1.17192052980133	-5.65748344370861				0.447788079470199	-0.334834437086093	-0.964238410596026	26.9003973509934	34.8776158940397	-15.314701986755			
44	1080	0.039841059602649	0.402754966887417	-0.999523178807947	36.1533774834437	103.455364238411	44.1750993377484				1.21695364238411	0.0797880794701987	0.541139072847682	-18.8860927152318	12.6278145695364	-3.10596026490066				-0.218172185430464	-0.0812715231788079	-1.04794701986755	-20.152582781457	106.826490066225	17.7197350993378				0.736529801324503	-0.224529801324503	-0.981721854304636	36.9229139072848	37.1435761589404	-0.335629139072848				1.04402649006623	0.211496688741722	0.485933774834437	-2.5682119205298	3.13192052980133	1.90251655629139				0.383788079470199	-0.414834437086093	-0.868238410596026	-10.0596026490066	58.3976158940397	-12.794701986755			
45	1100	0.135841059602649	0.258754966887417	-1.03152317880795	50.9933774834437	107.935364238411	42.7750993377484				1.42495364238411	-0.0482119205298013	0.589139072847682	-44.6460927152318	16.8278145695364	9.49403973509934				-0.0581721854304636	0.0147284768211921	-1.04794701986755	-33.312582781457	113.266490066225	20.2397350993378				0.688529801324503	-0.304529801324503	-1.12572185430464	28.8029139072848	36.0235761589404	-5.37562913907285				1.20402649006623	0.131496688741722	0.661933774834437	-4.2482119205298	4.81192052980133	-1.45748344370861				0.511788079470199	-0.382834437086093	-0.900238410596026	-58.2196026490066	72.1176158940397	-15.594701986755			
46	1120	0.247841059602649	0.194754966887417	-1.01552317880795	40.9133774834437	117.175364238411	36.0550993377484				1.34495364238411	-0.0162119205298013	0.781139072847682	-29.2460927152318	10.9478145695364	0.81403973509934				-0.0581721854304636	-0.0172715231788079	-0.98394701986755	-33.592582781457	122.226490066225	18.5597350993378				0.752529801324503	-0.416529801324503	-1.10972185430464	11.4429139072848	48.9035761589404	-8.17562913907285				1.26802649006623	0.147496688741722	0.581933774834437	-45.1282119205298	-6.66807947019868	-12.3774834437086				0.735788079470199	-0.318834437086093	-1.10823841059603	-70.8196026490066	63.4376158940397	-17.554701986755			
47	1140	0.295841059602649	0.242754966887417	-0.983523178807947	26.9133774834437	126.975364238411	31.2950993377483				1.24895364238411	0.143788079470199	0.765139072847682	11.0739072847682	3.94781456953642	-9.26596026490066				0.00582781456953642	0.0787284768211921	-1.01594701986755	-26.592582781457	131.746490066225	12.3997350993378				0.768529801324503	-0.384529801324503	-1.07772185430464	3.88291390728477	55.0635761589404	-5.65562913907285				1.20402649006623	0.211496688741722	0.469933774834437	-36.4482119205298	-3.02807947019868	-12.9374834437086				0.751788079470199	-0.238834437086093	-1.17223841059603	-33.8596026490066	63.9976158940397	-11.674701986755			
48	1160	0.343841059602649	0.242754966887417	-0.999523178807947	15.4333774834437	138.735364238411	29.8950993377483				1.13695364238411	0.0637880794701987	0.413139072847682	49.1539072847682	-41.6921854304636	-22.4259602649007				0.117827814569536	0.142728476821192	-0.99994701986755	-17.912582781457	137.346490066225	16.0397350993378				0.864529801324503	-0.240529801324503	-0.997721854304636	-9.83708609271523	49.4635761589404	3.02437086092715				1.17202649006623	0.211496688741722	0.485933774834437	-21.8882119205298	10.1319205298013	-9.01748344370861				0.575788079470199	-0.238834437086093	-1.04423841059603	-11.1796026490066	72.6776158940397	2.04529801324503			
49	1180	0.439841059602649	0.210754966887417	-0.967523178807947	10.6733774834437	146.575364238411	24.2950993377483				1.02495364238411	0.127788079470199	0.365139072847682	-3.48609271523179	-40.0121854304636	-17.9459602649007				0.213827814569536	0.0147284768211921	-0.99994701986755	-4.47258278145695	143.226490066225	15.7597350993378				0.864529801324503	-0.192529801324503	-0.837721854304636	-4.79708609271523	34.3435761589404	8.34437086092715				1.18802649006623	0.147496688741722	0.469933774834437	-23.2882119205298	-0.508079470198675	-3.41748344370861				0.575788079470199	-0.302834437086093	-0.964238410596026	-13.9796026490066	77.4376158940397	10.165298013245			
50	1200	0.471841059602649	0.258754966887417	-0.919523178807947	15.9933774834437	154.135364238411	21.7750993377483				1.23295364238411	-0.0162119205298013	0.589139072847682	-58.0860927152318	-15.0921854304636	2.21403973509934				0.277827814569536	-0.0332715231788079	-0.90394701986755	-12.312582781457	151.906490066225	16.5997350993378				0.848529801324503	-0.272529801324503	-0.853721854304636	7.80291390728477	32.3835761589404	11.1443708609272				1.12402649006623	0.115496688741722	0.501933774834437	-22.7282119205298	-22.6280794701987	-3.97748344370861				0.607788079470199	-0.302834437086093	-0.852238410596026	-28.2596026490066	80.2376158940397	12.405298013245			
51	1220	0.487841059602649	0.210754966887417	-0.855523178807947	24.3933774834437	162.255364238411	19.5350993377483				1.18495364238411	-0.0962119205298013	0.557139072847682	-11.8860927152318	-24.3321854304636	3.05403973509934				0.309827814569536	0.0307284768211921	-0.85594701986755	-16.232582781457	156.106490066225	16.5997350993378				0.800529801324503	-0.320529801324503	-0.869721854304636	4.16291390728477	34.6235761589404	4.98437086092715				1.06002649006623	0.147496688741722	0.565933774834437	-34.2082119205298	-27.9480794701987	-8.73748344370861				0.671788079470199	-0.222834437086093	-0.852238410596026	-47.2996026490066	73.7976158940397	7.36529801324503			
52	1240	0.647841059602649	0.0507549668874172	-0.791523178807947	25.5133774834437	167.855364238411	15.0550993377483				1.12095364238411	0.111788079470199	0.477139072847682	35.4339072847682	-29.3721854304636	-8.14596026490066				0.389827814569536	0.0307284768211921	-0.80794701986755	-23.512582781457	157.506490066225	19.1197350993378				0.768529801324503	-0.224529801324503	-0.757721854304636	-17.1170860927152	37.7035761589404	-5.09562913907285				1.01202649006623	0.131496688741722	0.517933774834437	-24.6882119205298	-19.5480794701987	-6.77748344370861				0.703788079470199	-0.126834437086093	-0.900238410596026	-53.1796026490066	69.5976158940397	2.32529801324503			
53	1260	0.791841059602649	0.00275496688741723	-0.711523178807947	9.55337748344371	167.295364238411	14.7750993377483				1.00895364238411	0.351788079470199	0.445139072847682	52.2339072847682	-49.2521854304636	-12.0659602649007				0.469827814569536	0.0627284768211921	-0.72794701986755	-17.632582781457	156.946490066225	19.1197350993378				0.720529801324503	-0.176529801324503	-0.629721854304636	-1.15708609271523	46.6635761589404	-1.45562913907285				1.01202649006623	0.131496688741722	0.405933774834437	-23.0082119205298	-17.8680794701987	-6.49748344370861				0.655788079470199	-0.110834437086093	-0.884238410596026	-52.6196026490066	75.1976158940397	1.48529801324503			
54	1280	0.823841059602649	0.0187549668874172	-0.631523178807947	4.51337748344371	161.415364238411	12.8150993377483				0.992953642384106	0.111788079470199	0.397139072847682	27.5939072847682	-67.4521854304636	-11.2259602649007				0.661827814569536	0.206728476821192	-0.64794701986755	-10.632582781457	157.786490066225	18.8397350993378				0.720529801324503	-0.128529801324503	-0.565721854304636	12.5629139072848	41.6235761589404	2.46437086092715				0.964026490066225	0.163496688741722	0.341933774834437	-32.5282119205298	-21.7880794701987	-8.45748344370861				0.639788079470199	-0.126834437086093	-0.820238410596026	-44.7796026490066	73.5176158940397	3.16529801324503			
55	1300	0.775841059602649	0.0667549668874172	-0.551523178807947	2.27337748344371	157.215364238411	11.6950993377483				0.928953642384106	-0.192211920529801	0.237139072847682	16.1139072847682	-73.8921854304636	-8.42596026490066				0.789827814569536	0.270728476821192	-0.58394701986755	16.247417218543	159.466490066225	14.3597350993378				0.656529801324503	-0.176529801324503	-0.597721854304636	22.9229139072848	40.5035761589404	3.30437086092715				0.900026490066225	0.147496688741722	0.309933774834437	-25.5282119205298	-23.7480794701987	-5.65748344370861				0.575788079470199	-0.0948344370860927	-0.692238410596026	-48.6996026490066	72.6776158940397	4.84529801324503			
56	1320	0.807841059602649	0.0507549668874172	-0.487523178807947	-1.08662251655629	157.495364238411	8.33509933774834				0.688953642384106	-0.112211920529801	0.141139072847682	29.5539072847682	-63.8121854304636	-10.3859602649007				0.693827814569536	0.190728476821192	-0.51994701986755	40.8874172185431	153.866490066225	1.75973509933775				0.544529801324503	-0.144529801324503	-0.549721854304636	31.3229139072848	38.2635761589404	5.82437086092715				0.788026490066225	0.0674966887417219	0.261933774834437	-12.3682119205298	-29.3480794701987	1.34251655629139				0.495788079470199	0.00116556291390731	-0.660238410596027	-57.6596026490066	68.1976158940397	0.925298013245032			
57	1340	0.791841059602649	0.0667549668874172	-0.423523178807947	-3.04662251655629	153.855364238411	3.29509933774834				0.608953642384106	0.0477880794701987	0.141139072847682	41.8739072847682	-60.1721854304636	-5.62596026490066				0.549827814569536	0.126728476821192	-0.50394701986755	42.287417218543	153.026490066225	-8.04026490066225				0.480529801324503	-0.192529801324503	-0.485721854304636	31.8829139072848	29.8635761589404	9.18437086092715				0.660026490066225	0.0194966887417219	0.213933774834437	-12.9282119205298	-39.1480794701987	8.90251655629139				0.447788079470199	0.0651655629139073	-0.660238410596027	-46.1796026490066	53.9176158940397	-5.79470198675497			
58	1360	0.711841059602649	0.0987549668874172	-0.311523178807947	-4.44662251655629	158.335364238411	3.57509933774835				0.672953642384106	0.127788079470199	0.173139072847682	42.4339072847682	-65.2121854304636	-4.22596026490066				0.549827814569536	0.0787284768211921	-0.43994701986755	29.6874172185431	149.946490066225	-12.5202649006623				0.448529801324503	-0.208529801324503	-0.389721854304636	12.5629139072848	11.6635761589404	13.6643708609272				0.548026490066225	0.0514966887417219	0.149933774834437	-15.4482119205298	-53.4280794701987	14.5025165562914				0.351788079470199	0.0331655629139073	-0.596238410596026	-27.1396026490066	39.9176158940397	-4.11470198675497			
59	1380	0.663841059602649	0.130754966887417	-0.311523178807947	6.75337748344371	159.175364238411	4.13509933774834				0.832953642384106	0.0957880794701987	0.0291390728476822	53.6339072847682	-83.4121854304636	-7.02596026490066				0.549827814569536	0.222728476821192	-0.43994701986755	24.087417218543	151.066490066225	-17.2802649006623				0.336529801324503	-0.192529801324503	-0.357721854304636	8.08291390728477	-6.8164238410596	15.3443708609272				0.484026490066225	0.0354966887417219	0.117933774834437	-7.3282119205298	-48.3880794701987	13.3825165562914				0.271788079470199	-0.0148344370860927	-0.468238410596026	-20.6996026490066	32.9176158940397	8.20529801324503			
60	1400	0.567841059602649	0.242754966887417	-0.295523178807947	7.59337748344371	155.815364238411	4.41509933774834				0.496953642384106	0.0317880794701987	0.0771390728476822	26.4739072847682	-75.0121854304636	-1.70596026490066				0.517827814569536	0.110728476821192	-0.39194701986755	10.927417218543	156.386490066225	-22.8802649006623				0.288529801324503	-0.144529801324503	-0.357721854304636	17.8829139072848	-9.6164238410596	10.0243708609272				0.452026490066225	-0.0125033112582781	0.181933774834437	-3.9682119205298	-38.8680794701987	6.94251655629139				0.239788079470199	-0.0308344370860927	-0.404238410596026	-34.9796026490066	25.0776158940397	5.96529801324503			
61	1420	0.535841059602649	0.178754966887417	-0.311523178807947	24.6733774834437	154.695364238411	4.41509933774834				0.448953642384106	-0.0482119205298013	0.0771390728476822	23.1139072847682	-70.8121854304636	1.65403973509934				0.581827814569536	-0.0172715231788079	-0.32794701986755	22.967417218543	153.306490066225	-26.5202649006623				0.352529801324503	-0.144529801324503	-0.309721854304636	17.6029139072848	-4.8564238410596	5.54437086092715				0.452026490066225	0.00349668874172187	0.197933774834437	-5.3682119205298	-42.7880794701987	3.30251655629139				0.271788079470199	0.0171655629139073	-0.404238410596026	-34.4196026490066	13.3176158940397	-1.59470198675497			
62	1440	0.679841059602649	0.130754966887417	-0.311523178807947	45.6733774834437	153.015364238411	1.61509933774834				0.416953642384106	0.0637880794701987	0.0611390728476822	19.7539072847682	-61.0121854304636	-1.14596026490066				0.517827814569536	0.0147284768211921	-0.50394701986755	35.287417218543	149.666490066225	-30.4402649006623				0.352529801324503	-0.128529801324503	-0.309721854304636	23.7629139072848	-3.1764238410596	4.98437086092715				0.468026490066225	0.0674966887417219	0.117933774834437	-5.9282119205298	-55.6680794701987	5.26251655629139				0.351788079470199	0.0651655629139073	-0.452238410596026	-24.8996026490066	1.83761589403974	-13.914701986755			
63	1460	0.679841059602649	0.130754966887417	-0.311523178807947	57.9933774834437	149.375364238411	-5.66490066225166				0.416953642384106	0.175788079470199	0.0931390728476822	20.8739072847682	-61.8521854304636	-8.98596026490066				0.533827814569536	0.0147284768211921	-0.35994701986755	-0.272582781456954	146.586490066225	-34.6402649006623				0.336529801324503	-0.192529801324503	-0.309721854304636	30.4829139072848	-2.8964238410596	12.2643708609272				0.484026490066225	0.0514966887417219	0.0539337748344371	-0.328211920529802	-64.9080794701987	6.94251655629139				0.383788079470199	0.0971655629139073	-0.516238410596026	-8.09960264900662	-16.0823841059603	-23.994701986755			
64	1480	0.663841059602649	0.130754966887417	-0.279523178807947	58.2733774834437	148.815364238411	-8.18490066225166				0.400953642384106	0.159788079470199	0.0771390728476822	32.0739072847682	-47.0121854304636	-11.2259602649007				0.613827814569536	0.110728476821192	-0.39194701986755	-20.992582781457	137.626490066225	-30.7202649006623				0.320529801324503	-0.240529801324503	-0.341721854304636	30.4829139072848	-13.2564238410596	17.8643708609272				0.484026490066225	0.0354966887417219	-0.0100662251655629	8.6317880794702	-56.5080794701987	7.50251655629139				0.303788079470199	0.0971655629139073	-0.484238410596026	-6.97960264900662	-19.4423841059603	-30.994701986755			
65	1500	0.695841059602649	0.0827549668874172	-0.263523178807947	30.2733774834437	132.855364238411	4.13509933774834				0.448953642384106	0.0797880794701987	0.0291390728476822	53.0739072847682	-43.6521854304636	-3.38596026490066				0.677827814569536	0.0467284768211921	-0.45594701986755	11.487417218543	128.946490066225	-26.8002649006623				0.240529801324503	-0.240529801324503	-0.405721854304636	28.8029139072848	-23.3364238410596	14.2243708609272				0.484026490066225	0.0514966887417219	0.00593377483443711	5.2717880794702	-43.3480794701987	6.38251655629139				0.223788079470199	0.0491655629139073	-0.452238410596026	-12.8596026490066	-16.3623841059603	-26.514701986755			
66	1520	0.743841059602649	0.0667549668874172	-0.215523178807947	35.8733774834437	116.335364238411	8.05509933774835				0.464953642384106	0.0477880794701987	-0.0828609271523179	43.2739072847682	-38.0521854304636	-5.34596026490066				0.645827814569536	-0.0652715231788079	-0.43994701986755	35.007417218543	97.3064900662252	-11.1202649006623				0.256529801324503	-0.208529801324503	-0.453721854304636	16.4829139072848	-25.2964238410596	9.74437086092715				0.468026490066225	0.0514966887417219	0.0379337748344371	5.5517880794702	-34.9480794701987	5.54251655629139				0.175788079470199	0.0491655629139073	-0.436238410596026	-18.7396026490066	-17.2023841059603	-16.714701986755			
67	1540	0.823841059602649	0.0507549668874172	-0.295523178807947	42.3133774834437	105.415364238411	8.05509933774835				0.560953642384106	0.143788079470199	0.141139072847682	30.6739072847682	-31.0521854304636	-8.42596026490066				0.773827814569536	-0.145271523178808	-0.42394701986755	46.7674172185431	66.2264900662252	-2.44026490066225				0.320529801324503	-0.240529801324503	-0.469721854304636	19.5629139072848	-23.3364238410596	12.8243708609272				0.500026490066225	0.0674966887417219	0.0379337748344371	12.8317880794702	-32.1480794701987	3.30251655629139				0.239788079470199	0.113165562913907	-0.484238410596026	-20.9796026490066	-21.1223841059603	-16.714701986755			
68	1560	0.871841059602649	-0.0292450331125828	-0.359523178807947	39.7933774834437	90.0153642384106	10.8550993377483				0.528953642384106	0.143788079470199	0.141139072847682	30.6739072847682	-36.0921854304636	-14.5859602649007				0.837827814569536	-0.129271523178808	-0.48794701986755	28.287417218543	45.7864900662252	0.91973509933775				0.368529801324503	-0.288529801324503	-0.485721854304636	15.0829139072848	-24.4564238410596	9.18437086092715				0.564026490066225	0.0834966887417219	0.00593377483443711	17.3117880794702	-27.3880794701987	-0.337483443708608				0.319788079470199	0.177165562913907	-0.564238410596026	-8.37960264900662	-24.7623841059603	-24.834701986755			
69	1580	0.903841059602649	-0.0132450331125828	-0.375523178807947	38.9533774834437	74.3353642384106	8.33509933774834				0.768953642384106	0.111788079470199	0.125139072847682	24.5139072847682	-11.7321854304636	-13.7459602649007				0.981827814569536	-0.0172715231788079	-0.40794701986755	7.28741721854305	39.9064900662252	1.19973509933775				0.448529801324503	-0.272529801324503	-0.517721854304636	8.36291390728477	-25.5764238410596	3.58437086092715				0.692026490066225	0.0834966887417219	0.0699337748344371	21.7917880794702	-17.0280794701987	-3.97748344370861				0.367788079470199	0.145165562913907	-0.612238410596026	6.74039735099338	-23.9223841059603	-28.194701986755			
70	1600	1.01584105960265	-0.0292450331125828	-0.311523178807947	32.5133774834437	61.7353642384106	6.65509933774834				1.00895364238411	0.0317880794701987	0.157139072847682	22.8339072847682	-0.252185430463576	-6.46596026490066				0.997827814569536	0.0627284768211921	-0.34394701986755	2.52741721854305	28.7064900662252	-1.60026490066225				0.480529801324503	-0.272529801324503	-0.565721854304636	18.7229139072848	-16.3364238410596	-0.895629139072848				0.820026490066225	0.0994966887417219	0.117933774834437	22.9117880794702	-7.78807947019868	-5.37748344370861				0.447788079470199	0.0971655629139073	-0.644238410596026	13.7403973509934	-17.7623841059603	-25.674701986755			
71	1620	0.999841059602649	-0.0612450331125828	-0.343523178807947	21.5933774834437	36.8153642384106	3.57509933774835				1.00895364238411	-0.000211920529801304	0.141139072847682	21.4339072847682	-10.0521854304636	-0.86596026490066				0.933827814569536	0.0307284768211921	-0.24794701986755	1.68741721854305	16.1064900662252	-3.84026490066225				0.528529801324503	-0.352529801324503	-0.629721854304636	25.1629139072848	-2.8964238410596	0.224370860927152				0.964026490066225	0.0514966887417219	0.117933774834437	29.6317880794702	-1.06807947019868	-4.81748344370861				0.559788079470199	0.0651655629139073	-0.644238410596026	12.0603973509934	-7.40238410596027	-28.194701986755			
72	1640	0.983841059602649	-0.0292450331125828	-0.279523178807947	15.7133774834437	24.2153642384106	0.215099337748344				0.912953642384106	0.0797880794701987	0.0451390728476822	17.7939072847682	-20.6921854304636	-2.82596026490066				0.917827814569536	0.0467284768211921	-0.16794701986755	3.36741721854305	10.5064900662252	-3.56026490066225				0.592529801324503	-0.416529801324503	-0.693721854304636	24.0429139072848	0.1835761589404	1.06437086092715				0.964026490066225	0.0514966887417219	0.117933774834437	25.7117880794702	-7.22807947019868	-3.13748344370861				0.687788079470199	0.0331655629139073	-0.676238410596026	-0.819602649006623	3.23761589403974	-32.114701986755			
73	1660	0.935841059602649	-0.0292450331125828	-0.183523178807947	17.6733774834437	16.9353642384106	-0.0649006622516557				0.928953642384106	0.0957880794701987	0.0451390728476822	10.7939072847682	-16.4921854304636	-6.18596026490066				0.933827814569536	0.0467284768211921	-0.21594701986755	15.407417218543	7.42649006622517	-3.56026490066225				0.608529801324503	-0.400529801324503	-0.693721854304636	10.3229139072848	-5.4164238410596	-1.45562913907285				0.980026490066225	0.0674966887417219	0.117933774834437	20.3917880794702	-8.62807947019868	-2.01748344370861				0.719788079470199	0.00116556291390731	-0.644238410596026	-2.49960264900662	6.87761589403974	-31.554701986755			
74	1680	0.967841059602649	-0.0932450331125828	-0.167523178807947	14.8733774834437	18.3353642384106	1.89509933774834				0.960953642384106	0.0797880794701987	0.0611390728476822	2.95390728476821	-3.61218543046358	-3.66596026490066				0.981827814569536	0.0147284768211921	-0.19994701986755	7.28741721854305	11.9064900662252	-1.60026490066225				0.544529801324503	-0.352529801324503	-0.709721854304636	11.1629139072848	-10.1764238410596	-1.45562913907285				0.964026490066225	0.0354966887417219	0.149933774834437	11.4317880794702	-7.78807947019868	-3.69748344370861				0.671788079470199	-0.0468344370860927	-0.644238410596026	-14.2596026490066	12.4776158940397	-27.634701986755			
75	1700	0.967841059602649	-0.0612450331125828	-0.087523178807947	4.23337748344371	15.2553642384106	1.89509933774834				1.02495364238411	0.0637880794701987	0.125139072847682	-4.88609271523179	4.22781456953642	-1.14596026490066				0.965827814569536	-0.0652715231788079	-0.18394701986755	0.00741721854304636	12.1864900662252	-0.76026490066225				0.512529801324503	-0.400529801324503	-0.725721854304636	5.00291390728477	-11.0164238410596	-1.17562913907285				0.932026490066225	0.0194966887417219	0.197933774834437	7.5117880794702	-15.3480794701987	-3.13748344370861				0.671788079470199	-0.0148344370860927	-0.676238410596026	-19.2996026490066	14.9976158940397	-23.994701986755			
76	1720	0.967841059602649	0.00275496688741723	-0.023523178807947	-5.28662251655629	10.7753642384106	1.05509933774834				1.00895364238411	0.127788079470199	0.0291390728476822	-9.64609271523179	-1.09218543046358	-3.66596026490066				0.933827814569536	-0.0972715231788079	-0.18394701986755	0.287417218543046	6.58649006622517	-0.76026490066225				0.512529801324503	-0.432529801324503	-0.741721854304636	-5.63708609271523	-12.1364238410596	-0.335629139072848				0.932026490066225	0.0514966887417219	0.117933774834437	-3.1282119205298	-14.2280794701987	-5.37748344370861				0.687788079470199	-0.0148344370860927	-0.692238410596026	-14.2596026490066	9.11761589403974	-17.834701986755			
77	1740	0.983841059602649	0.00275496688741723	-0.023523178807947	-11.7266225165563	8.5353642384106	-1.74490066225166				0.976953642384106	0.175788079470199	0.0131390728476822	-1.52609271523179	-20.1321854304636	-3.38596026490066				0.949827814569536	-0.0172715231788079	-0.16794701986755	-11.752582781457	4.34649006622517	1.19973509933775				0.512529801324503	-0.368529801324503	-0.725721854304636	-14.8770860927152	-12.1364238410596	-1.17562913907285				0.964026490066225	0.0834966887417219	0.0859337748344371	-7.6082119205298	-9.18807947019868	-7.05748344370861				0.687788079470199	0.0331655629139073	-0.724238410596026	-15.3796026490066	4.07761589403974	-10.274701986755			
78	1760	0.951841059602649	0.0347549668874172	-0.087523178807947	-5.56662251655629	8.8153642384106	-1.74490066225166				0.976953642384106	0.0957880794701987	0.0131390728476822	-0.126092715231788	-19.8521854304636	-5.06596026490066				0.965827814569536	0.0307284768211921	-0.19994701986755	-14.272582781457	6.02649006622517	1.19973509933775				0.528529801324503	-0.288529801324503	-0.677721854304636	-14.5970860927152	-7.6564238410596	-0.335629139072848				0.964026490066225	0.0994966887417219	0.0859337748344371	-9.8482119205298	-8.06807947019868	-5.93748344370861				0.671788079470199	0.0651655629139073	-0.740238410596026	-15.0996026490066	4.63761589403974	-1.87470198675497			
79	1780	0.951841059602649	0.0347549668874172	-0.039523178807947	-5.00662251655629	9.3753642384106	-2.02490066225166				0.976953642384106	0.0637880794701987	0.0451390728476822	-5.72609271523179	-15.9321854304636	-2.82596026490066				0.949827814569536	0.0627284768211921	-0.21594701986755	-17.072582781457	9.10649006622517	2.31973509933775				0.528529801324503	-0.304529801324503	-0.645721854304636	-5.35708609271523	-2.6164238410596	5.26437086092715				0.964026490066225	0.0994966887417219	0.101933774834437	-14.6082119205298	-10.0280794701987	-3.13748344370861				0.655788079470199	0.129165562913907	-0.740238410596026	-12.0196026490066	4.07761589403974	1.48529801324503			
80	1800	0.967841059602649	0.0187549668874172	-0.039523178807947	-3.60662251655629	8.8153642384106	-2.30490066225166				0.992953642384106	0.0797880794701987	0.0451390728476822	-13.5660927152318	-9.21218543046358	-2.26596026490066				0.933827814569536	0.0787284768211921	-0.24794701986755	-19.032582781457	7.70649006622517	2.03973509933775				0.528529801324503	-0.336529801324503	-0.661721854304636	-1.43708609271523	-0.9364238410596	9.46437086092715				0.964026490066225	0.0994966887417219	0.0859337748344371	-13.7682119205298	-12.5480794701987	-2.01748344370861				0.639788079470199	0.129165562913907	-0.756238410596026	-6.13960264900662	1.83761589403974	4.00529801324503			
81	1820	0.983841059602649	-0.0292450331125828	-0.039523178807947	-3.32662251655629	7.9753642384106	-3.42490066225166				0.944953642384106	0.127788079470199	0.0611390728476822	-15.2460927152318	-6.97218543046358	-3.38596026490066				0.917827814569536	0.0787284768211921	-0.23194701986755	-11.192582781457	5.74649006622517	-0.48026490066225				0.544529801324503	-0.352529801324503	-0.693721854304636	-2.55708609271523	1.0235761589404	10.8643708609272				0.948026490066225	0.0994966887417219	0.0699337748344371	-14.3282119205298	-12.5480794701987	-0.337483443708608				0.623788079470199	0.113165562913907	-0.740238410596026	-3.89960264900662	-2.08238410596027	7.92529801324503			
82	1840	0.967841059602649	0.00275496688741723	-0.055523178807947	-9.48662251655629	2.6553642384106	-2.86490066225166				0.960953642384106	0.175788079470199	0.0131390728476822	-13.8460927152318	-14.2521854304636	-5.90596026490066				0.949827814569536	0.0947284768211921	-0.21594701986755	-8.11258278145695	6.86649006622517	-0.48026490066225				0.544529801324503	-0.352529801324503	-0.693721854304636	-6.19708609271523	2.9835761589404	9.46437086092715				0.948026490066225	0.115496688741722	0.0859337748344371	-14.0482119205298	-11.4280794701987	0.502516556291392				0.607788079470199	0.0971655629139073	-0.756238410596026	-8.09960264900662	-4.60238410596027	11.565298013245			
83	1860	0.967841059602649	0.0507549668874172	-0.039523178807947	-19.2866225165563	-0.144635761589404	-2.86490066225166				0.960953642384106	0.159788079470199	-0.00286092715231785	-10.7660927152318	-15.9321854304636	-4.22596026490066				0.965827814569536	0.0947284768211921	-0.24794701986755	-8.39258278145695	2.10649006622517	-1.88026490066225				0.528529801324503	-0.336529801324503	-0.661721854304636	-4.79708609271523	3.8235761589404	9.18437086092715				0.932026490066225	0.0994966887417219	0.0379337748344371	-15.7282119205298	-9.74807947019868	1.06251655629139				0.591788079470199	0.129165562913907	-0.756238410596026	-14.5396026490066	-3.48238410596027	12.685298013245			
84	1880	0.983841059602649	0.0667549668874172	-0.023523178807947	-15.9266225165563	0.415364238410596	-2.30490066225166				0.976953642384106	0.159788079470199	0.0131390728476822	-3.48609271523179	-8.65218543046358	-0.0259602649006601				0.917827814569536	0.0307284768211921	-0.26394701986755	-5.59258278145695	-1.81350993377483	-1.88026490066225				0.528529801324503	-0.320529801324503	-0.661721854304636	-2.27708609271523	4.6635761589404	9.18437086092715				0.932026490066225	0.115496688741722	0.0539337748344371	-17.1282119205298	-6.10807947019868	1.34251655629139				0.575788079470199	0.193165562913907	-0.756238410596026	-13.6996026490066	-4.60238410596027	11.565298013245			
85	1900	0.999841059602649	0.0667549668874172	-0.039523178807947	-5.28662251655629	-0.984635761589404	-1.46490066225166				0.976953642384106	0.143788079470199	0.0291390728476822	-3.20609271523179	-1.93218543046358	3.61403973509934				0.901827814569536	0.0467284768211921	-0.27994701986755	-2.51258278145695	-1.25350993377483	-1.04026490066225				0.560529801324503	-0.352529801324503	-0.677721854304636	0.802913907284768	5.7835761589404	9.46437086092715				0.932026490066225	0.115496688741722	0.0379337748344371	-13.2082119205298	-4.98807947019868	2.18251655629139				0.575788079470199	0.193165562913907	-0.756238410596026	-3.05960264900662	-6.84238410596027	10.445298013245			
86	1920	0.967841059602649	0.0827549668874172	-0.039523178807947	-3.60662251655629	-2.9446357615894	-0.904900662251656				0.960953642384106	0.191788079470199	0.0131390728476822	-4.04609271523179	-4.73218543046358	1.09403973509934				0.933827814569536	0.110728476821192	-0.24794701986755	-11.752582781457	-1.25350993377483	0.63973509933775				0.576529801324503	-0.352529801324503	-0.677721854304636	-0.317086092715232	5.7835761589404	6.66437086092715				0.932026490066225	0.115496688741722	0.0699337748344371	-10.6882119205298	0.891920529801325	1.90251655629139				0.575788079470199	0.177165562913907	-0.772238410596026	3.94039735099338	-7.68238410596027	8.48529801324503			
87	1940	0.967841059602649	0.0507549668874172	-0.039523178807947	0.0333774834437086	-2.3846357615894	-1.74490066225166				0.960953642384106	0.191788079470199	-0.0348609271523178	5.19390728476821	-19.0121854304636	-1.98596026490066				0.917827814569536	0.110728476821192	-0.31194701986755	-5.87258278145695	-5.17350993377483	0.63973509933775				0.576529801324503	-0.336529801324503	-0.661721854304636	-0.597086092715232	9.7035761589404	3.30437086092715				0.964026490066225	0.0994966887417219	0.0379337748344371	-7.6082119205298	1.45192052980132	2.46251655629139				0.559788079470199	0.145165562913907	-0.772238410596026	5.34039735099338	-4.04238410596027	7.08529801324503			
88	2080	0	0	0	0	0	0				0.976953642384106	0.159788079470199	-0.0828609271523179	9.67390728476821	-4.45218543046358	1.09403973509934				0.933827814569536	0.0627284768211921	-0.29594701986755	3.64741721854305	-3.21350993377483	-1.04026490066225				0	0	0	0	0	0				0.980026490066225	0.0674966887417219	0.0539337748344371	6.3917880794702	-0.228079470198675	2.74251655629139				0.575788079470199	0.0971655629139073	-0.756238410596026	4.22039735099338	0.437615894039735	-2.71470198675497			
89	2100	0.967841059602649	0.0507549668874172	-0.151523178807947	2.83337748344371	-2.9446357615894	-1.46490066225166				0.928953642384106	0.159788079470199	-0.0828609271523179	15.5539072847682	-12.8521854304636	-1.70596026490066				0.901827814569536	0.0627284768211921	-0.29594701986755	6.44741721854305	-4.89350993377483	0.0797350993377501				0.560529801324503	-0.400529801324503	-0.709721854304636	11.4429139072848	-2.0564238410596	-2.57562913907285				0.964026490066225	0.0674966887417219	0.0219337748344371	5.2717880794702	-1.06807947019868	1.06251655629139				0.591788079470199	0.113165562913907	-0.756238410596026	5.90039735099338	-1.24238410596026	-4.39470198675497			
90	2120	0.951841059602649	0.0667549668874172	-0.119523178807947	1.15337748344371	-3.2246357615894	-0.624900662251656				0.944953642384106	0.0957880794701987	-0.0668609271523178	13.0339072847682	-6.97218543046358	-1.42596026490066				0.885827814569536	0.0627284768211921	-0.29594701986755	2.80741721854305	-2.37350993377483	0.35973509933775				0.544529801324503	-0.416529801324503	-0.709721854304636	5.28291390728477	-2.0564238410596	-4.53562913907285				0.964026490066225	0.0674966887417219	0.0219337748344371	5.8317880794702	-0.228079470198675	0.782516556291392				0.575788079470199	0.113165562913907	-0.740238410596026	7.02039735099338	-3.48238410596027	-6.07470198675497			
91	2140	0.983841059602649	0.0187549668874172	-0.103523178807947	2.27337748344371	-3.5046357615894	-0.904900662251656				1.00895364238411	0.127788079470199	-0.0988609271523179	1.55390728476821	-6.41218543046358	-5.06596026490066				0.933827814569536	0.0787284768211921	-0.31194701986755	-4.19258278145695	-4.33350993377483	-0.20026490066225				0.528529801324503	-0.384529801324503	-0.693721854304636	4.16291390728477	-3.7364238410596	-6.21562913907285				0.964026490066225	0.0674966887417219	0.0379337748344371	6.3917880794702	0.611920529801325	-0.0574834437086077				0.559788079470199	0.113165562913907	-0.740238410596026	7.30039735099338	-1.80238410596026	-4.39470198675497			
92	2160	0.967841059602649	0.0347549668874172	-0.151523178807947	0.0333774834437086	-5.1846357615894	-1.46490066225166				1.00895364238411	0.159788079470199	-0.0988609271523179	-3.20609271523179	-5.29218543046358	-4.78596026490066				0.933827814569536	0.0787284768211921	-0.31194701986755	2.52741721854305	-5.73350993377484	-1.32026490066225				0.528529801324503	-0.368529801324503	-0.693721854304636	8.64291390728477	-2.3364238410596	-5.37562913907285				0.964026490066225	0.0834966887417219	0.0219337748344371	6.9517880794702	-2.46807947019868	0.782516556291392				0.559788079470199	0.129165562913907	-0.756238410596026	5.62039735099338	-0.122384105960265	-3.55470198675497			
93	2180	0.935841059602649	0.0187549668874172	-0.135523178807947	-1.36662251655629	-4.6246357615894	-2.58490066225166				0.976953642384106	0.175788079470199	-0.0988609271523179	-4.88609271523179	-5.57218543046358	-4.22596026490066				0.917827814569536	0.0627284768211921	-0.32794701986755	3.36741721854305	-5.45350993377483	-1.32026490066225				0.528529801324503	-0.400529801324503	-0.709721854304636	7.52291390728477	-1.4964238410596	-4.53562913907285				0.948026490066225	0.0834966887417219	0.00593377483443711	4.9917880794702	-2.74807947019868	0.782516556291392				0.591788079470199	0.145165562913907	-0.756238410596026	4.78039735099338	1.83761589403974	-5.51470198675497			
94	2200	0.951841059602649	0.0347549668874172	-0.135523178807947	-1.36662251655629	-4.6246357615894	-1.46490066225166				0.928953642384106	0.175788079470199	-0.0988609271523179	-1.52609271523179	-9.49218543046358	-4.22596026490066				0.885827814569536	0.0947284768211921	-0.31194701986755	-2.23258278145695	-4.05350993377483	-0.76026490066225				0.544529801324503	-0.416529801324503	-0.709721854304636	3.32291390728477	-4.0164238410596	-3.69562913907285				0.948026490066225	0.0994966887417219	0.0219337748344371	4.4317880794702	0.0519205298013249	1.06251655629139				0.607788079470199	0.161165562913907	-0.756238410596026	5.34039735099338	0.157615894039735	-8.59470198675497			
95	2220	0.967841059602649	0.0187549668874172	-0.119523178807947	-2.48662251655629	-4.6246357615894	-0.344900662251656				0.976953642384106	0.143788079470199	-0.0988609271523179	-0.406092715231788	-13.4121854304636	-5.06596026490066				0.901827814569536	0.0947284768211921	-0.31194701986755	-2.51258278145695	-3.77350993377483	-0.20026490066225				0.560529801324503	-0.384529801324503	-0.709721854304636	1.36291390728477	-5.6964238410596	-3.13562913907285				0.964026490066225	0.0994966887417219	0.0699337748344371	6.3917880794702	4.53192052980133	0.782516556291392				0.591788079470199	0.129165562913907	-0.740238410596026	7.86039735099338	-0.682384105960265	-9.71470198675497			
96	2240	0.967841059602649	0.0187549668874172	-0.135523178807947	-2.48662251655629	-3.7846357615894	-0.904900662251656				1.00895364238411	0.143788079470199	-0.0988609271523179	-2.64609271523179	-10.6121854304636	-6.18596026490066				0.917827814569536	0.0627284768211921	-0.31194701986755	-1.11258278145695	-3.21350993377483	0.35973509933775				0.560529801324503	-0.368529801324503	-0.709721854304636	3.32291390728477	-4.0164238410596	-4.25562913907285				0.996026490066225	0.0994966887417219	0.00593377483443711	6.3917880794702	-0.228079470198675	1.06251655629139				0.591788079470199	0.0971655629139073	-0.740238410596026	3.38039735099338	-0.682384105960265	-8.03470198675497			
97	2260	0.967841059602649	0.0507549668874172	-0.135523178807947	-2.48662251655629	-3.2246357615894	-0.344900662251656				0.976953642384106	0.191788079470199	-0.0988609271523179	-3.48609271523179	-7.25218543046358	-3.38596026490066				0.901827814569536	0.0627284768211921	-0.31194701986755	1.12741721854305	-2.65350993377483	0.63973509933775				0.560529801324503	-0.368529801324503	-0.709721854304636	3.32291390728477	-1.7764238410596	-5.09562913907285				0.996026490066225	0.0994966887417219	0.0379337748344371	1.6317880794702	1.45192052980132	-0.897483443708608				0.575788079470199	0.113165562913907	-0.724238410596026	1.70039735099338	1.55761589403974	-7.75470198675497			
98	2280	0.951841059602649	0.0507549668874172	-0.103523178807947	0.593377483443709	-4.0646357615894	-0.904900662251656				0.944953642384106	0.191788079470199	-0.0988609271523179	-4.88609271523179	-4.73218543046358	-3.66596026490066				0.901827814569536	0.0787284768211921	-0.31194701986755	-4.75258278145695	-2.93350993377483	0.35973509933775				0.528529801324503	-0.384529801324503	-0.709721854304636	6.68291390728477	-0.9364238410596	-4.25562913907285				0.964026490066225	0.0834966887417219	0.0379337748344371	1.9117880794702	-2.18807947019868	-1.45748344370861				0.591788079470199	0.145165562913907	-0.740238410596026	-2.77960264900662	2.67761589403974	-9.43470198675497			
99	2300	0.951841059602649	0.0347549668874172	-0.135523178807947	0.0333774834437086	-3.7846357615894	-0.624900662251656				0.944953642384106	0.159788079470199	-0.114860927152318	-0.406092715231788	-10.0521854304636	-3.38596026490066				0.917827814569536	0.0787284768211921	-0.32794701986755	-1.95258278145695	-3.77350993377483	1.19973509933775				0.528529801324503	-0.416529801324503	-0.725721854304636	6.12291390728477	-3.4564238410596	-1.45562913907285				0.964026490066225	0.0834966887417219	-0.0100662251655629	3.0317880794702	-3.86807947019868	-0.617483443708608				0.607788079470199	0.145165562913907	-0.788238410596027	1.42039735099338	-1.80238410596026	-11.954701986755			
100	2320	0.951841059602649	0.0347549668874172	-0.119523178807947	-1.92662251655629	-2.9446357615894	-0.0649006622516557				0.992953642384106	0.159788079470199	-0.114860927152318	-1.24609271523179	-10.6121854304636	-1.70596026490066				0.917827814569536	0.0787284768211921	-0.32794701986755	1.96741721854305	-6.01350993377483	0.0797350993377501				0.544529801324503	-0.416529801324503	-0.725721854304636	-0.0370860927152318	-6.2564238410596	0.224370860927152				0.948026490066225	0.0834966887417219	0.0379337748344371	4.4317880794702	-2.74807947019868	-0.0574834437086077				0.591788079470199	0.113165562913907	-0.772238410596026	3.38039735099338	-2.64238410596027	-10.274701986755			
101	2340	0.967841059602649	0.0187549668874172	-0.135523178807947	-1.36662251655629	-3.2246357615894	-0.0649006622516557				0.992953642384106	0.143788079470199	-0.0988609271523179	-6.28609271523179	-8.93218543046358	-1.98596026490066				0.885827814569536	0.0787284768211921	-0.34394701986755	1.68741721854305	-5.45350993377483	0.0797350993377501				0.544529801324503	-0.400529801324503	-0.709721854304636	-6.19708609271523	-6.2564238410596	0.784370860927152				0.996026490066225	0.0834966887417219	0.0219337748344371	0.231788079470198	-2.18807947019868	0.222516556291392				0.591788079470199	0.0651655629139073	-0.772238410596026	-1.37960264900662	-2.36238410596027	-6.07470198675497			
102	2360	0.951841059602649	0.0347549668874172	-0.151523178807947	-2.20662251655629	-3.2246357615894	-0.624900662251656				0.944953642384106	0.175788079470199	-0.0828609271523179	-6.56609271523179	-9.21218543046358	-0.86596026490066				0.901827814569536	0.0627284768211921	-0.32794701986755	-2.23258278145695	-2.65350993377483	-0.48026490066225				0.512529801324503	-0.384529801324503	-0.693721854304636	-0.317086092715232	-4.2964238410596	1.34437086092715				0.980026490066225	0.0834966887417219	0.0219337748344371	0.511788079470198	-2.18807947019868	-0.0574834437086077				0.575788079470199	0.0971655629139073	-0.756238410596026	-4.73960264900662	-1.80238410596026	-3.83470198675497			
103	2380	0.951841059602649	0.0347549668874172	-0.119523178807947	-1.64662251655629	-1.8246357615894	-1.18490066225166				0.976953642384106	0.191788079470199	-0.130860927152318	0.153907284768212	-9.77218543046358	0.25403973509934				0.917827814569536	0.0627284768211921	-0.31194701986755	-2.79258278145695	-4.05350993377483	-1.04026490066225				0.512529801324503	-0.384529801324503	-0.693721854304636	1.92291390728477	-2.0564238410596	1.62437086092715				0.948026490066225	0.0674966887417219	0.0219337748344371	-0.608211920529802	-2.74807947019868	0.502516556291392				0.575788079470199	0.145165562913907	-0.772238410596026	-4.73960264900662	-1.24238410596026	-2.15470198675497			
104	2400	0.967841059602649	0.0187549668874172	-0.119523178807947	-1.92662251655629	-2.9446357615894	-0.624900662251656				0.976953642384106	0.175788079470199	-0.146860927152318	1.27390728476821	-8.65218543046358	0.53403973509934				0.933827814569536	0.0627284768211921	-0.31194701986755	-1.39258278145695	-2.37350993377483	0.35973509933775				0.528529801324503	-0.416529801324503	-0.693721854304636	-0.317086092715232	-3.7364238410596	3.30437086092715				0.964026490066225	0.0514966887417219	0.00593377483443711	-0.328211920529802	-3.02807947019868	1.06251655629139				0.591788079470199	0.129165562913907	-0.772238410596026	1.98039735099338	-3.48238410596027	-2.43470198675497			
105	2420	0.967841059602649	0.0187549668874172	-0.151523178807947	-1.64662251655629	-3.7846357615894	-0.624900662251656				0.960953642384106	0.143788079470199	-0.146860927152318	-4.88609271523179	-5.85218543046358	-0.0259602649006601				0.901827814569536	0.0627284768211921	-0.32794701986755	-0.552582781456954	-2.65350993377483	0.35973509933775				0.512529801324503	-0.432529801324503	-0.693721854304636	-2.27708609271523	-3.7364238410596	3.86437086092715				0.964026490066225	0.0514966887417219	0.0219337748344371	-1.4482119205298	-1.90807947019868	1.62251655629139				0.575788079470199	0.113165562913907	-0.788238410596027	5.34039735099338	-6.28238410596027	-1.31470198675497			
106	2440	0.967841059602649	0.0347549668874172	-0.135523178807947	-1.08662251655629	-2.1046357615894	-0.904900662251656				0.944953642384106	0.159788079470199	-0.130860927152318	-6.28609271523179	-3.89218543046358	-2.26596026490066				0.885827814569536	0.0627284768211921	-0.31194701986755	-3.63258278145695	-1.81350993377483	0.63973509933775				0.528529801324503	-0.400529801324503	-0.693721854304636	-1.43708609271523	-0.6564238410596	3.30437086092715				0.980026490066225	0.0674966887417219	0.0219337748344371	-2.8482119205298	-2.74807947019868	1.34251655629139				0.575788079470199	0.0971655629139073	-0.772238410596026	1.42039735099338	-5.16238410596027	2.88529801324503			
107	2460	0.967841059602649	0.0347549668874172	-0.135523178807947	-1.92662251655629	-2.1046357615894	-0.0649006622516557				0.976953642384106	0.175788079470199	-0.114860927152318	-1.24609271523179	-3.61218543046358	-1.70596026490066				0.901827814569536	0.0787284768211921	-0.31194701986755	-1.67258278145695	-2.37350993377483	0.63973509933775				0.512529801324503	-0.384529801324503	-0.677721854304636	-0.597086092715232	1.0235761589404	2.46437086092715				0.964026490066225	0.0674966887417219	0.00593377483443711	-5.3682119205298	-2.46807947019868	0.782516556291392				0.559788079470199	0.113165562913907	-0.772238410596026	-2.77960264900662	-3.76238410596027	4.28529801324503			
108	2480	0.951841059602649	0.0187549668874172	-0.119523178807947	-1.08662251655629	-3.2246357615894	-0.344900662251656				0.960953642384106	0.159788079470199	-0.130860927152318	0.433907284768212	-4.73218543046358	-0.30596026490066				0.917827814569536	0.0627284768211921	-0.32794701986755	1.12741721854305	-1.53350993377483	0.0797350993377501				0.512529801324503	-0.384529801324503	-0.661721854304636	0.242913907284768	1.5835761589404	3.30437086092715				0.964026490066225	0.0514966887417219	0.0219337748344371	-4.2482119205298	-2.18807947019868	1.90251655629139				0.559788079470199	0.145165562913907	-0.772238410596026	-1.09960264900662	-3.76238410596027	2.04529801324503			
109	2500	0.967841059602649	0.0187549668874172	-0.119523178807947	-0.806622516556291	-4.0646357615894	-0.904900662251656				0.928953642384106	0.175788079470199	-0.130860927152318	-2.64609271523179	-3.89218543046358	-1.14596026490066				0.917827814569536	0.0627284768211921	-0.29594701986755	-1.11258278145695	-3.21350993377483	0.0797350993377501				0.528529801324503	-0.384529801324503	-0.693721854304636	4.72291390728477	1.8635761589404	3.02437086092715				0.948026490066225	0.0834966887417219	0.0219337748344371	-5.3682119205298	-1.62807947019868	1.62251655629139				0.559788079470199	0.161165562913907	-0.788238410596027	2.54039735099338	-5.44238410596027	-0.754701986754968			
110	2520	0.967841059602649	0.0187549668874172	-0.103523178807947	-0.246622516556291	-2.6646357615894	-0.904900662251656				0.976953642384106	0.175788079470199	-0.130860927152318	-3.20609271523179	-2.21218543046358	-0.585960264900661				0.901827814569536	0.0627284768211921	-0.32794701986755	0.847417218543046	-1.53350993377483	-0.76026490066225				0.528529801324503	-0.400529801324503	-0.677721854304636	4.72291390728477	2.9835761589404	3.02437086092715				0.964026490066225	0.0834966887417219	0.00593377483443711	-3.6882119205298	-2.18807947019868	3.02251655629139				0.543788079470199	0.145165562913907	-0.788238410596027	4.50039735099338	-5.16238410596027	-1.03470198675497			
111	2540	0.967841059602649	0.0347549668874172	-0.135523178807947	-0.806622516556291	-2.3846357615894	-0.624900662251656				0.960953642384106	0.175788079470199	-0.130860927152318	-2.36609271523179	-4.17218543046358	-0.585960264900661				0.901827814569536	0.0787284768211921	-0.32794701986755	1.40741721854305	-0.973509933774833	-1.32026490066225				0.528529801324503	-0.400529801324503	-0.693721854304636	0.802913907284768	2.1435761589404	1.90437086092715				0.964026490066225	0.0674966887417219	0.00593377483443711	-1.1682119205298	0.611920529801325	2.74251655629139				0.527788079470199	0.145165562913907	-0.772238410596026	2.26039735099338	-2.08238410596027	0.645298013245032			
112	2560	0.967841059602649	0.0347549668874172	-0.119523178807947	-0.526622516556291	-1.8246357615894	-1.18490066225166				0.960953642384106	0.175788079470199	-0.146860927152318	0.433907284768212	-4.45218543046358	-0.86596026490066				0.917827814569536	0.0787284768211921	-0.32794701986755	0.847417218543046	-2.65350993377483	-2.16026490066225				0.528529801324503	-0.400529801324503	-0.693721854304636	2.48291390728477	0.7435761589404	1.62437086092715				0.980026490066225	0.0674966887417219	0.00593377483443711	-0.888211920529802	0.891920529801325	3.02251655629139				0.543788079470199	0.129165562913907	-0.788238410596027	1.70039735099338	0.997615894039735	0.645298013245032			
113	2580	0.951841059602649	0.0347549668874172	-0.119523178807947	-0.246622516556291	-2.6646357615894	-0.904900662251656				0.960953642384106	0.191788079470199	-0.162860927152318	1.83390728476821	-5.57218543046358	-1.70596026490066				0.917827814569536	0.0627284768211921	-0.32794701986755	3.08741721854305	-2.65350993377483	-1.60026490066225				0.544529801324503	-0.400529801324503	-0.693721854304636	5.00291390728477	1.5835761589404	0.784370860927152				0.980026490066225	0.0514966887417219	0.00593377483443711	0.791788079470198	-0.508079470198675	3.02251655629139				0.543788079470199	0.145165562913907	-0.772238410596026	2.54039735099338	1.83761589403974	-3.27470198675497			
114	2600	0.967841059602649	0.0187549668874172	-0.135523178807947	-0.246622516556291	-2.1046357615894	-1.18490066225166				0.960953642384106	0.175788079470199	-0.146860927152318	2.67390728476821	-0.812185430463576	-0.0259602649006601				0.885827814569536	0.0627284768211921	-0.31194701986755	1.96741721854305	-0.973509933774833	-2.44026490066225				0.544529801324503	-0.400529801324503	-0.709721854304636	5.00291390728477	1.8635761589404	-0.895629139072848				0.964026490066225	0.0674966887417219	0.00593377483443711	-0.0482119205298018	-1.62807947019868	2.46251655629139				0.559788079470199	0.145165562913907	-0.788238410596027	4.50039735099338	0.157615894039735	-6.07470198675497			
115	2620	0.951841059602649	0.0187549668874172	-0.135523178807947	0.873377483443709	-1.2646357615894	-0.904900662251656				0.960953642384106	0.175788079470199	-0.146860927152318	1.83390728476821	0.867814569536424	1.37403973509934				0.901827814569536	0.0787284768211921	-0.31194701986755	2.52741721854305	1.82649006622517	-2.16026490066225				0.576529801324503	-0.416529801324503	-0.709721854304636	3.32291390728477	0.1835761589404	-1.73562913907285				0.980026490066225	0.0834966887417219	0.00593377483443711	1.9117880794702	-2.74807947019868	1.90251655629139				0.559788079470199	0.129165562913907	-0.804238410596027	4.78039735099338	-1.24238410596026	-6.91470198675497			
116	2640	0.967841059602649	0.0347549668874172	-0.151523178807947	2.55337748344371	-0.144635761589404	-0.904900662251656				0.960953642384106	0.191788079470199	-0.162860927152318	2.67390728476821	-1.65218543046358	1.37403973509934				0.917827814569536	0.0787284768211921	-0.31194701986755	2.24741721854305	0.426490066225167	-1.04026490066225				0.560529801324503	-0.416529801324503	-0.693721854304636	4.16291390728477	-2.0564238410596	-0.615629139072848				0.996026490066225	0.0834966887417219	-0.0100662251655629	2.4717880794702	-0.788079470198675	2.74251655629139				0.559788079470199	0.129165562913907	-0.804238410596027	5.62039735099338	-0.402384105960265	-4.95470198675497			
117	2660	0.967841059602649	0.0347549668874172	-0.151523178807947	0.313377483443709	-0.424635761589404	-1.74490066225166				0.976953642384106	0.175788079470199	-0.162860927152318	-0.406092715231788	-3.89218543046358	0.53403973509934				0.917827814569536	0.0627284768211921	-0.34394701986755	0.847417218543046	-0.413509933774833	-0.76026490066225				0.544529801324503	-0.400529801324503	-0.693721854304636	3.04291390728477	-1.4964238410596	-0.615629139072848				0.980026490066225	0.0674966887417219	0.00593377483443711	4.4317880794702	-1.34807947019868	3.02251655629139				0.559788079470199	0.113165562913907	-0.788238410596027	3.38039735099338	-2.08238410596027	-2.71470198675497			
118	2680	0.951841059602649	0.0347549668874172	-0.151523178807947	-2.20662251655629	-2.1046357615894	-1.46490066225166				0.976953642384106	0.175788079470199	-0.162860927152318	-2.92609271523179	1.14781456953642	2.49403973509934				0.901827814569536	0.0787284768211921	-0.35994701986755	3.36741721854305	0.706490066225167	-1.04026490066225				0.528529801324503	-0.416529801324503	-0.693721854304636	3.32291390728477	-1.2164238410596	-0.615629139072848				0.964026490066225	0.0674966887417219	0.00593377483443711	4.4317880794702	-3.58807947019868	2.46251655629139				0.543788079470199	0.0971655629139073	-0.772238410596026	1.98039735099338	-2.36238410596027	-0.474701986754968			
119	2700	0.951841059602649	0.0347549668874172	-0.167523178807947	-0.246622516556291	1.5353642384106	-1.46490066225166				0.960953642384106	0.159788079470199	-0.146860927152318	-2.36609271523179	5.06781456953642	4.73403973509934				0.901827814569536	0.0947284768211921	-0.34394701986755	0.567417218543046	-0.133509933774833	-0.76026490066225				0.496529801324503	-0.432529801324503	-0.693721854304636	3.60291390728477	1.0235761589404	1.62437086092715				0.948026490066225	0.0514966887417219	0.00593377483443711	2.7517880794702	-4.42807947019868	2.18251655629139				0.559788079470199	0.113165562913907	-0.772238410596026	-0.539602649006623	-0.962384105960265	-0.754701986754968			
120	2720	0.951841059602649	0.0347549668874172	-0.167523178807947	1.43337748344371	1.2553642384106	-2.02490066225166				0.928953642384106	0.175788079470199	-0.162860927152318	-0.126092715231788	1.42781456953642	4.17403973509934				0.885827814569536	0.0787284768211921	-0.34394701986755	-0.272582781456954	-0.973509933774833	-1.04026490066225				0.496529801324503	-0.432529801324503	-0.709721854304636	5.00291390728477	0.4635761589404	1.62437086092715				0.964026490066225	0.0354966887417219	0.00593377483443711	3.0317880794702	-3.58807947019868	1.90251655629139				0.559788079470199	0.113165562913907	-0.788238410596027	3.10039735099338	-2.36238410596027	0.365298013245032			
