No	Time	12-AccX	12-AccY	12-AccZ	12-GyroX	12-GyroY	12-GyroZ	13-AccX	13-AccY	13-AccZ	13-GyroX	13-GyroY	13-GyroZ	14-AccX	14-AccY	14-AccZ	14-GyroX	14-GyroY	14-GyroZ	15-AccX	15-AccY	15-AccZ	15-GyroX	15-GyroY	15-GyroZ	16-AccX	16-AccY	16-AccZ	16-GyroX	16-GyroY	16-GyroZ	17-AccX	17-AccY	17-AccZ	17-GyroX	17-GyroY	17-GyroZ
0	120	-0.200158940397351	0.0987549668874172	-0.951523178807947	-0.526622516556291	0.415364238410596	-1.46490066225166				0.944953642384106	0.111788079470199	0.285139072847682	-2.36609271523179	3.38781456953642	-0.0259602649006601				-0.218172185430464	-0.0332715231788079	-0.88794701986755	1.68741721854305	-0.413509933774833	-0.48026490066225				0	0	0	0	0	0				0	0	0	0	0	0				0.511788079470199	-0.0628344370860927	-0.788238410596027	1.70039735099338	1.27761589403974	-1.87470198675497			
1	140	-0.200158940397351	0.0987549668874172	-0.951523178807947	0.593377483443709	0.695364238410596	-0.904900662251656				0.944953642384106	0.127788079470199	0.301139072847682	-0.686092715231788	2.26781456953642	0.25403973509934				-0.218172185430464	-0.0332715231788079	-0.90394701986755	0.00741721854304636	-0.973509933774833	0.0797350993377501				0.592529801324503	-0.288529801324503	-0.709721854304636	2.20291390728477	3.2635761589404	-0.895629139072848				0.948026490066225	0.0674966887417219	0.197933774834437	0.511788079470198	1.17192052980133	-0.337483443708608				0.511788079470199	-0.0948344370860927	-0.804238410596027	3.10039735099338	1.55761589403974	-1.59470198675497			
2	160	-0.200158940397351	0.0987549668874172	-0.935523178807947	-0.246622516556291	-0.144635761589404	-0.904900662251656				0.960953642384106	0.127788079470199	0.301139072847682	-0.686092715231788	3.66781456953642	-0.585960264900661				-0.202172185430464	-0.0332715231788079	-0.88794701986755	1.40741721854305	0.146490066225167	0.35973509933775				0.592529801324503	-0.288529801324503	-0.725721854304636	-1.15708609271523	1.3035761589404	-0.335629139072848				0.948026490066225	0.0834966887417219	0.197933774834437	1.0717880794702	2.57192052980133	1.06251655629139				0.543788079470199	-0.0948344370860927	-0.788238410596027	3.66039735099338	0.437615894039735	-1.59470198675497			
3	180	-0.184158940397351	0.0987549668874172	-0.951523178807947	-0.526622516556291	0.135364238410596	-1.46490066225166				0.960953642384106	0.127788079470199	0.301139072847682	0.153907284768212	2.26781456953642	-0.30596026490066				-0.202172185430464	-0.0172715231788079	-0.88794701986755	0.287417218543046	-0.413509933774833	0.0797350993377501				0.592529801324503	-0.288529801324503	-0.709721854304636	-0.597086092715232	0.4635761589404	-0.0556291390728476				0.964026490066225	0.0674966887417219	0.213933774834437	1.6317880794702	3.13192052980133	0.782516556291392				0.527788079470199	-0.110834437086093	-0.788238410596027	1.70039735099338	0.157615894039735	-0.754701986754968			
4	200	-0.184158940397351	0.114754966887417	-0.951523178807947	-0.806622516556291	0.135364238410596	-0.624900662251656				0.960953642384106	0.127788079470199	0.285139072847682	1.27390728476821	-0.252185430463576	0.25403973509934				-0.218172185430464	-0.0332715231788079	-0.90394701986755	2.52741721854305	0.146490066225167	-0.20026490066225				0.592529801324503	-0.288529801324503	-0.709721854304636	-0.597086092715232	0.4635761589404	0.224370860927152				0.964026490066225	0.0674966887417219	0.213933774834437	0.791788079470198	1.17192052980133	0.222516556291392				0.527788079470199	-0.110834437086093	-0.788238410596027	-1.09960264900662	-0.962384105960265	0.0852980132450323			
5	220	-0.184158940397351	0.0987549668874172	-0.951523178807947	0.0333774834437086	0.415364238410596	-0.624900662251656				0.960953642384106	0.127788079470199	0.301139072847682	1.55390728476821	-0.812185430463576	1.09403973509934				-0.202172185430464	-0.0332715231788079	-0.90394701986755	0.00741721854304636	0.146490066225167	0.63973509933775				0.592529801324503	-0.304529801324503	-0.709721854304636	-1.71708609271523	-0.9364238410596	-0.0556291390728476				0.964026490066225	0.0674966887417219	0.213933774834437	-0.328211920529802	2.01192052980133	0.222516556291392				0.527788079470199	-0.0948344370860927	-0.804238410596027	-0.539602649006623	-0.962384105960265	0.365298013245032			
6	240	-0.184158940397351	0.114754966887417	-0.951523178807947	0.313377483443709	0.135364238410596	-0.624900662251656				0.944953642384106	0.111788079470199	0.301139072847682	-0.126092715231788	0.867814569536424	1.37403973509934				-0.202172185430464	-0.0172715231788079	-0.90394701986755	0.287417218543046	0.706490066225167	-0.48026490066225				0.592529801324503	-0.304529801324503	-0.709721854304636	-1.15708609271523	-0.6564238410596	0.224370860927152				0.948026490066225	0.0514966887417219	0.197933774834437	-0.328211920529802	0.331920529801325	-0.337483443708608				0.527788079470199	-0.0948344370860927	-0.804238410596027	2.54039735099338	-0.682384105960265	-1.31470198675497			
7	260	-0.184158940397351	0.114754966887417	-0.967523178807947	0.0333774834437086	0.695364238410596	-1.18490066225166				0.960953642384106	0.111788079470199	0.301139072847682	-0.966092715231788	0.867814569536424	0.53403973509934				-0.202172185430464	-0.0332715231788079	-0.88794701986755	-0.272582781456954	1.54649006622517	-0.20026490066225				0.576529801324503	-0.272529801324503	-0.709721854304636	-2.27708609271523	-0.9364238410596	1.34437086092715				0.948026490066225	0.0674966887417219	0.213933774834437	0.231788079470198	1.73192052980133	-0.897483443708608				0.511788079470199	-0.110834437086093	-0.772238410596026	1.98039735099338	-1.52238410596026	-0.754701986754968			
8	280	-0.184158940397351	0.114754966887417	-0.951523178807947	-0.246622516556291	1.2553642384106	-0.624900662251656				0.960953642384106	0.127788079470199	0.301139072847682	-0.126092715231788	-0.252185430463576	-0.585960264900661				-0.202172185430464	-0.0332715231788079	-0.90394701986755	0.287417218543046	0.706490066225167	-0.76026490066225				0.592529801324503	-0.272529801324503	-0.709721854304636	-1.43708609271523	-0.6564238410596	1.62437086092715				0.948026490066225	0.0674966887417219	0.213933774834437	-1.1682119205298	1.17192052980133	-0.337483443708608				0.511788079470199	-0.110834437086093	-0.788238410596027	-0.539602649006623	-1.24238410596026	-0.474701986754968			
9	300	-0.184158940397351	0.0987549668874172	-0.935523178807947	0.0333774834437086	0.415364238410596	-1.18490066225166				0.944953642384106	0.127788079470199	0.301139072847682	-0.126092715231788	-1.09218543046358	-0.30596026490066				-0.202172185430464	-0.0332715231788079	-0.90394701986755	-0.552582781456954	2.10649006622517	0.0797350993377501				0.576529801324503	-0.288529801324503	-0.709721854304636	-0.877086092715232	0.1835761589404	2.74437086092715				0.948026490066225	0.0674966887417219	0.197933774834437	1.3517880794702	0.611920529801325	-0.0574834437086077				0.527788079470199	-0.0948344370860927	-0.788238410596027	-1.09960264900662	-1.24238410596026	-0.754701986754968			
10	320	-0.184158940397351	0.0987549668874172	-0.951523178807947	0.593377483443709	0.135364238410596	-0.904900662251656				0.960953642384106	0.127788079470199	0.285139072847682	0.433907284768212	-1.37218543046358	0.53403973509934				-0.202172185430464	-0.0332715231788079	-0.88794701986755	-1.39258278145695	0.146490066225167	-0.20026490066225				0.592529801324503	-0.288529801324503	-0.693721854304636	-0.877086092715232	-0.6564238410596	2.46437086092715				0.948026490066225	0.0514966887417219	0.213933774834437	-0.328211920529802	0.611920529801325	-0.337483443708608				0.511788079470199	-0.0948344370860927	-0.788238410596027	0.300397350993377	-0.402384105960265	-1.31470198675497			
11	340	-0.200158940397351	0.0987549668874172	-0.951523178807947	0.593377483443709	0.135364238410596	-0.624900662251656				0.944953642384106	0.111788079470199	0.285139072847682	-0.966092715231788	-1.09218543046358	-0.0259602649006601				-0.202172185430464	-0.0332715231788079	-0.88794701986755	0.287417218543046	-0.693509933774834	0.0797350993377501				0.576529801324503	-0.288529801324503	-0.709721854304636	0.522913907284768	-0.9364238410596	2.74437086092715				0.948026490066225	0.0674966887417219	0.197933774834437	-1.4482119205298	0.611920529801325	-0.0574834437086077				0.511788079470199	-0.0788344370860927	-0.788238410596027	0.300397350993377	-0.682384105960265	-1.03470198675497			
12	360	-0.184158940397351	0.0987549668874172	-0.951523178807947	0.593377483443709	-0.144635761589404	-1.18490066225166				0.960953642384106	0.127788079470199	0.285139072847682	-0.966092715231788	-0.532185430463576	-0.30596026490066				-0.218172185430464	-0.0332715231788079	-0.88794701986755	0.00741721854304636	-0.413509933774833	0.63973509933775				0.576529801324503	-0.288529801324503	-0.709721854304636	-0.0370860927152318	-0.0964238410596001	2.74437086092715				0.948026490066225	0.0674966887417219	0.213933774834437	-0.328211920529802	0.891920529801325	-0.337483443708608				0.511788079470199	-0.0948344370860927	-0.788238410596027	1.14039735099338	-1.80238410596026	-1.59470198675497			
13	380	-0.200158940397351	0.0987549668874172	-0.951523178807947	0.593377483443709	0.695364238410596	-0.904900662251656				0.960953642384106	0.127788079470199	0.301139072847682	-0.406092715231788	0.307814569536424	0.81403973509934				-0.218172185430464	-0.0332715231788079	-0.91994701986755	0.567417218543046	-0.133509933774833	0.63973509933775				0.576529801324503	-0.272529801324503	-0.709721854304636	-0.0370860927152318	-0.3764238410596	3.58437086092715				0.932026490066225	0.0674966887417219	0.197933774834437	-0.608211920529802	1.17192052980133	-0.617483443708608				0.495788079470199	-0.0948344370860927	-0.788238410596027	1.70039735099338	-1.80238410596026	-0.754701986754968			
14	400	-0.200158940397351	0.114754966887417	-0.951523178807947	0.873377483443709	0.975364238410596	-1.18490066225166				0.960953642384106	0.127788079470199	0.301139072847682	0.433907284768212	-2.77218543046358	1.09403973509934				-0.218172185430464	-0.0332715231788079	-0.88794701986755	0.567417218543046	0.706490066225167	0.63973509933775				0.576529801324503	-0.272529801324503	-0.709721854304636	0.522913907284768	0.4635761589404	2.18437086092715				0.948026490066225	0.0514966887417219	0.197933774834437	-0.888211920529802	2.01192052980133	-0.337483443708608				0.511788079470199	-0.0948344370860927	-0.788238410596027	0.860397350993377	-2.08238410596027	-1.03470198675497			
15	420	-0.184158940397351	0.114754966887417	-0.935523178807947	-0.806622516556291	0.135364238410596	-1.46490066225166				0.944953642384106	0.127788079470199	0.285139072847682	1.55390728476821	-5.01218543046358	0.81403973509934				-0.202172185430464	-0.0332715231788079	-0.88794701986755	-0.552582781456954	1.26649006622517	0.63973509933775				0.576529801324503	-0.288529801324503	-0.709721854304636	2.76291390728477	1.3035761589404	1.34437086092715				0.964026490066225	0.0674966887417219	0.197933774834437	-0.888211920529802	2.85192052980133	-1.45748344370861				0.511788079470199	-0.0788344370860927	-0.788238410596027	0.300397350993377	-0.962384105960265	-1.87470198675497			
16	440	-0.184158940397351	0.114754966887417	-0.951523178807947	0.313377483443709	0.135364238410596	-2.30490066225166				0.960953642384106	0.127788079470199	0.285139072847682	1.55390728476821	-4.73218543046358	0.81403973509934				-0.218172185430464	-0.0332715231788079	-0.88794701986755	-0.272582781456954	1.26649006622517	0.35973509933775				0.576529801324503	-0.288529801324503	-0.709721854304636	3.32291390728477	3.8235761589404	1.34437086092715				0.964026490066225	0.0674966887417219	0.197933774834437	-0.608211920529802	0.0519205298013249	-1.45748344370861				0.511788079470199	-0.0788344370860927	-0.788238410596027	1.14039735099338	0.997615894039735	-2.99470198675497			
17	460	-0.184158940397351	0.0987549668874172	-0.951523178807947	1.71337748344371	0.135364238410596	-1.74490066225166				0.944953642384106	0.127788079470199	0.285139072847682	0.713907284768212	-1.93218543046358	0.25403973509934				-0.202172185430464	-0.0332715231788079	-0.91994701986755	1.40741721854305	0.426490066225167	0.35973509933775				0.576529801324503	-0.288529801324503	-0.709721854304636	4.16291390728477	3.2635761589404	1.90437086092715				0.948026490066225	0.0674966887417219	0.197933774834437	0.511788079470198	0.0519205298013249	0.222516556291392				0.511788079470199	-0.0948344370860927	-0.804238410596027	0.860397350993377	0.997615894039735	-2.99470198675497			
18	480	-0.184158940397351	0.0987549668874172	-0.967523178807947	-0.526622516556291	0.695364238410596	-1.74490066225166				0.960953642384106	0.127788079470199	0.285139072847682	0.153907284768212	-0.252185430463576	0.25403973509934				-0.202172185430464	-0.0332715231788079	-0.91994701986755	1.68741721854305	0.986490066225167	0.91973509933775				0.576529801324503	-0.272529801324503	-0.725721854304636	3.60291390728477	1.8635761589404	1.34437086092715				0.948026490066225	0.0834966887417219	0.213933774834437	1.9117880794702	0.611920529801325	-0.0574834437086077				0.511788079470199	-0.0948344370860927	-0.788238410596027	-0.259602649006623	0.437615894039735	-1.03470198675497			
19	500	-0.168158940397351	0.0987549668874172	-0.935523178807947	0.0333774834437086	0.415364238410596	-1.74490066225166				0.960953642384106	0.111788079470199	0.301139072847682	0.993907284768212	-0.812185430463576	1.37403973509934				-0.186172185430464	-0.0172715231788079	-0.87194701986755	1.40741721854305	1.54649006622517	0.63973509933775				0.592529801324503	-0.288529801324503	-0.709721854304636	1.36291390728477	0.7435761589404	-0.895629139072848				0.964026490066225	0.0514966887417219	0.213933774834437	2.1917880794702	0.891920529801325	-0.0574834437086077				0.511788079470199	-0.0948344370860927	-0.804238410596027	0.300397350993377	-0.122384105960265	-1.03470198675497			
20	520	-0.184158940397351	0.0827549668874172	-0.951523178807947	0.313377483443709	-0.424635761589404	-1.46490066225166				0.944953642384106	0.111788079470199	0.301139072847682	1.83390728476821	-3.33218543046358	1.65403973509934				-0.186172185430464	-0.0332715231788079	-0.88794701986755	0.847417218543046	0.706490066225167	-0.48026490066225				0.592529801324503	-0.288529801324503	-0.709721854304636	1.64291390728477	1.0235761589404	-1.45562913907285				0.964026490066225	0.0514966887417219	0.197933774834437	2.1917880794702	-0.788079470198675	0.222516556291392				0.511788079470199	-0.0948344370860927	-0.804238410596027	0.860397350993377	0.157615894039735	-0.194701986754968			
21	540	-0.200158940397351	0.0987549668874172	-0.951523178807947	1.43337748344371	-0.424635761589404	-0.624900662251656				0.960953642384106	0.127788079470199	0.269139072847682	0.993907284768212	-2.49218543046358	-0.0259602649006601				-0.202172185430464	-0.0332715231788079	-0.90394701986755	1.40741721854305	0.146490066225167	-1.04026490066225				0.592529801324503	-0.272529801324503	-0.709721854304636	-1.15708609271523	-0.3764238410596	-1.45562913907285				0.932026490066225	0.0834966887417219	0.229933774834437	3.0317880794702	3.69192052980133	-0.337483443708608				0.511788079470199	-0.0948344370860927	-0.788238410596027	1.14039735099338	0.717615894039735	-0.474701986754968			
22	560	-0.200158940397351	0.0827549668874172	-0.951523178807947	0.0333774834437086	0.415364238410596	-1.18490066225166				0.960953642384106	0.127788079470199	0.285139072847682	0.713907284768212	0.0278145695364242	-0.0259602649006601				-0.202172185430464	-0.0332715231788079	-0.90394701986755	0.567417218543046	0.146490066225167	-0.76026490066225				0.592529801324503	-0.288529801324503	-0.693721854304636	-0.597086092715232	-2.0564238410596	-0.895629139072848				0.932026490066225	0.0674966887417219	0.197933774834437	1.9117880794702	0.331920529801325	0.782516556291392				0.511788079470199	-0.0788344370860927	-0.788238410596027	0.860397350993377	0.437615894039735	0.925298013245032			
23	580	-0.184158940397351	0.0987549668874172	-0.951523178807947	-1.36662251655629	0.975364238410596	-0.904900662251656				0.944953642384106	0.111788079470199	0.285139072847682	-1.52609271523179	0.587814569536424	1.09403973509934				-0.202172185430464	-0.0332715231788079	-0.88794701986755	-0.272582781456954	0.706490066225167	-0.76026490066225				0.576529801324503	-0.288529801324503	-0.709721854304636	-0.0370860927152318	-2.8964238410596	-2.01562913907285				0.948026490066225	0.0674966887417219	0.229933774834437	2.4717880794702	0.891920529801325	1.62251655629139				0.527788079470199	-0.0948344370860927	-0.772238410596026	2.82039735099338	0.157615894039735	1.20529801324503			
24	600	-0.184158940397351	0.0987549668874172	-0.935523178807947	-0.806622516556291	-0.144635761589404	-0.624900662251656				0.944953642384106	0.111788079470199	0.317139072847682	-2.08609271523179	-1.37218543046358	-0.30596026490066				-0.186172185430464	-0.0332715231788079	-0.88794701986755	-0.272582781456954	-1.25350993377483	-0.48026490066225				0.576529801324503	-0.288529801324503	-0.709721854304636	1.92291390728477	1.3035761589404	-1.17562913907285				0.932026490066225	0.0514966887417219	0.229933774834437	-0.608211920529802	1.73192052980133	-0.0574834437086077				0.527788079470199	-0.0948344370860927	-0.788238410596027	2.26039735099338	0.157615894039735	0.645298013245032			
25	620	-0.184158940397351	0.0987549668874172	-0.935523178807947	0.313377483443709	-0.424635761589404	-0.624900662251656				0.960953642384106	0.111788079470199	0.349139072847682	0.713907284768212	-5.01218543046358	0.25403973509934				-0.202172185430464	-0.0492715231788079	-0.90394701986755	0.287417218543046	-0.973509933774833	0.91973509933775				0.576529801324503	-0.288529801324503	-0.709721854304636	-0.0370860927152318	1.8635761589404	-0.895629139072848				0.948026490066225	0.0514966887417219	0.213933774834437	1.9117880794702	0.891920529801325	-0.617483443708608				0.527788079470199	-0.0948344370860927	-0.788238410596027	0.0203973509933773	0.997615894039735	-0.194701986754968			
26	640	-0.200158940397351	0.0987549668874172	-0.967523178807947	0.313377483443709	-0.424635761589404	-0.624900662251656				0.960953642384106	0.127788079470199	0.285139072847682	1.83390728476821	-4.45218543046358	0.81403973509934				-0.202172185430464	-0.0492715231788079	-0.91994701986755	-0.272582781456954	-0.973509933774833	0.35973509933775				0.576529801324503	-0.288529801324503	-0.709721854304636	-1.99708609271523	1.3035761589404	-0.335629139072848				0.948026490066225	0.0674966887417219	0.213933774834437	0.791788079470198	1.17192052980133	1.34251655629139				0.543788079470199	-0.0948344370860927	-0.788238410596027	-0.259602649006623	1.83761589403974	-0.194701986754968			
27	660	-0.184158940397351	0.0827549668874172	-0.951523178807947	0.873377483443709	-0.144635761589404	-0.904900662251656				0.960953642384106	0.127788079470199	0.285139072847682	2.11390728476821	-1.93218543046358	-0.0259602649006601				-0.202172185430464	-0.0332715231788079	-0.88794701986755	1.40741721854305	0.426490066225167	0.35973509933775				0.592529801324503	-0.288529801324503	-0.693721854304636	0.802913907284768	1.0235761589404	1.62437086092715				0.948026490066225	0.0674966887417219	0.229933774834437	-0.888211920529802	1.73192052980133	0.502516556291392				0.527788079470199	-0.0948344370860927	-0.788238410596027	1.14039735099338	1.27761589403974	-1.59470198675497			
28	680	-0.200158940397351	0.114754966887417	-0.951523178807947	-1.36662251655629	0.135364238410596	-1.74490066225166				0.960953642384106	0.111788079470199	0.285139072847682	1.27390728476821	-3.61218543046358	0.81403973509934				-0.202172185430464	-0.0172715231788079	-0.88794701986755	-0.552582781456954	0.426490066225167	0.35973509933775				0.592529801324503	-0.288529801324503	-0.693721854304636	3.32291390728477	2.7035761589404	1.90437086092715				0.948026490066225	0.0674966887417219	0.245933774834437	1.0717880794702	0.891920529801325	1.06251655629139				0.527788079470199	-0.0948344370860927	-0.788238410596027	1.70039735099338	0.997615894039735	-1.03470198675497			
29	700	-0.200158940397351	0.114754966887417	-0.951523178807947	-0.806622516556291	0.135364238410596	-0.904900662251656				0.944953642384106	0.127788079470199	0.301139072847682	1.27390728476821	-5.57218543046358	0.25403973509934				-0.202172185430464	-0.0332715231788079	-0.88794701986755	-1.11258278145695	-0.413509933774833	0.0797350993377501				0.608529801324503	-0.304529801324503	-0.709721854304636	1.92291390728477	2.4235761589404	0.504370860927152				0.964026490066225	0.0674966887417219	0.213933774834437	-0.328211920529802	0.331920529801325	0.782516556291392				0.527788079470199	-0.110834437086093	-0.804238410596027	0.860397350993377	0.997615894039735	-0.754701986754968			
30	720	-0.200158940397351	0.0987549668874172	-0.951523178807947	0.593377483443709	-0.144635761589404	-0.904900662251656				0.976953642384106	0.127788079470199	0.285139072847682	2.11390728476821	-8.09218543046358	-0.86596026490066				-0.218172185430464	-0.0332715231788079	-0.90394701986755	-1.39258278145695	-0.413509933774833	0.91973509933775				0.608529801324503	-0.288529801324503	-0.709721854304636	-0.597086092715232	0.7435761589404	0.504370860927152				0.964026490066225	0.0674966887417219	0.213933774834437	-0.0482119205298018	0.331920529801325	0.222516556291392				0.527788079470199	-0.110834437086093	-0.804238410596027	0.0203973509933773	0.157615894039735	-0.474701986754968			
31	740	-0.200158940397351	0.0987549668874172	-0.951523178807947	0.593377483443709	0.415364238410596	-1.46490066225166				0.976953642384106	0.143788079470199	0.253139072847682	3.79390728476821	-6.69218543046358	0.25403973509934				-0.218172185430464	-0.0332715231788079	-0.90394701986755	-1.67258278145695	0.706490066225167	-0.20026490066225				0.592529801324503	-0.288529801324503	-0.709721854304636	1.08291390728477	-0.3764238410596	1.62437086092715				0.948026490066225	0.0674966887417219	0.213933774834437	-1.4482119205298	-0.228079470198675	1.34251655629139				0.527788079470199	-0.0948344370860927	-0.804238410596027	0.860397350993377	-0.402384105960265	0.0852980132450323			
32	760	-0.184158940397351	0.0987549668874172	-0.967523178807947	0.0333774834437086	1.2553642384106	-1.74490066225166				0.960953642384106	0.127788079470199	0.253139072847682	4.07390728476821	-3.89218543046358	0.81403973509934				-0.202172185430464	-0.0332715231788079	-0.88794701986755	-1.11258278145695	1.26649006622517	-0.48026490066225				0.592529801324503	-0.288529801324503	-0.709721854304636	1.92291390728477	-0.9364238410596	0.504370860927152				0.932026490066225	0.0674966887417219	0.213933774834437	-0.328211920529802	0.331920529801325	1.62251655629139				0.511788079470199	-0.110834437086093	-0.788238410596027	1.14039735099338	-0.682384105960265	-0.474701986754968			
33	780	-0.184158940397351	0.0987549668874172	-0.951523178807947	-1.36662251655629	0.695364238410596	-0.624900662251656				0.944953642384106	0.127788079470199	0.269139072847682	2.67390728476821	-3.61218543046358	-0.0259602649006601				-0.202172185430464	-0.0332715231788079	-0.88794701986755	0.847417218543046	0.706490066225167	0.91973509933775				0.576529801324503	-0.304529801324503	-0.709721854304636	1.64291390728477	0.4635761589404	0.784370860927152				0.948026490066225	0.0674966887417219	0.213933774834437	-0.608211920529802	0.0519205298013249	-0.337483443708608				0.511788079470199	-0.110834437086093	-0.788238410596027	0.580397350993377	-0.402384105960265	-0.194701986754968			
34	800	-0.184158940397351	0.0987549668874172	-0.935523178807947	-0.246622516556291	0.415364238410596	-0.624900662251656				0.944953642384106	0.127788079470199	0.269139072847682	1.83390728476821	-5.57218543046358	-0.0259602649006601				-0.202172185430464	-0.0332715231788079	-0.90394701986755	0.847417218543046	0.146490066225167	-0.20026490066225				0.576529801324503	-0.304529801324503	-0.693721854304636	2.48291390728477	1.0235761589404	1.06437086092715				0.948026490066225	0.0674966887417219	0.213933774834437	-2.0082119205298	-0.228079470198675	-0.0574834437086077				0.511788079470199	-0.0788344370860927	-0.804238410596027	0.0203973509933773	-0.122384105960265	-0.474701986754968			
35	820	-0.184158940397351	0.0987549668874172	-0.951523178807947	0.593377483443709	0.415364238410596	-1.18490066225166				0.960953642384106	0.127788079470199	0.269139072847682	3.79390728476821	-4.45218543046358	0.81403973509934				-0.202172185430464	-0.0172715231788079	-0.90394701986755	-0.272582781456954	-0.413509933774833	0.0797350993377501				0.576529801324503	-0.288529801324503	-0.693721854304636	2.48291390728477	-0.0964238410596001	1.06437086092715				0.948026490066225	0.0674966887417219	0.197933774834437	-0.608211920529802	1.45192052980132	0.502516556291392				0.511788079470199	-0.0948344370860927	-0.804238410596027	1.14039735099338	-0.682384105960265	-1.31470198675497			
36	840	-0.200158940397351	0.0987549668874172	-0.951523178807947	0.593377483443709	0.415364238410596	-0.0649006622516557				0.976953642384106	0.127788079470199	0.269139072847682	3.51390728476821	-3.61218543046358	0.81403973509934				-0.218172185430464	-0.0172715231788079	-0.87194701986755	0.00741721854304636	0.706490066225167	0.35973509933775				0.576529801324503	-0.304529801324503	-0.709721854304636	1.92291390728477	-0.3764238410596	1.34437086092715				0.948026490066225	0.0674966887417219	0.213933774834437	0.791788079470198	0.611920529801325	1.06251655629139				0.495788079470199	-0.0948344370860927	-0.804238410596027	1.98039735099338	-1.52238410596026	-1.87470198675497			
37	860	-0.200158940397351	0.114754966887417	-0.951523178807947	-0.806622516556291	0.415364238410596	-0.904900662251656				0.960953642384106	0.127788079470199	0.253139072847682	2.67390728476821	-2.21218543046358	0.25403973509934				-0.218172185430464	-0.0332715231788079	-0.91994701986755	0.00741721854304636	0.706490066225167	-0.20026490066225				0.576529801324503	-0.304529801324503	-0.709721854304636	0.802913907284768	-0.9364238410596	1.34437086092715				0.948026490066225	0.0514966887417219	0.213933774834437	1.0717880794702	0.0519205298013249	0.782516556291392				0.511788079470199	-0.110834437086093	-0.804238410596027	0.300397350993377	-1.24238410596026	-0.754701986754968			
38	880	-0.184158940397351	0.114754966887417	-0.951523178807947	-1.36662251655629	0.975364238410596	-1.18490066225166				0.960953642384106	0.127788079470199	0.253139072847682	2.39390728476821	-2.49218543046358	0.81403973509934				-0.202172185430464	-0.0332715231788079	-0.88794701986755	1.40741721854305	0.146490066225167	-1.04026490066225				0.592529801324503	-0.304529801324503	-0.709721854304636	-0.0370860927152318	-0.3764238410596	1.06437086092715				0.964026490066225	0.0674966887417219	0.213933774834437	-0.0482119205298018	-0.228079470198675	0.222516556291392				0.527788079470199	-0.0948344370860927	-0.788238410596027	-0.259602649006623	-1.80238410596026	-1.03470198675497			
39	900	-0.184158940397351	0.0987549668874172	-0.935523178807947	-0.526622516556291	-0.144635761589404	-1.18490066225166				0.960953642384106	0.111788079470199	0.269139072847682	1.83390728476821	-4.45218543046358	0.81403973509934				-0.202172185430464	-0.0332715231788079	-0.88794701986755	0.00741721854304636	-0.133509933774833	-1.04026490066225				0.592529801324503	-0.304529801324503	-0.709721854304636	1.36291390728477	0.1835761589404	1.62437086092715				0.964026490066225	0.0674966887417219	0.213933774834437	0.231788079470198	-0.228079470198675	0.222516556291392				0.511788079470199	-0.110834437086093	-0.804238410596027	0.300397350993377	0.437615894039735	-0.474701986754968			
40	920	-0.200158940397351	0.0987549668874172	-0.967523178807947	0.873377483443709	-0.144635761589404	-1.18490066225166				0.960953642384106	0.127788079470199	0.253139072847682	1.83390728476821	-2.77218543046358	0.25403973509934				-0.202172185430464	-0.0492715231788079	-0.90394701986755	-0.832582781456954	0.146490066225167	-0.76026490066225				0.576529801324503	-0.288529801324503	-0.709721854304636	0.802913907284768	-0.6564238410596	0.784370860927152				0.948026490066225	0.0674966887417219	0.213933774834437	0.231788079470198	-0.228079470198675	0.502516556291392				0	0	0	0	0	0			
41	940	-0.200158940397351	0.0987549668874172	-0.967523178807947	-0.246622516556291	0.695364238410596	-1.74490066225166				0.960953642384106	0.143788079470199	0.269139072847682	1.55390728476821	-1.09218543046358	0.25403973509934				-0.202172185430464	-0.0332715231788079	-0.90394701986755	-0.832582781456954	-0.133509933774833	-0.48026490066225				0	0	0	0	0	0				0	0	0	0	0	0				0	0	0	0	0	0			
42	960	-0.184158940397351	0.114754966887417	-0.935523178807947	-1.08662251655629	0.975364238410596	-0.624900662251656				0.960953642384106	0.127788079470199	0.253139072847682	3.23390728476821	-1.65218543046358	1.09403973509934				0	0	0	0	0	0				0	0	0	0	0	0				0	0	0	0	0	0				0	0	0	0	0	0			
43	1060	0	0	0	0	0	0				0	0	0	0	0	0				0	0	0	0	0	0				0	0	0	0	0	0				0.948026490066225	0.0674966887417219	0.213933774834437	0.231788079470198	1.45192052980132	1.06251655629139				0.511788079470199	-0.0948344370860927	-0.788238410596027	1.42039735099338	-0.402384105960265	-0.194701986754968			
44	1080	0	0	0	0	0	0				0	0	0	0	0	0				-0.202172185430464	-0.0172715231788079	-0.87194701986755	0.00741721854304636	1.82649006622517	-0.76026490066225				0.592529801324503	-0.288529801324503	-0.709721854304636	0.242913907284768	-0.0964238410596001	-0.0556291390728476				0.964026490066225	0.0514966887417219	0.213933774834437	-0.608211920529802	-0.228079470198675	0.782516556291392				0.511788079470199	-0.0948344370860927	-0.804238410596027	0.580397350993377	0.717615894039735	-1.31470198675497			
45	1100	-0.184158940397351	0.0987549668874172	-0.951523178807947	1.15337748344371	-0.424635761589404	-1.18490066225166				0.960953642384106	0.127788079470199	0.253139072847682	0.993907284768212	-2.49218543046358	2.21403973509934				-0.202172185430464	-0.0332715231788079	-0.88794701986755	-1.67258278145695	0.426490066225167	-0.20026490066225				0.576529801324503	-0.288529801324503	-0.709721854304636	0.522913907284768	1.8635761589404	0.224370860927152				0.948026490066225	0.0834966887417219	0.213933774834437	-2.0082119205298	2.29192052980133	0.502516556291392				0.511788079470199	-0.110834437086093	-0.804238410596027	0.580397350993377	1.27761589403974	-1.03470198675497			
46	1120	-0.200158940397351	0.0987549668874172	-0.951523178807947	0.873377483443709	-0.144635761589404	-0.904900662251656				0.960953642384106	0.143788079470199	0.253139072847682	3.23390728476821	-0.532185430463576	1.93403973509934				-0.218172185430464	-0.0172715231788079	-0.91994701986755	-0.832582781456954	0.146490066225167	-0.48026490066225				0.576529801324503	-0.288529801324503	-0.709721854304636	-0.317086092715232	0.7435761589404	-0.335629139072848				0.948026490066225	0.0674966887417219	0.181933774834437	1.0717880794702	0.331920529801325	0.502516556291392				0.511788079470199	-0.0948344370860927	-0.804238410596027	0.860397350993377	1.27761589403974	0.0852980132450323			
47	1140	-0.200158940397351	0.114754966887417	-0.951523178807947	0.593377483443709	0.975364238410596	-1.18490066225166				0.976953642384106	0.127788079470199	0.221139072847682	2.11390728476821	2.54781456953642	3.61403973509934				-0.218172185430464	-0.0172715231788079	-0.90394701986755	0.287417218543046	2.10649006622517	-0.48026490066225				0.576529801324503	-0.304529801324503	-0.709721854304636	-0.597086092715232	0.7435761589404	-0.0556291390728476				0.948026490066225	0.0674966887417219	0.229933774834437	-0.328211920529802	2.57192052980133	-0.337483443708608				0.511788079470199	-0.0948344370860927	-0.788238410596027	1.70039735099338	-0.122384105960265	0.925298013245032			
48	1160	-0.184158940397351	0.114754966887417	-0.935523178807947	-0.526622516556291	0.415364238410596	-0.344900662251656				0.976953642384106	0.127788079470199	0.285139072847682	-1.24609271523179	1.14781456953642	2.21403973509934				-0.186172185430464	-0.0172715231788079	-0.88794701986755	-0.552582781456954	1.54649006622517	-0.48026490066225				0.592529801324503	-0.288529801324503	-0.709721854304636	1.36291390728477	1.5835761589404	0.504370860927152				0.948026490066225	0.0674966887417219	0.229933774834437	-0.888211920529802	3.41192052980132	-0.0574834437086077				0.511788079470199	-0.110834437086093	-0.788238410596027	1.70039735099338	-1.24238410596026	0.925298013245032			
49	1180	-0.184158940397351	0.0987549668874172	-0.935523178807947	0.313377483443709	-0.424635761589404	-0.904900662251656				0.960953642384106	0.111788079470199	0.269139072847682	-0.126092715231788	-4.73218543046358	1.37403973509934				-0.202172185430464	-0.0332715231788079	-0.88794701986755	-0.832582781456954	0.426490066225167	-0.20026490066225				0.592529801324503	-0.288529801324503	-0.709721854304636	-1.15708609271523	2.4235761589404	-0.0556291390728476				0.964026490066225	0.0514966887417219	0.213933774834437	1.0717880794702	1.45192052980132	-0.0574834437086077				0.527788079470199	-0.126834437086093	-0.788238410596027	-0.259602649006623	0.157615894039735	0.645298013245032			
50	1200	-0.184158940397351	0.0987549668874172	-0.967523178807947	0.873377483443709	-0.144635761589404	-1.46490066225166				0.960953642384106	0.127788079470199	0.253139072847682	0.713907284768212	-3.89218543046358	1.37403973509934				-0.202172185430464	-0.0172715231788079	-0.90394701986755	-2.23258278145695	-0.133509933774833	0.35973509933775				0.592529801324503	-0.304529801324503	-0.693721854304636	-2.27708609271523	0.7435761589404	0.224370860927152				0.948026490066225	0.0514966887417219	0.213933774834437	-0.328211920529802	0.891920529801325	-0.0574834437086077				0.527788079470199	-0.0948344370860927	-0.804238410596027	-1.09960264900662	1.55761589403974	0.925298013245032			
51	1220	-0.200158940397351	0.0987549668874172	-0.967523178807947	1.71337748344371	0.695364238410596	-1.18490066225166				0.960953642384106	0.127788079470199	0.253139072847682	1.27390728476821	-0.812185430463576	1.37403973509934				-0.218172185430464	-0.0332715231788079	-0.90394701986755	-2.79258278145695	1.54649006622517	0.35973509933775				0.592529801324503	-0.288529801324503	-0.709721854304636	-0.0370860927152318	-0.0964238410596001	1.06437086092715				0.948026490066225	0.0674966887417219	0.213933774834437	-0.888211920529802	0.0519205298013249	1.06251655629139				0.511788079470199	-0.110834437086093	-0.788238410596027	0.0203973509933773	0.997615894039735	0.925298013245032			
52	1240	-0.200158940397351	0.0987549668874172	-0.951523178807947	0.593377483443709	0.415364238410596	-1.18490066225166				0.976953642384106	0.111788079470199	0.237139072847682	2.11390728476821	0.867814569536424	2.49403973509934				-0.202172185430464	-0.0332715231788079	-0.90394701986755	-3.91258278145695	1.82649006622517	0.91973509933775				0.592529801324503	-0.304529801324503	-0.709721854304636	-1.15708609271523	1.0235761589404	1.62437086092715				0.948026490066225	0.0674966887417219	0.229933774834437	1.0717880794702	0.891920529801325	0.222516556291392				0.527788079470199	-0.110834437086093	-0.788238410596027	0.300397350993377	0.717615894039735	2.60529801324503			
53	1260	-0.184158940397351	0.0987549668874172	-0.935523178807947	0.593377483443709	0.975364238410596	-1.46490066225166				0.944953642384106	0.111788079470199	0.269139072847682	0.993907284768212	0.867814569536424	2.49403973509934				-0.186172185430464	-0.0332715231788079	-0.88794701986755	-4.47258278145695	1.54649006622517	0.0797350993377501				0.592529801324503	-0.288529801324503	-0.693721854304636	-1.43708609271523	1.0235761589404	1.06437086092715				0.948026490066225	0.0514966887417219	0.229933774834437	-0.608211920529802	0.891920529801325	0.222516556291392				0.527788079470199	-0.126834437086093	-0.788238410596027	-0.539602649006623	-0.122384105960265	2.04529801324503			
54	1280	-0.200158940397351	0.0987549668874172	-0.935523178807947	0.593377483443709	-0.424635761589404	-1.18490066225166				0.960953642384106	0.111788079470199	0.253139072847682	1.27390728476821	-1.93218543046358	2.49403973509934				-0.202172185430464	-0.0332715231788079	-0.87194701986755	-6.99258278145695	0.706490066225167	0.0797350993377501				0.576529801324503	-0.288529801324503	-0.693721854304636	-0.597086092715232	1.5835761589404	1.06437086092715				0.964026490066225	0.0514966887417219	0.213933774834437	-2.8482119205298	0.611920529801325	-0.0574834437086077				0.511788079470199	-0.110834437086093	-0.788238410596027	-0.259602649006623	0.437615894039735	2.60529801324503			
55	1300	-0.200158940397351	0.0827549668874172	-0.951523178807947	1.43337748344371	-0.144635761589404	-0.904900662251656				0.976953642384106	0.127788079470199	0.237139072847682	2.67390728476821	-3.05218543046358	1.65403973509934				-0.218172185430464	-0.0172715231788079	-0.90394701986755	-4.75258278145695	0.426490066225167	0.35973509933775				0.576529801324503	-0.304529801324503	-0.693721854304636	-0.317086092715232	1.5835761589404	1.90437086092715				0.948026490066225	0.0514966887417219	0.213933774834437	-2.0082119205298	1.45192052980132	0.222516556291392				0.511788079470199	-0.110834437086093	-0.788238410596027	0.0203973509933773	1.27761589403974	1.48529801324503			
56	1320	-0.200158940397351	0.0987549668874172	-0.951523178807947	0.0333774834437086	0.415364238410596	-0.624900662251656				0.960953642384106	0.127788079470199	0.221139072847682	1.83390728476821	-0.532185430463576	1.37403973509934				-0.202172185430464	-0.0172715231788079	-0.90394701986755	-2.51258278145695	0.426490066225167	0.35973509933775				0.576529801324503	-0.288529801324503	-0.693721854304636	-0.597086092715232	0.4635761589404	2.74437086092715				0.948026490066225	0.0514966887417219	0.213933774834437	-2.5682119205298	1.73192052980133	1.06251655629139				0.511788079470199	-0.110834437086093	-0.804238410596027	0.580397350993377	-1.24238410596026	1.76529801324503			
57	1340	-0.200158940397351	0.0987549668874172	-0.951523178807947	0.873377483443709	0.415364238410596	-0.624900662251656				0.960953642384106	0.111788079470199	0.253139072847682	-0.966092715231788	1.98781456953642	1.93403973509934				-0.202172185430464	-0.0172715231788079	-0.90394701986755	-4.19258278145695	1.26649006622517	1.47973509933775				0.592529801324503	-0.304529801324503	-0.693721854304636	0.242913907284768	1.0235761589404	2.74437086092715				0.948026490066225	0.0514966887417219	0.229933774834437	-2.2882119205298	3.69192052980133	0.502516556291392				0.511788079470199	-0.110834437086093	-0.772238410596026	0.860397350993377	-1.52238410596026	2.88529801324503			
58	1360	-0.184158940397351	0.0987549668874172	-0.935523178807947	0.313377483443709	-0.144635761589404	-0.904900662251656				0.960953642384106	0.0957880794701987	0.253139072847682	0.153907284768212	1.42781456953642	0.81403973509934				-0.202172185430464	0.0147284768211921	-0.88794701986755	-8.11258278145695	0.986490066225167	0.35973509933775				0.576529801324503	-0.288529801324503	-0.709721854304636	0.802913907284768	-0.0964238410596001	1.34437086092715				0.948026490066225	0.0514966887417219	0.229933774834437	-2.5682119205298	2.01192052980133	-0.337483443708608				0.511788079470199	-0.126834437086093	-0.788238410596027	-1.37960264900662	-2.36238410596027	2.60529801324503			
59	1380	-0.184158940397351	0.0987549668874172	-0.951523178807947	-0.526622516556291	0.415364238410596	-0.624900662251656				0.960953642384106	0.111788079470199	0.253139072847682	0.433907284768212	0.867814569536424	0.53403973509934				-0.202172185430464	0.0147284768211921	-0.88794701986755	-8.11258278145695	0.706490066225167	0.91973509933775				0.576529801324503	-0.304529801324503	-0.709721854304636	2.20291390728477	0.7435761589404	1.90437086092715				0.948026490066225	0.0514966887417219	0.213933774834437	-5.3682119205298	2.57192052980133	-0.897483443708608				0.495788079470199	-0.110834437086093	-0.788238410596027	-1.09960264900662	-1.52238410596026	3.72529801324503			
60	1400	-0.184158940397351	0.0987549668874172	-0.967523178807947	-0.806622516556291	-0.144635761589404	-1.18490066225166				0.960953642384106	0.127788079470199	0.221139072847682	-0.686092715231788	0.307814569536424	-0.86596026490066				-0.202172185430464	-0.00127152317880793	-0.90394701986755	-5.87258278145695	0.426490066225167	0.63973509933775				0.576529801324503	-0.320529801324503	-0.709721854304636	3.88291390728477	-1.2164238410596	0.504370860927152				0.948026490066225	0.0514966887417219	0.213933774834437	-3.1282119205298	1.73192052980133	0.502516556291392				0.495788079470199	-0.0788344370860927	-0.804238410596027	-3.33960264900662	-0.122384105960265	5.12529801324503			
61	1420	-0.184158940397351	0.0987549668874172	-0.935523178807947	-0.526622516556291	-0.704635761589404	-0.624900662251656				0.960953642384106	0.127788079470199	0.237139072847682	-0.686092715231788	3.66781456953642	0.81403973509934				-0.202172185430464	0.0147284768211921	-0.88794701986755	-8.67258278145695	1.26649006622517	-0.20026490066225				0.576529801324503	-0.320529801324503	-0.693721854304636	11.7229139072848	-7.0964238410596	-0.0556291390728476				0.932026490066225	0.0514966887417219	0.197933774834437	-2.5682119205298	3.13192052980133	0.222516556291392				0.495788079470199	-0.0948344370860927	-0.804238410596027	-7.81960264900662	0.437615894039735	4.56529801324503			
62	1440	-0.184158940397351	0.0987549668874172	-0.951523178807947	0.593377483443709	-0.984635761589404	-0.904900662251656				0.944953642384106	0.111788079470199	0.269139072847682	-1.80609271523179	3.94781456953642	3.05403973509934				-0.186172185430464	0.0147284768211921	-0.87194701986755	-6.15258278145695	1.26649006622517	-2.44026490066225				0.560529801324503	-0.304529801324503	-0.773721854304636	10.0429139072848	-7.0964238410596	-1.17562913907285				0.932026490066225	0.0674966887417219	0.197933774834437	-5.3682119205298	5.65192052980133	-0.897483443708608				0.479788079470199	-0.158834437086093	-0.820238410596026	-5.57960264900662	-4.60238410596027	7.08529801324503			
63	1460	-0.184158940397351	0.0987549668874172	-0.951523178807947	0.873377483443709	-1.2646357615894	-1.18490066225166				0.960953642384106	0.111788079470199	0.269139072847682	-0.126092715231788	3.94781456953642	3.61403973509934				-0.186172185430464	0.0147284768211921	-0.90394701986755	-4.75258278145695	-1.25350993377483	-2.44026490066225				0.560529801324503	-0.320529801324503	-0.757721854304636	10.8829139072848	-12.4164238410596	-3.41562913907285				0.932026490066225	0.0514966887417219	0.229933774834437	-3.4082119205298	7.61192052980133	-0.897483443708608				0.479788079470199	-0.126834437086093	-0.836238410596026	-10.6196026490066	-5.72238410596027	11.285298013245			
64	1480	-0.184158940397351	0.0987549668874172	-0.967523178807947	-0.806622516556291	-1.5446357615894	-1.74490066225166				1.00895364238411	0.111788079470199	0.285139072847682	0.713907284768212	-6.69218543046358	3.89403973509934				-0.186172185430464	-0.0172715231788079	-0.88794701986755	-3.63258278145695	-0.413509933774833	-2.44026490066225				0.528529801324503	-0.352529801324503	-0.789721854304636	6.96291390728477	-17.4564238410596	-7.89562913907285				0.916026490066225	0.0354966887417219	0.181933774834437	-5.6482119205298	10.6919205298013	-2.57748344370861				0.479788079470199	-0.0948344370860927	-0.804238410596027	-13.1396026490066	-0.682384105960265	17.445298013245			
65	1500	-0.152158940397351	0.0827549668874172	-0.983523178807947	-1.08662251655629	-0.984635761589404	-0.344900662251656				1.00895364238411	0.0957880794701987	0.269139072847682	0.713907284768212	-31.8921854304636	5.29403973509934				-0.170172185430464	-0.00127152317880793	-0.85594701986755	-6.71258278145695	-0.133509933774833	-3.56026490066225				0.512529801324503	-0.352529801324503	-0.821721854304636	-9.83708609271523	-23.6164238410596	-7.61562913907285				0.900026490066225	0.0514966887417219	0.181933774834437	-11.8082119205298	15.7319205298013	-4.25748344370861				0.479788079470199	-0.0948344370860927	-0.836238410596026	5.90039735099338	-6.56238410596027	23.045298013245			
66	1520	-0.184158940397351	0.0667549668874172	-0.935523178807947	0.593377483443709	-0.144635761589404	-0.344900662251656				0.912953642384106	0.0957880794701987	0.173139072847682	0.153907284768212	-35.5321854304636	6.41403973509934				-0.186172185430464	0.0147284768211921	-0.88794701986755	-3.91258278145695	-2.09350993377483	-4.12026490066225				0.544529801324503	-0.352529801324503	-0.837721854304636	-14.3170860927152	-28.0964238410596	-8.73562913907285				0.916026490066225	0.0514966887417219	0.213933774834437	-8.1682119205298	17.6919205298013	-6.49748344370861				0.463788079470199	-0.110834437086093	-0.868238410596026	16.8203973509934	-16.9223841059603	26.965298013245			
67	1540	-0.216158940397351	0.0827549668874172	-0.919523178807947	1.15337748344371	-0.144635761589404	-0.0649006622516557				0.912953642384106	0.111788079470199	0.189139072847682	-6.00609271523179	-21.2521854304636	7.25403973509934				-0.186172185430464	-0.0172715231788079	-0.95194701986755	-4.19258278145695	-3.77350993377483	-3.84026490066225				0.512529801324503	-0.368529801324503	-0.821721854304636	-28.0370860927152	-32.8564238410596	-9.01562913907285				0.916026490066225	0.0514966887417219	0.181933774834437	-9.8482119205298	17.1319205298013	-7.05748344370861				0.479788079470199	-0.142834437086093	-0.884238410596026	19.3403973509934	-25.8823841059603	32.285298013245			
68	1560	-0.216158940397351	0.0987549668874172	-0.935523178807947	0.873377483443709	-0.984635761589404	-0.344900662251656				0.944953642384106	0.159788079470199	0.189139072847682	-12.7260927152318	-7.81218543046358	5.29403973509934				-0.218172185430464	-0.0172715231788079	-0.96794701986755	-10.352582781457	-4.89350993377483	-3.56026490066225				0.480529801324503	-0.368529801324503	-0.789721854304636	-37.5570860927152	-38.7364238410596	-8.17562913907285				0.932026490066225	0.0514966887417219	0.181933774834437	-9.8482119205298	21.0519205298013	-6.21748344370861				0.463788079470199	-0.174834437086093	-0.868238410596026	17.9403973509934	-28.6823841059603	35.925298013245			
69	1580	-0.200158940397351	0.130754966887417	-0.951523178807947	-0.806622516556291	-0.984635761589404	1.89509933774834				1.00895364238411	0.111788079470199	0.141139072847682	-11.6060927152318	7.30781456953642	5.01403973509934				-0.186172185430464	0.0147284768211921	-0.93594701986755	-16.792582781457	-4.89350993377483	-2.16026490066225				0.480529801324503	-0.368529801324503	-0.805721854304636	-41.1970860927152	-41.2564238410596	-2.85562913907285				0.964026490066225	0.0514966887417219	0.197933774834437	-10.4082119205298	27.2119205298013	-5.09748344370861				0.431788079470199	-0.158834437086093	-0.868238410596026	6.46039735099338	-25.0423841059603	39.845298013245			
70	1600	-0.232158940397351	0.0987549668874172	-0.951523178807947	0.593377483443709	0.415364238410596	4.13509933774834				1.02495364238411	0.0957880794701987	0.141139072847682	-13.8460927152318	-0.252185430463576	-2.82596026490066				-0.234172185430464	0.0147284768211921	-0.95194701986755	-6.71258278145695	-9.65350993377483	-0.20026490066225				0.464529801324503	-0.384529801324503	-0.837721854304636	-41.4770860927152	-39.8564238410596	4.42437086092715				1.01202649006623	0.0354966887417219	0.213933774834437	-5.6482119205298	30.0119205298013	-5.09748344370861				0.463788079470199	-0.126834437086093	-0.916238410596027	4.50039735099338	-23.3623841059603	37.605298013245			
71	1620	-0.200158940397351	0.0987549668874172	-0.935523178807947	-3.88662251655629	0.975364238410596	4.41509933774834				0.992953642384106	0.111788079470199	0.109139072847682	-21.4060927152318	-2.49218543046358	-7.86596026490066				-0.234172185430464	-0.0652715231788079	-1.01594701986755	20.447417218543	-16.3735099337748	3.43973509933775				0.432529801324503	-0.416529801324503	-0.853721854304636	-40.9170860927152	-33.6964238410596	15.0643708609272				1.02802649006623	0.00349668874172187	0.229933774834437	-9.0082119205298	23.2919205298013	-4.25748344370861				0.463788079470199	-0.110834437086093	-0.964238410596026	3.66039735099338	-29.2423841059603	33.965298013245			
72	1640	-0.168158940397351	0.0667549668874172	-0.951523178807947	-6.68662251655629	0.975364238410596	4.97509933774835				1.05695364238411	0.0637880794701987	0.0931390728476822	-31.4860927152318	-2.49218543046358	-1.98596026490066				-0.282172185430464	-0.225271523178808	-0.99994701986755	52.6474172185431	-31.7735099337748	10.9997350993378				0.384529801324503	-0.416529801324503	-0.901721854304636	-39.5170860927152	-30.8964238410596	23.4643708609272				1.01202649006623	0.0194966887417219	0.181933774834437	-18.5282119205298	21.0519205298013	-5.93748344370861				0.463788079470199	-0.126834437086093	-0.964238410596026	4.22039735099338	-34.8423841059603	30.325298013245			
73	1660	-0.184158940397351	0.0507549668874172	-0.951523178807947	-12.8466225165563	0.415364238410596	6.93509933774835				1.15295364238411	0.127788079470199	0.0931390728476822	-33.1660927152318	-16.2121854304636	0.81403973509934				-1.33817218543046	-0.689271523178808	-0.85594701986755	71.407417218543	-63.9735099337748	19.1197350993378				0.352529801324503	-0.352529801324503	-0.933721854304636	-45.1170860927152	-34.5364238410596	33.2643708609272				1.01202649006623	0.0194966887417219	0.197933774834437	-19.3682119205298	25.8119205298013	-6.49748344370861				0.431788079470199	-0.158834437086093	-0.996238410596026	4.78039735099338	-35.1223841059603	32.005298013245			
74	1680	-0.216158940397351	0.0507549668874172	-0.967523178807947	-10.6066225165563	-0.424635761589404	9.17509933774834				1.15295364238411	0.127788079470199	0.0291390728476822	-25.0460927152318	-38.8921854304636	-2.54596026490066				-0.0101721854304636	-0.257271523178808	-0.51994701986755	-26.872582781457	-72.3735099337748	53.5597350993378				0.336529801324503	-0.384529801324503	-0.965721854304636	-41.7570860927152	-35.3764238410596	44.7443708609272				1.07602649006623	0.0354966887417219	0.181933774834437	-21.6082119205298	31.9719205298013	-8.17748344370861				0.383788079470199	-0.190834437086093	-1.04423841059603	7.02039735099338	-48.8423841059603	39.845298013245			
75	1700	-0.264158940397351	0.0187549668874172	-0.967523178807947	-13.9666225165563	2.0953642384106	9.73509933774834				1.13695364238411	0.0317880794701987	-0.0508609271523178	-45.4860927152318	-45.0521854304636	0.53403973509934				-0.186172185430464	0.126728476821192	-0.79194701986755	-52.632582781457	-7.69350993377483	16.0397350993378				0.336529801324503	-0.416529801324503	-1.02972185430464	-35.5970860927152	-37.0564238410596	53.1443708609272				1.15602649006623	0.00349668874172187	0.133933774834437	-16.5682119205298	25.5319205298013	-9.01748344370861				0.367788079470199	-0.190834437086093	-1.12423841059603	-3.89960264900662	-58.6423841059603	46.005298013245			
76	1720	-0.280158940397351	0.0347549668874172	-0.999523178807947	-25.1666225165563	2.9353642384106	9.45509933774835				0.880953642384106	0.111788079470199	-0.0988609271523179	-73.4860927152318	-34.4121854304636	8.93403973509934				-0.410172185430464	0.222728476821192	-0.95194701986755	-37.512582781457	-11.6135099337748	16.0397350993378				0.336529801324503	-0.448529801324503	-1.02972185430464	-45.1170860927152	-40.4164238410596	61.5443708609272				1.14002649006623	-0.0125033112582781	0.117933774834437	-26.9282119205298	16.0119205298013	-6.77748344370861				0.287788079470199	-0.126834437086093	-1.26823841059603	-19.8596026490066	-69.2823841059603	48.525298013245			
77	1740	-0.280158940397351	0.0347549668874172	-1.03152317880795	-27.6866225165563	2.6553642384106	8.89509933774834				0.864953642384106	0.191788079470199	-0.0348609271523178	-46.6060927152318	1.14781456953642	22.0940397350993				-0.506172185430464	0.190728476821192	-0.98394701986755	-12.312582781457	-6.01350993377483	7.91973509933775				0.304529801324503	-0.352529801324503	-1.09372185430464	-57.4370860927152	-52.7364238410596	63.5043708609272				1.15602649006623	0.0354966887417219	0.0859337748344371	-35.6082119205298	16.8519205298013	-2.57748344370861				0.287788079470199	-0.0628344370860927	-1.30023841059603	-3.89960264900662	-80.2023841059603	52.445298013245			
78	1760	-0.344158940397351	0.178754966887417	-1.07952317880795	-50.9266225165563	17.2153642384106	6.09509933774834				1.00895364238411	0.207788079470199	-0.0348609271523178	19.1939072847682	45.1078145695364	31.3340397350993				-0.538172185430464	0.142728476821192	-1.07994701986755	-7.27258278145696	16.1064900662252	-2.72026490066225				0.384529801324503	-0.128529801324503	-1.04572185430464	-74.2370860927152	-68.6964238410596	57.0643708609272				1.25202649006623	0.0834966887417219	0.165933774834437	-24.9682119205298	19.3719205298013	-1.73748344370861				0.191788079470199	-0.190834437086093	-1.23623841059603	21.0203973509934	-90.5623841059603	60.845298013245			
79	1780	-0.344158940397351	0.370754966887417	-0.839523178807947	-24.3266225165563	19.7353642384106	3.57509933774835				1.23295364238411	0.111788079470199	0.0291390728476822	-2.36609271523179	65.2678145695364	39.4540397350993				-0.506172185430464	0.126728476821192	-1.17594701986755	-3.63258278145695	18.9064900662252	-9.16026490066225				0.576529801324503	-0.0485298013245033	-0.981721854304636	-36.1570860927152	-57.4964238410596	57.6243708609272				1.46002649006623	0.179496688741722	0.229933774834437	-11.5282119205298	9.85192052980133	3.30251655629139				0.0637880794701987	-0.254834437086093	-1.09223841059603	11.2203973509934	-81.8823841059603	74.005298013245			
80	1800	-0.488158940397351	0.418754966887417	-0.967523178807947	-27.9666225165563	25.3353642384106	11.6950993377483				1.24895364238411	0.191788079470199	-0.0508609271523178	-48.8460927152318	73.6678145695364	35.5340397350993				-0.554172185430464	0.0147284768211921	-0.93594701986755	-1.39258278145695	29.5464900662252	-2.72026490066225				0.624529801324503	-0.192529801324503	-1.06172185430464	7.80291390728477	-40.9764238410596	48.6643708609272				1.50802649006623	0.0834966887417219	0.277933774834437	6.3917880794702	-15.3480794701987	8.34251655629139				-0.0162119205298013	-0.286834437086093	-1.09223841059603	-6.69960264900662	-67.6023841059603	80.165298013245			
81	1820	-0.616158940397351	0.226754966887417	-1.14352317880795	-27.4066225165563	44.0953642384106	13.3750993377483				1.21695364238411	0.255788079470199	0.301139072847682	-65.9260927152318	112.027814569536	34.1340397350993				-0.650172185430464	-0.241271523178808	-0.93594701986755	8.40741721854305	42.7064900662252	11.5597350993378				0.624529801324503	-0.224529801324503	-1.12572185430464	13.9629139072848	-29.7764238410596	36.9043708609272				1.23602649006623	0.131496688741722	0.405933774834437	25.9917880794702	-36.9080794701987	8.90251655629139				-0.0322119205298013	-0.238834437086093	-1.07623841059603	-17.3396026490066	-46.8823841059603	64.765298013245			
82	1840	-0.504158940397351	0.242754966887417	-1.19152317880795	-12.8466225165563	54.7353642384106	14.4950993377483				1.34495364238411	0.127788079470199	0.701139072847682	-5.44609271523179	106.987814569536	29.0940397350993				-0.586172185430464	-0.161271523178808	-1.01594701986755	-34.152582781457	46.3464900662252	26.1197350993378				0.688529801324503	-0.240529801324503	-1.18972185430464	0.242913907284768	-21.3764238410596	16.1843708609272				1.02802649006623	0.243496688741722	0.581933774834437	52.8717880794702	-24.3080794701987	13.6625165562914				0.0637880794701987	-0.0788344370860927	-1.12423841059603	-7.81960264900662	-35.1223841059603	44.885298013245			
83	1860	-0.392158940397351	0.210754966887417	-1.04752317880795	3.11337748344371	67.0553642384106	24.2950993377483				1.64895364238411	0.0957880794701987	0.845139072847682	-9.92609271523179	66.6678145695364	19.8540397350993				-0.522172185430464	0.302728476821192	-1.07994701986755	-38.912582781457	63.9864900662252	36.1997350993378				0.512529801324503	-0.288529801324503	-1.15772185430464	-14.5970860927152	-2.3364238410596	-2.85562913907285				1.14002649006623	0.131496688741722	0.709933774834437	60.7117880794702	4.53192052980133	2.46251655629139				0.255788079470199	-0.158834437086093	-0.996238410596026	21.5803973509934	-27.2823841059603	27.525298013245			
84	1880	-0.392158940397351	0.114754966887417	-1.14352317880795	5.63337748344371	75.4553642384106	29.6150993377483				1.56895364238411	-0.0162119205298013	0.781139072847682	-27.5660927152318	3.94781456953642	15.0940397350993				-0.410172185430464	0.414728476821192	-1.06394701986755	-2.79258278145695	78.8264900662252	31.4397350993378				0.400529801324503	-0.160529801324503	-1.09372185430464	-15.9970860927152	28.4635761589404	-9.85562913907285				1.23602649006623	0.0194966887417219	0.709933774834437	49.5117880794702	7.05192052980133	-9.29748344370861				0.479788079470199	-0.382834437086093	-0.948238410596026	5.62039735099338	-7.96238410596027	14.365298013245			
85	1900	-0.184158940397351	0.114754966887417	-1.14352317880795	-10.6066225165563	91.9753642384106	31.2950993377483				1.36095364238411	-0.176211920529801	0.669139072847682	-10.7660927152318	1.70781456953642	10.0540397350993				-0.234172185430464	0.142728476821192	-1.06394701986755	32.4874172185431	84.9864900662252	23.3197350993378				0.416529801324503	-0.0325298013245033	-1.04572185430464	0.242913907284768	46.9435761589404	-6.77562913907285				1.23602649006623	0.0514966887417219	0.661933774834437	22.9117880794702	2.85192052980133	-12.6574834437086				0.655788079470199	-0.510834437086093	-0.996238410596026	-5.57960264900662	13.3176158940397	-11.674701986755			
86	1920	-0.072158940397351	0.258754966887417	-1.09552317880795	-6.40662251655629	104.295364238411	34.0950993377484				1.08895364238411	-0.112211920529801	0.701139072847682	26.7539072847682	-2.21218543046358	-5.06596026490066				-0.186172185430464	0.0787284768211921	-1.09594701986755	40.607417218543	94.2264900662252	17.4397350993378				0.496529801324503	-0.128529801324503	-1.02972185430464	39.1629139072848	54.5035761589404	12.2643708609272				1.18802649006623	0.0834966887417219	0.693933774834437	13.1117880794702	0.0519205298013249	-6.77748344370861				0.671788079470199	-0.510834437086093	-1.18823841059603	-17.0596026490066	30.3976158940397	-33.514701986755			
87	1940	0.023841059602649	0.274754966887417	-1.06352317880795	24.1133774834437	105.695364238411	33.5350993377483				1.21695364238411	-0.192211920529801	0.397139072847682	12.1939072847682	-25.1721854304636	-8.98596026490066				-0.202172185430464	-0.0652715231788079	-1.12794701986755	8.96741721854305	105.426490066225	21.6397350993378				0.656529801324503	-0.320529801324503	-1.14172185430464	58.4829139072848	50.0235761589404	22.3443708609272				1.17202649006623	0.147496688741722	0.629933774834437	-8.1682119205298	-1.62807947019868	-3.13748344370861				0.687788079470199	-0.462834437086093	-1.15623841059603	-7.53960264900662	52.2376158940397	-20.634701986755			
88	1960	0.167841059602649	0.290754966887417	-1.03152317880795	40.9133774834437	113.535364238411	34.6550993377484				1.47295364238411	-0.160211920529801	0.509139072847682	-56.6860927152318	9.54781456953642	-1.14596026490066				0.0378278145695364	0.0787284768211921	-1.04794701986755	-15.112582781457	115.226490066225	19.9597350993378				0	0	0	0	0	0				0	0	0	0	0	0				0	0	0	0	0	0			
89	2080	0	0	0	0	0	0				0	0	0	0	0	0				0.437827814569536	-0.0492715231788079	-0.82394701986755	-3.63258278145695	154.986490066225	16.5997350993378				0	0	0	0	0	0				0	0	0	0	0	0				0	0	0	0	0	0			
90	2100	0.647841059602649	0.0667549668874172	-0.759523178807947	6.19337748344371	165.055364238411	10.8550993377483				0.992953642384106	0.191788079470199	0.445139072847682	16.6739072847682	-19.5721854304636	-5.62596026490066				0.661827814569536	0.0467284768211921	-0.74394701986755	-8.11258278145695	157.506490066225	16.3197350993378				0.672529801324503	-0.272529801324503	-0.789721854304636	-13.7570860927152	31.8235761589404	1.90437086092715				0.980026490066225	0.0674966887417219	0.357933774834437	-39.8082119205298	-26.5480794701987	-5.93748344370861				0.495788079470199	-0.126834437086093	-0.868238410596026	-61.0196026490066	87.5176158940398	-13.354701986755			
91	2120	0.663841059602649	0.0667549668874172	-0.727523178807947	-1.92662251655629	164.775364238411	12.5350993377483				0.864953642384106	0.0957880794701987	0.461139072847682	31.7939072847682	-36.3721854304636	-6.74596026490066				0.565827814569536	0.222728476821192	-0.67994701986755	-4.75258278145695	154.706490066225	7.35973509933775				0.576529801324503	-0.208529801324503	-0.741721854304636	-7.31708609271523	28.7435761589404	-4.81562913907285				0.884026490066225	0.163496688741722	0.309933774834437	-40.3682119205298	-27.1080794701987	-12.0974834437086				0.479788079470199	-0.126834437086093	-0.820238410596026	-44.7796026490066	88.0776158940397	-10.554701986755			
92	2140	0.663841059602649	0.0187549668874172	-0.631523178807947	-4.16662251655629	159.455364238411	11.9750993377483				0.816953642384106	0.0317880794701987	0.141139072847682	35.4339072847682	-73.8921854304636	-10.3859602649007				0.581827814569536	0.286728476821192	-0.64794701986755	22.967417218543	152.746490066225	-2.72026490066225				0.512529801324503	-0.176529801324503	-0.645721854304636	9.76291390728477	35.4635761589404	-11.2556291390728				0.836026490066225	0.163496688741722	0.245933774834437	-21.3282119205298	-23.7480794701987	-8.73748344370861				0.447788079470199	-0.126834437086093	-0.724238410596026	-42.5396026490066	88.0776158940397	-1.59470198675497			
93	2160	0.679841059602649	0.0187549668874172	-0.551523178807947	-4.44662251655629	154.415364238411	10.8550993377483				0.736953642384106	-0.0162119205298013	0.0291390728476822	14.4339072847682	-73.8921854304636	-7.02596026490066				0.517827814569536	0.206728476821192	-0.53594701986755	51.8074172185431	147.986490066225	-10.0002649006623				0.448529801324503	-0.176529801324503	-0.517721854304636	10.3229139072848	41.3435761589404	-10.4156291390728				0.788026490066225	0.0514966887417219	0.165933774834437	-5.9282119205298	-26.5480794701987	-3.97748344370861				0.415788079470199	-0.0468344370860927	-0.644238410596026	-47.0196026490066	83.3176158940397	-2.71470198675497			
94	2180	0.647841059602649	0.0507549668874172	-0.535523178807947	-11.1666225165563	148.815364238411	9.17509933774834				0.656953642384106	0.0317880794701987	0.0771390728476822	3.51390728476821	-56.2521854304636	-7.30596026490066				0.485827814569536	0.0947284768211921	-0.56794701986755	50.4074172185431	146.586490066225	-10.5602649006623				0.336529801324503	-0.144529801324503	-0.453721854304636	5.28291390728477	36.5835761589404	-4.81562913907285				0.692026490066225	0.00349668874172187	0.165933774834437	-14.6082119205298	-34.6680794701987	-2.01748344370861				0.431788079470199	0.0171655629139073	-0.676238410596026	-41.9796026490066	68.1976158940397	-11.114701986755			
95	2200	0.599841059602649	0.0987549668874172	-0.487523178807947	-15.9266225165563	144.615364238411	9.45509933774835				0.656953642384106	-0.0162119205298013	0.157139072847682	1.83390728476821	-40.2921854304636	-9.82596026490066				0.501827814569536	-0.00127152317880793	-0.50394701986755	37.5274172185431	143.506490066225	-12.8002649006623				0.304529801324503	-0.0965298013245033	-0.421721854304636	11.1629139072848	26.5035761589404	6.10437086092715				0.612026490066225	0.0354966887417219	0.197933774834437	-16.8482119205298	-46.1480794701987	0.782516556291392				0.383788079470199	-0.0468344370860927	-0.580238410596026	-23.2196026490066	57.2776158940397	-7.47470198675497			
96	2220	0.519841059602649	0.114754966887417	-0.503523178807947	-3.32662251655629	137.615364238411	10.8550993377483				0.656953642384106	-0.0802119205298013	0.205139072847682	-0.686092715231788	-40.2921854304636	-5.06596026490066				0.485827814569536	-0.00127152317880793	-0.47194701986755	13.447417218543	147.146490066225	-14.7602649006622				0.240529801324503	-0.0645298013245033	-0.389721854304636	34.4029139072848	26.5035761589404	10.8643708609272				0.564026490066225	0.0194966887417219	0.165933774834437	-9.5682119205298	-53.9880794701987	2.74251655629139				0.271788079470199	-0.142834437086093	-0.468238410596026	-21.5396026490066	44.6776158940397	7.64529801324503			
97	2240	0.535841059602649	0.0507549668874172	-0.487523178807947	5.35337748344371	138.735364238411	12.8150993377483				0.528953642384106	-0.000211920529801304	0.173139072847682	-11.8860927152318	-57.6521854304636	-4.22596026490066				0.501827814569536	0.0147284768211921	-0.50394701986755	1.12741721854305	135.106490066225	-11.4002649006623				0.240529801324503	-0.160529801324503	-0.421721854304636	49.2429139072848	27.9035761589404	15.9043708609272				0.468026490066225	0.0354966887417219	0.165933774834437	-19.3682119205298	-62.6680794701987	2.74251655629139				0.239788079470199	-0.0948344370860927	-0.436238410596026	-48.4196026490066	42.1576158940397	10.445298013245			
98	2260	0.599841059602649	0.0507549668874172	-0.423523178807947	3.11337748344371	137.615364238411	11.6950993377483				0.480953642384106	0.0637880794701987	0.0611390728476822	-16.0860927152318	-58.4921854304636	-13.1859602649007				0.533827814569536	0.0307284768211921	-0.43994701986755	-6.71258278145695	135.386490066225	-13.9202649006623				0.272529801324503	-0.224529801324503	-0.421721854304636	37.4829139072848	19.5035761589404	22.3443708609272				0.420026490066225	0.00349668874172187	0.133933774834437	-15.4482119205298	-60.7080794701987	4.70251655629139				0.335788079470199	0.0171655629139073	-0.500238410596026	-55.4196026490066	35.1576158940397	-0.754701986754968			
99	2280	0.631841059602649	0.146754966887417	-0.423523178807947	-2.48662251655629	132.575364238411	11.1350993377483				0.496953642384106	0.0637880794701987	0.0611390728476822	-2.08609271523179	-55.9721854304636	-14.5859602649007				0.517827814569536	-0.00127152317880793	-0.43994701986755	-15.392582781457	123.626490066225	-16.1602649006623				0.336529801324503	-0.240529801324503	-0.421721854304636	17.3229139072848	8.5835761589404	24.5843708609272				0.468026490066225	0.0354966887417219	0.117933774834437	-16.5682119205298	-55.3880794701987	3.02251655629139				0.431788079470199	0.0491655629139073	-0.500238410596026	-45.8996026490066	23.3976158940397	-2.99470198675497			
100	2300	0.599841059602649	0.178754966887417	-0.439523178807947	-13.9666225165563	121.655364238411	9.17509933774834				0.576953642384106	0.0477880794701987	0.0931390728476822	12.1939072847682	-46.1721854304636	-17.3859602649007				0.501827814569536	0.0307284768211921	-0.45594701986755	-7.27258278145696	129.506490066225	-21.7602649006623				0.336529801324503	-0.272529801324503	-0.437721854304636	22.0829139072848	6.3435761589404	20.6643708609272				0.532026490066225	0.0354966887417219	0.0699337748344371	-15.7282119205298	-48.1080794701987	0.222516556291392				0.479788079470199	0.0331655629139073	-0.500238410596026	-26.0196026490066	14.7176158940397	0.925298013245032			
101	2320	0.631841059602649	0.162754966887417	-0.391523178807947	-3.32662251655629	121.095364238411	10.0150993377483				0.640953642384106	0.0797880794701987	0.0771390728476822	33.1939072847682	-51.7721854304636	-17.3859602649007				0.533827814569536	0.126728476821192	-0.48794701986755	0.00741721854304636	123.626490066225	-16.1602649006623				0.384529801324503	-0.240529801324503	-0.453721854304636	21.2429139072848	7.4635761589404	15.9043708609272				0.612026490066225	0.0194966887417219	0.117933774834437	-9.0082119205298	-34.9480794701987	1.90251655629139				0.415788079470199	0.00116556291390731	-0.452238410596026	-27.9796026490066	11.6376158940397	-5.79470198675497			
102	2340	0.727841059602649	0.146754966887417	-0.391523178807947	17.6733774834437	112.415364238411	11.6950993377483				0.592953642384106	0.0797880794701987	0.0451390728476822	23.3939072847682	-50.9321854304636	-13.4659602649007				0.645827814569536	0.0307284768211921	-0.43994701986755	-5.59258278145695	107.386490066225	-9.16026490066225				0.368529801324503	-0.224529801324503	-0.453721854304636	13.1229139072848	6.3435761589404	13.9443708609272				0.612026490066225	0.0194966887417219	0.133933774834437	-13.2082119205298	-33.5480794701987	1.90251655629139				0.367788079470199	-0.0308344370860927	-0.468238410596026	-28.5396026490066	6.31761589403974	-14.474701986755			
103	2360	0.775841059602649	0.130754966887417	-0.455523178807947	14.8733774834437	97.8553642384106	10.0150993377483				0.528953642384106	0.159788079470199	0.141139072847682	13.0339072847682	-81.1721854304636	-31.3859602649007				0.789827814569536	-0.0812715231788079	-0.42394701986755	0.847417218543046	100.386490066225	-5.52026490066225				0.368529801324503	-0.208529801324503	-0.453721854304636	8.64291390728477	-2.3364238410596	13.9443708609272				0.628026490066225	0.0514966887417219	0.0859337748344371	-18.5282119205298	-38.0280794701987	-0.0574834437086077				0.383788079470199	0.0171655629139073	-0.516238410596026	-35.5396026490066	0.997615894039735	-19.514701986755			
104	2380	0.791841059602649	0.146754966887417	-0.359523178807947	10.6733774834437	95.8953642384106	6.65509933774834				0.496953642384106	0.111788079470199	0.0291390728476822	12.4739072847682	-72.4921854304636	-26.3459602649007				0.741827814569536	-0.161271523178808	-0.51994701986755	-8.11258278145695	88.9064900662252	2.87973509933775				0.368529801324503	-0.240529801324503	-0.501721854304636	11.4429139072848	-8.2164238410596	17.0243708609272				0.660026490066225	0.0994966887417219	0.0379337748344371	-17.9682119205298	-41.3880794701987	-0.337483443708608				0.383788079470199	0.129165562913907	-0.612238410596026	-38.6196026490066	-4.04238410596027	-27.074701986755			
105	2400	0.759841059602649	0.162754966887417	-0.343523178807947	25.7933774834437	88.3353642384106	8.89509933774834				0.688953642384106	0.0797880794701987	0.0291390728476822	13.0339072847682	-46.1721854304636	-22.1459602649007				0.741827814569536	-0.0972715231788079	-0.47194701986755	-19.592582781457	77.4264900662252	4.55973509933775				0.416529801324503	-0.256529801324503	-0.549721854304636	12.0029139072848	-7.3764238410596	16.1843708609272				0.692026490066225	0.0834966887417219	0.0379337748344371	-10.9682119205298	-40.2680794701987	-1.45748344370861				0.351788079470199	0.145165562913907	-0.596238410596026	-29.0996026490066	-4.88238410596027	-30.994701986755			
106	2420	0.823841059602649	0.0187549668874172	-0.391523178807947	34.4733774834437	74.0553642384106	5.53509933774834				0.832953642384106	0.0797880794701987	0.0611390728476822	6.03390728476821	-33.0121854304636	-19.9059602649007				0.773827814569536	0.0307284768211921	-0.42394701986755	-29.392582781457	74.6264900662252	2.59973509933775				0.464529801324503	-0.288529801324503	-0.597721854304636	10.6029139072848	-6.5364238410596	13.1043708609272				0.756026490066225	0.0674966887417219	0.0219337748344371	-3.1282119205298	-36.0680794701987	-1.17748344370861				0.335788079470199	0.0971655629139073	-0.628238410596026	-21.8196026490066	-6.84238410596027	-27.074701986755			
107	2440	0.871841059602649	-0.0452450331125828	-0.263523178807947	29.4333774834437	72.6553642384106	3.29509933774834				0.832953642384106	0.0957880794701987	0.0291390728476822	7.71390728476821	-32.1721854304636	-14.5859602649007				0.853827814569536	0.158728476821192	-0.45594701986755	-16.512582781457	64.5464900662252	-1.60026490066225				0.464529801324503	-0.320529801324503	-0.581721854304636	11.4429139072848	-7.6564238410596	5.54437086092715				0.788026490066225	0.0514966887417219	-0.0100662251655629	-0.0482119205298018	-32.4280794701987	-2.29748344370861				0.399788079470199	0.0651655629139073	-0.628238410596026	-26.0196026490066	-3.48238410596027	-20.634701986755			
108	2460	0.903841059602649	-0.0932450331125828	-0.263523178807947	24.9533774834437	67.0553642384106	5.53509933774834				0.832953642384106	0.127788079470199	-0.00286092715231785	5.19390728476821	-27.6921854304636	-11.2259602649007				0.901827814569536	0.110728476821192	-0.40794701986755	5.32741721854305	55.8664900662252	2.03973509933775				0.480529801324503	-0.400529801324503	-0.645721854304636	10.8829139072848	-7.9364238410596	0.224370860927152				0.804026490066225	0.0514966887417219	0.00593377483443711	-0.0482119205298018	-26.8280794701987	-3.97748344370861				0.463788079470199	0.0331655629139073	-0.644238410596026	-37.7796026490066	6.87761589403974	-23.434701986755			
109	2480	0.935841059602649	-0.109245033112583	-0.263523178807947	31.3933774834437	65.3753642384106	6.93509933774835				0.896953642384106	0.127788079470199	-0.00286092715231785	0.153907284768212	-25.4521854304636	-12.6259602649007				0.885827814569536	0.0467284768211921	-0.32794701986755	-2.79258278145695	50.5464900662252	11.8397350993378				0.480529801324503	-0.464529801324503	-0.645721854304636	5.84291390728477	-6.2564238410596	-4.81562913907285				0.852026490066225	0.00349668874172187	0.0379337748344371	2.4717880794702	-23.4680794701987	-7.33748344370861				0.543788079470199	0.0811655629139073	-0.692238410596026	-40.0196026490066	11.6376158940397	-30.154701986755			
110	2500	0.935841059602649	-0.109245033112583	-0.231523178807947	19.6333774834437	69.5753642384106	12.5350993377483				0.944953642384106	0.0477880794701987	0.0611390728476822	-9.08609271523179	-21.5321854304636	-14.0259602649007				0.901827814569536	0.0307284768211921	-0.34394701986755	-12.872582781457	43.5464900662252	12.6797350993378				0.480529801324503	-0.432529801324503	-0.645721854304636	-0.0370860927152318	-4.8564238410596	-8.17562913907285				0.900026490066225	0.0194966887417219	0.0539337748344371	-2.2882119205298	-16.4680794701987	-7.61748344370861				0.543788079470199	0.0971655629139073	-0.708238410596026	-23.4996026490066	10.5176158940397	-29.034701986755			
111	2520	0.935841059602649	-0.0452450331125828	-0.167523178807947	10.1133774834437	69.5753642384106	8.89509933774834				0.912953642384106	0.0477880794701987	0.0291390728476822	-8.24609271523179	-8.93218543046358	-15.1459602649007				0.917827814569536	0.0307284768211921	-0.31194701986755	-21.272582781457	38.7864900662252	14.6397350993378				0.480529801324503	-0.384529801324503	-0.645721854304636	1.92291390728477	1.0235761589404	-5.09562913907285				0.884026490066225	0.0194966887417219	0.0379337748344371	-3.6882119205298	-15.6280794701987	-7.89748344370861				0.527788079470199	0.113165562913907	-0.708238410596026	-12.0196026490066	18.6376158940397	-25.674701986755			
112	2540	0.951841059602649	0.0347549668874172	-0.183523178807947	6.47337748344371	58.0953642384106	3.29509933774834				0.896953642384106	0.0157880794701987	0.0451390728476822	-6.84609271523179	-10.3321854304636	-12.6259602649007				0.933827814569536	-0.0492715231788079	-0.21594701986755	-21.272582781457	27.8664900662252	10.9997350993378				0.496529801324503	-0.368529801324503	-0.645721854304636	3.32291390728477	1.3035761589404	-0.895629139072848				0.852026490066225	0.0194966887417219	0.0219337748344371	-4.2482119205298	-11.9880794701987	-3.97748344370861				0.543788079470199	0.0491655629139073	-0.708238410596026	-11.7396026490066	25.0776158940397	-23.714701986755			
113	2560	0.935841059602649	0.0987549668874172	-0.119523178807947	3.39337748344371	52.2153642384106	-2.02490066225166				0.848953642384106	0.0637880794701987	-0.0348609271523178	-0.406092715231788	-14.5321854304636	-12.3459602649007				0.901827814569536	-0.0652715231788079	-0.21594701986755	-1.11258278145695	16.9464900662252	3.15973509933775				0.496529801324503	-0.384529801324503	-0.629721854304636	2.20291390728477	-1.7764238410596	-0.615629139072848				0.868026490066225	-0.0125033112582781	0.0539337748344371	-0.888211920529802	-4.70807947019868	-6.49748344370861				0.575788079470199	0.0331655629139073	-0.740238410596026	-8.65960264900662	17.7976158940397	-21.474701986755			
114	2580	0.935841059602649	0.0827549668874172	-0.039523178807947	10.9533774834437	44.0953642384106	-5.94490066225166				0.912953642384106	0.0797880794701987	-0.0188609271523178	5.75390728476821	-15.6521854304636	-10.1059602649007				0.901827814569536	0.0307284768211921	-0.21594701986755	-0.272582781456954	14.4264900662252	-0.48026490066225				0.512529801324503	-0.384529801324503	-0.597721854304636	-2.83708609271523	-2.0564238410596	-1.73562913907285				0.900026490066225	0.00349668874172187	0.0699337748344371	-1.4482119205298	-8.34807947019868	-5.93748344370861				0.591788079470199	0.0651655629139073	-0.740238410596026	-12.5796026490066	14.4376158940397	-21.754701986755			
115	2600	0.983841059602649	-0.0612450331125828	-0.055523178807947	13.7533774834437	39.0553642384106	-4.82490066225166				0.960953642384106	0.0957880794701987	0.0131390728476822	5.19390728476821	-9.77218543046358	-11.7859602649007				0.949827814569536	0.0787284768211921	-0.16794701986755	-17.072582781457	13.8664900662252	-1.88026490066225				0.512529801324503	-0.384529801324503	-0.613721854304636	-7.87708609271523	-0.3764238410596	-4.53562913907285				0.916026490066225	0.0194966887417219	0.0539337748344371	-9.2882119205298	-6.66807947019868	-5.93748344370861				0.607788079470199	0.0491655629139073	-0.740238410596026	-14.5396026490066	13.8776158940397	-17.554701986755			
116	2620	0.983841059602649	-0.125245033112583	-0.039523178807947	9.55337748344371	33.1753642384106	-0.0649006622516557				0.976953642384106	0.127788079470199	0.0131390728476822	3.51390728476821	-4.73218543046358	-13.4659602649007				0.997827814569536	0.0307284768211921	-0.19994701986755	-5.59258278145695	11.3464900662252	0.35973509933775				0.496529801324503	-0.352529801324503	-0.677721854304636	-2.83708609271523	3.5435761589404	-4.25562913907285				0.916026490066225	0.0514966887417219	0.0539337748344371	-8.1682119205298	-1.90807947019868	-5.09748344370861				0.655788079470199	0.0971655629139073	-0.756238410596026	-11.7396026490066	7.99761589403974	-15.314701986755			
117	2640	0.951841059602649	-0.0932450331125828	-0.00752317880794696	2.83337748344371	31.7753642384106	0.775099337748344				0.928953642384106	0.159788079470199	0.0291390728476822	9.39390728476821	-2.49218543046358	-12.9059602649007				0.933827814569536	-0.0492715231788079	-0.21594701986755	1.96741721854305	6.86649006622517	2.59973509933775				0.560529801324503	-0.336529801324503	-0.677721854304636	5.00291390728477	10.5435761589404	-2.29562913907285				0.964026490066225	0.0674966887417219	0.0699337748344371	-7.3282119205298	1.73192052980133	-4.25748344370861				0.671788079470199	0.0971655629139073	-0.724238410596026	-6.41960264900662	5.47761589403974	-17.274701986755			
118	2660	0.967841059602649	0.00275496688741723	-0.023523178807947	-2.76662251655629	26.1753642384106	0.215099337748344				0.912953642384106	0.143788079470199	0.0131390728476822	16.9539072847682	2.26781456953642	-8.42596026490066				0.933827814569536	-0.0332715231788079	-0.19994701986755	3.92741721854305	6.86649006622517	5.67973509933775				0.592529801324503	-0.368529801324503	-0.629721854304636	8.36291390728477	15.3035761589404	-0.615629139072848				0.980026490066225	0.0674966887417219	0.0539337748344371	-6.7682119205298	-0.788079470198675	-3.97748344370861				0.623788079470199	0.113165562913907	-0.708238410596026	0.300397350993377	-0.962384105960265	-18.394701986755			
119	2680	0.983841059602649	0.0667549668874172	-0.023523178807947	-3.60662251655629	17.4953642384106	-0.624900662251656				0.960953642384106	0.111788079470199	0.0291390728476822	13.0339072847682	1.70781456953642	-4.78596026490066				0.949827814569536	-0.0172715231788079	-0.16794701986755	0.847417218543046	4.62649006622517	4.55973509933775				0.624529801324503	-0.368529801324503	-0.645721854304636	9.20291390728477	12.7835761589404	1.62437086092715				0.964026490066225	0.0994966887417219	0.0539337748344371	-7.0482119205298	-2.46807947019868	-4.25748344370861				0.591788079470199	0.113165562913907	-0.692238410596026	1.98039735099338	-6.00238410596027	-13.354701986755			
120	2700	0.983841059602649	0.0187549668874172	-0.023523178807947	5.07337748344371	13.5753642384106	3.57509933774835				0.992953642384106	0.111788079470199	0.0131390728476822	7.43390728476821	3.10781456953642	-3.10596026490066				0.965827814569536	-0.0332715231788079	-0.19994701986755	2.24741721854305	1.54649006622517	2.31973509933775				0.656529801324503	-0.368529801324503	-0.693721854304636	2.20291390728477	8.0235761589404	2.18437086092715				0.948026490066225	0.0994966887417219	0.0699337748344371	-3.1282119205298	-2.46807947019868	-4.53748344370861				0.607788079470199	0.145165562913907	-0.756238410596026	-6.69960264900662	-4.88238410596027	-8.31470198675497			
121	2720	0.983841059602649	-0.0772450331125828	-0.023523178807947	10.9533774834437	10.4953642384106	-1.46490066225166				0.960953642384106	0.175788079470199	0.0451390728476822	6.59390728476821	3.38781456953642	-3.38596026490066				0.965827814569536	-0.00127152317880793	-0.19994701986755	5.88741721854305	0.146490066225167	0.91973509933775				0.640529801324503	-0.368529801324503	-0.693721854304636	1.92291390728477	6.3435761589404	2.46437086092715				0.964026490066225	0.115496688741722	0.0699337748344371	-2.0082119205298	-2.18807947019868	-5.09748344370861				0.639788079470199	0.177165562913907	-0.740238410596026	-4.73960264900662	-6.00238410596027	-8.03470198675497			
122	2740	0.967841059602649	-0.0932450331125828	-0.039523178807947	10.1133774834437	5.7353642384106	-2.58490066225166				1.00895364238411	0.175788079470199	-0.00286092715231785	9.95390728476821	-6.41218543046358	-3.10596026490066				0.949827814569536	0.0307284768211921	-0.21594701986755	3.64741721854305	-0.413509933774833	2.03973509933775				0.608529801324503	-0.352529801324503	-0.645721854304636	0.242913907284768	0.4635761589404	2.46437086092715				0.964026490066225	0.0834966887417219	0.0379337748344371	3.5917880794702	-1.90807947019868	-4.81748344370861				0.607788079470199	0.209165562913907	-0.740238410596026	-1.09960264900662	-3.76238410596027	-8.31470198675497			
123	2760	0.951841059602649	-0.0612450331125828	-0.039523178807947	4.51337748344371	2.6553642384106	-0.904900662251656				0.976953642384106	0.111788079470199	-0.0348609271523178	9.95390728476821	-8.09218543046358	1.09403973509934				0.917827814569536	0.0147284768211921	-0.24794701986755	5.04741721854305	1.82649006622517	2.03973509933775				0.608529801324503	-0.336529801324503	-0.677721854304636	-0.597086092715232	-4.5764238410596	0.224370860927152				0.932026490066225	0.0834966887417219	0.0379337748344371	3.5917880794702	0.331920529801325	-3.69748344370861				0.607788079470199	0.209165562913907	-0.724238410596026	7.58039735099338	-7.68238410596027	-9.71470198675497			
124	2780	0.983841059602649	-0.0292450331125828	-0.055523178807947	-2.48662251655629	3.4953642384106	-0.904900662251656				0.944953642384106	0.127788079470199	-0.0828609271523179	8.55390728476821	-4.45218543046358	0.25403973509934				0.917827814569536	0.0147284768211921	-0.23194701986755	4.20741721854305	2.94649006622517	0.35973509933775				0.592529801324503	-0.368529801324503	-0.677721854304636	-4.23708609271523	-7.9364238410596	-1.73562913907285				0.932026490066225	0.0994966887417219	0.0859337748344371	5.2717880794702	5.37192052980133	-3.41748344370861				0.607788079470199	0.145165562913907	-0.724238410596026	11.5003973509934	-9.36238410596027	-8.87470198675497			
125	2800	0.983841059602649	0.00275496688741723	-0.071523178807947	-4.72662251655629	3.7753642384106	-1.74490066225166				0.976953642384106	0.159788079470199	-0.0508609271523178	8.83390728476821	5.34781456953642	0.81403973509934				0.933827814569536	0.0467284768211921	-0.24794701986755	-0.832582781456954	4.90649006622517	-0.76026490066225				0.544529801324503	-0.384529801324503	-0.645721854304636	-3.95708609271523	-6.2564238410596	-2.01562913907285				0.948026490066225	0.0834966887417219	0.00593377483443711	6.3917880794702	2.01192052980133	-3.69748344370861				0.607788079470199	0.145165562913907	-0.708238410596026	9.82039735099338	-7.68238410596027	-10.834701986755			
126	2820	0.967841059602649	-0.0132450331125828	-0.039523178807947	-3.88662251655629	-0.424635761589404	-1.18490066225166				0.992953642384106	0.127788079470199	-0.0188609271523178	-5.72609271523179	-0.812185430463576	3.05403973509934				0.949827814569536	0.0147284768211921	-0.27994701986755	0.287417218543046	0.706490066225167	-1.32026490066225				0.512529801324503	-0.368529801324503	-0.677721854304636	-6.47708609271523	-4.0164238410596	-3.69562913907285				0.964026490066225	0.0674966887417219	0.0379337748344371	3.8717880794702	6.49192052980132	-4.53748344370861				0.591788079470199	0.129165562913907	-0.708238410596026	7.30039735099338	-5.44238410596027	-9.43470198675497			
127	2840	0.983841059602649	0.00275496688741723	-0.087523178807947	-0.526622516556291	2.0953642384106	-3.14490066225166				0.976953642384106	0.159788079470199	-0.0988609271523179	10.7939072847682	-5.29218543046358	-2.82596026490066				0.917827814569536	0.0307284768211921	-0.29594701986755	3.08741721854305	-1.81350993377483	-1.32026490066225				0.480529801324503	-0.368529801324503	-0.709721854304636	-0.877086092715232	1.0235761589404	-1.45562913907285				0.948026490066225	0.0514966887417219	0.0219337748344371	-0.0482119205298018	5.37192052980133	-3.97748344370861				0.591788079470199	0.129165562913907	-0.708238410596026	7.02039735099338	-2.64238410596027	-6.63470198675497			
128	2860	0.967841059602649	0.0187549668874172	-0.055523178807947	-1.08662251655629	0.415364238410596	-2.58490066225166				0.928953642384106	0.111788079470199	-0.0668609271523178	12.4739072847682	-8.37218543046358	-6.74596026490066				0.917827814569536	0.0147284768211921	-0.31194701986755	1.96741721854305	-2.93350993377483	0.35973509933775				0.624529801324503	-0.384529801324503	-0.709721854304636	-3.39708609271523	-0.0964238410596001	2.74437086092715				0.964026490066225	0.00349668874172187	-0.0740662251655629	-4.2482119205298	-7.50807947019868	0.502516556291392				0.447788079470199	0.0811655629139073	-0.820238410596026	-0.259602649006623	-4.04238410596027	-0.194701986754968			
129	2880	0.983841059602649	-0.0132450331125828	-0.071523178807947	-1.36662251655629	-2.9446357615894	-2.86490066225166				0.960953642384106	0.111788079470199	-0.114860927152318	11.6339072847682	-10.8921854304636	-3.66596026490066				0.917827814569536	0.0147284768211921	-0.32794701986755	3.08741721854305	-1.81350993377483	1.19973509933775				0.544529801324503	-0.368529801324503	-0.693721854304636	2.76291390728477	-0.0964238410596001	-3.97562913907285				0.964026490066225	0.0674966887417219	0.0219337748344371	-1.7282119205298	4.25192052980133	-3.13748344370861				0.607788079470199	0.145165562913907	-0.724238410596026	4.78039735099338	0.717615894039735	-6.63470198675497			
130	2900	0.967841059602649	0.00275496688741723	-0.087523178807947	-4.44662251655629	-2.9446357615894	-3.42490066225166				0.928953642384106	0.127788079470199	-0.0988609271523179	5.19390728476821	-5.85218543046358	-3.66596026490066				0.885827814569536	0.0467284768211921	-0.31194701986755	-5.03258278145695	-2.37350993377483	-0.48026490066225				0.544529801324503	-0.368529801324503	-0.693721854304636	-0.597086092715232	-1.7764238410596	-5.65562913907285				0.980026490066225	0.0994966887417219	0.0219337748344371	-5.0882119205298	1.17192052980133	-3.13748344370861				0.575788079470199	0.161165562913907	-0.724238410596026	4.22039735099338	0.997615894039735	-7.47470198675497			
131	2920	0.967841059602649	0.0187549668874172	-0.119523178807947	0.313377483443709	0.975364238410596	-2.02490066225166				0.960953642384106	0.207788079470199	-0.114860927152318	9.95390728476821	-6.41218543046358	-5.90596026490066				0.917827814569536	0.0787284768211921	-0.29594701986755	-5.59258278145695	-1.53350993377483	-1.88026490066225				0.544529801324503	-0.368529801324503	-0.693721854304636	0.802913907284768	-1.4964238410596	-5.93562913907285				0.964026490066225	0.0994966887417219	0.0219337748344371	-2.2882119205298	-1.06807947019868	-2.29748344370861				0.575788079470199	0.193165562913907	-0.756238410596026	5.90039735099338	-0.962384105960265	-7.75470198675497			
132	2940	0.967841059602649	0.0187549668874172	-0.087523178807947	0.593377483443709	1.5353642384106	-2.86490066225166				1.00895364238411	0.223788079470199	-0.130860927152318	16.1139072847682	-8.65218543046358	-4.78596026490066				0.933827814569536	0.0947284768211921	-0.32794701986755	0.567417218543046	-3.21350993377483	-3.28026490066225				0.544529801324503	-0.384529801324503	-0.709721854304636	0.802913907284768	-2.0564238410596	-5.65562913907285				0.964026490066225	0.115496688741722	0.00593377483443711	-0.608211920529802	-0.788079470198675	-2.29748344370861				0.559788079470199	0.209165562913907	-0.756238410596026	2.82039735099338	0.157615894039735	-8.59470198675497			
133	2960	0.983841059602649	0.00275496688741723	-0.103523178807947	1.99337748344371	1.2553642384106	-2.86490066225166				0.976953642384106	0.191788079470199	-0.146860927152318	14.7139072847682	-9.77218543046358	-1.70596026490066				0.917827814569536	0.0787284768211921	-0.34394701986755	7.00741721854305	-1.53350993377483	-2.72026490066225				0.576529801324503	-0.368529801324503	-0.709721854304636	0.802913907284768	-3.7364238410596	-4.53562913907285				0.980026490066225	0.115496688741722	0.00593377483443711	1.6317880794702	-0.228079470198675	-2.01748344370861				0.575788079470199	0.193165562913907	-0.772238410596026	1.98039735099338	-0.962384105960265	-8.87470198675497			
134	3100	0	0	0	0	0	0				0.960953642384106	0.191788079470199	-0.114860927152318	6.59390728476821	-3.61218543046358	-3.10596026490066				0.917827814569536	0.0627284768211921	-0.29594701986755	2.24741721854305	1.26649006622517	-0.20026490066225				0	0	0	0	0	0				0.980026490066225	0.0994966887417219	0.00593377483443711	7.5117880794702	-3.02807947019868	-1.17748344370861				0.575788079470199	0.209165562913907	-0.740238410596026	0.860397350993377	-1.24238410596026	-4.67470198675497			
135	3120	0.983841059602649	0.0347549668874172	-0.071523178807947	1.43337748344371	-1.5446357615894	-0.904900662251656				0.944953642384106	0.191788079470199	-0.114860927152318	1.83390728476821	-3.89218543046358	-2.26596026490066				0.933827814569536	0.0627284768211921	-0.24794701986755	1.12741721854305	2.10649006622517	-0.76026490066225				0.512529801324503	-0.384529801324503	-0.725721854304636	5.00291390728477	-5.1364238410596	-3.97562913907285				0.964026490066225	0.0994966887417219	-0.0100662251655629	5.8317880794702	-4.14807947019868	-2.01748344370861				0.591788079470199	0.209165562913907	-0.756238410596026	2.82039735099338	-3.20238410596026	-6.91470198675497			
136	3140	0.967841059602649	0.0187549668874172	-0.071523178807947	-0.246622516556291	-3.2246357615894	-1.18490066225166				0.960953642384106	0.175788079470199	-0.114860927152318	0.433907284768212	-2.77218543046358	-3.10596026490066				0.933827814569536	0.0307284768211921	-0.24794701986755	3.36741721854305	0.146490066225167	-0.48026490066225				0.512529801324503	-0.384529801324503	-0.725721854304636	2.48291390728477	-5.1364238410596	-3.13562913907285				0.948026490066225	0.0994966887417219	0.00593377483443711	3.5917880794702	-2.74807947019868	-2.57748344370861				0.591788079470199	0.177165562913907	-0.740238410596026	5.34039735099338	-4.88238410596027	-7.47470198675497			
137	3160	0.967841059602649	0.00275496688741723	-0.055523178807947	3.11337748344371	-0.704635761589404	-0.904900662251656				0.944953642384106	0.159788079470199	-0.114860927152318	1.55390728476821	-1.65218543046358	-2.54596026490066				0.933827814569536	0.0307284768211921	-0.27994701986755	4.76741721854305	-2.37350993377483	-1.04026490066225				0.512529801324503	-0.352529801324503	-0.725721854304636	3.60291390728477	-3.4564238410596	-1.73562913907285				0.948026490066225	0.115496688741722	0.00593377483443711	3.0317880794702	-1.90807947019868	-2.29748344370861				0.575788079470199	0.177165562913907	-0.740238410596026	3.66039735099338	-4.04238410596027	-5.79470198675497			
138	3180	0.967841059602649	0.00275496688741723	-0.055523178807947	1.99337748344371	-0.984635761589404	-0.904900662251656				0.976953642384106	0.191788079470199	-0.0828609271523179	3.51390728476821	-1.37218543046358	-2.82596026490066				0.917827814569536	0.0467284768211921	-0.27994701986755	0.287417218543046	-0.413509933774833	-0.76026490066225				0.512529801324503	-0.352529801324503	-0.709721854304636	3.32291390728477	-2.8964238410596	-1.45562913907285				0.964026490066225	0.115496688741722	0.00593377483443711	3.3117880794702	-1.34807947019868	-2.01748344370861				0.559788079470199	0.193165562913907	-0.724238410596026	1.70039735099338	-1.80238410596026	-3.83470198675497			
