No	Time	12-AccX	12-AccY	12-AccZ	12-GyroX	12-GyroY	12-GyroZ	13-AccX	13-AccY	13-AccZ	13-GyroX	13-GyroY	13-GyroZ	14-AccX	14-AccY	14-AccZ	14-GyroX	14-GyroY	14-GyroZ	15-AccX	15-AccY	15-AccZ	15-GyroX	15-GyroY	15-GyroZ	16-AccX	16-AccY	16-AccZ	16-GyroX	16-GyroY	16-GyroZ	17-AccX	17-AccY	17-AccZ	17-GyroX	17-GyroY	17-GyroZ
0	100	0	0	0	0	0	0				0	0	0	0	0	0				0	0	0	0	0	0				0	0	0	0	0	0				0.964026490066225	0.0514966887417219	0.149933774834437	-0.0482119205298018	-2.46807947019868	-0.337483443708608				0	0	0	0	0	0			
1	120	-0.216158940397351	0.130754966887417	-0.935523178807947	-0.246622516556291	0.135364238410596	-0.624900662251656				0.960953642384106	0.0637880794701987	0.269139072847682	-0.406092715231788	4.78781456953642	1.37403973509934				-0.250172185430464	-0.0172715231788079	-0.88794701986755	0.287417218543046	-0.693509933774834	-0.48026490066225				0.176529801324503	0.0154701986754967	-0.949721854304636	1.92291390728477	1.5835761589404	0.224370860927152				0.948026490066225	0.0514966887417219	0.165933774834437	-0.608211920529802	-3.58807947019868	0.222516556291392				0.239788079470199	-0.350834437086093	-0.852238410596026	-0.819602649006623	1.27761589403974	-1.59470198675497			
2	140	-0.216158940397351	0.130754966887417	-0.935523178807947	-0.246622516556291	0.415364238410596	-0.904900662251656				0.960953642384106	0.0637880794701987	0.285139072847682	-0.406092715231788	2.82781456953642	0.53403973509934				-0.250172185430464	-0.00127152317880793	-0.88794701986755	0.847417218543046	0.426490066225167	0.35973509933775				0.176529801324503	-0.000529801324503289	-0.933721854304636	1.36291390728477	0.4635761589404	-0.615629139072848				0.948026490066225	0.0354966887417219	0.149933774834437	-1.1682119205298	-2.46807947019868	0.502516556291392				0.239788079470199	-0.366834437086093	-0.868238410596026	0.300397350993377	-0.122384105960265	-1.03470198675497			
3	160	-0.216158940397351	0.130754966887417	-0.919523178807947	0.313377483443709	-0.144635761589404	-0.0649006622516557				0.944953642384106	0.0797880794701987	0.269139072847682	-0.406092715231788	0.587814569536424	0.81403973509934				-0.250172185430464	-0.0172715231788079	-0.88794701986755	0.00741721854304636	0.986490066225167	-0.20026490066225				0.192529801324503	-0.000529801324503289	-0.949721854304636	1.08291390728477	0.4635761589404	-0.335629139072848				0.964026490066225	0.0514966887417219	0.149933774834437	-2.2882119205298	-2.46807947019868	-0.617483443708608				0.239788079470199	-0.366834437086093	-0.852238410596026	0.300397350993377	-0.962384105960265	0.0852980132450323			
4	180	-0.216158940397351	0.130754966887417	-0.935523178807947	0.0333774834437086	-0.424635761589404	-0.0649006622516557				0.960953642384106	0.0797880794701987	0.269139072847682	-1.24609271523179	1.42781456953642	-0.0259602649006601				-0.250172185430464	-0.0172715231788079	-0.88794701986755	0.00741721854304636	-0.413509933774833	0.0797350993377501				0.192529801324503	-0.000529801324503289	-0.965721854304636	1.92291390728477	1.0235761589404	-0.335629139072848				0.964026490066225	0.0354966887417219	0.149933774834437	-1.1682119205298	-1.90807947019868	0.782516556291392				0.239788079470199	-0.366834437086093	-0.852238410596026	-0.819602649006623	-1.80238410596026	0.925298013245032			
5	200	-0.216158940397351	0.130754966887417	-0.951523178807947	-0.246622516556291	0.135364238410596	-0.904900662251656				0.960953642384106	0.0797880794701987	0.269139072847682	0.153907284768212	2.54781456953642	-0.30596026490066				-0.250172185430464	-0.00127152317880793	-0.88794701986755	0.567417218543046	-0.133509933774833	0.0797350993377501				0.192529801324503	0.0154701986754967	-0.949721854304636	1.92291390728477	1.0235761589404	0.224370860927152				0.948026490066225	0.0514966887417219	0.149933774834437	-0.888211920529802	-1.62807947019868	1.06251655629139				0.239788079470199	-0.350834437086093	-0.852238410596026	1.14039735099338	-1.80238410596026	0.925298013245032			
6	220	-0.216158940397351	0.130754966887417	-0.951523178807947	-0.246622516556291	0.415364238410596	-1.46490066225166				0.960953642384106	0.0797880794701987	0.269139072847682	0.153907284768212	1.70781456953642	1.37403973509934				-0.250172185430464	-0.0172715231788079	-0.88794701986755	0.287417218543046	0.426490066225167	-0.20026490066225				0.176529801324503	0.0154701986754967	-0.949721854304636	2.48291390728477	1.0235761589404	0.504370860927152				0.948026490066225	0.0674966887417219	0.149933774834437	-0.888211920529802	-1.34807947019868	1.34251655629139				0.239788079470199	-0.350834437086093	-0.836238410596026	1.98039735099338	-0.682384105960265	-0.194701986754968			
7	240	-0.232158940397351	0.130754966887417	-0.935523178807947	0.593377483443709	-0.424635761589404	-1.46490066225166				0.960953642384106	0.0797880794701987	0.285139072847682	-0.406092715231788	1.70781456953642	0.25403973509934				-0.250172185430464	-0.0172715231788079	-0.88794701986755	0.287417218543046	0.146490066225167	0.0797350993377501				0.192529801324503	-0.000529801324503289	-0.949721854304636	3.60291390728477	1.5835761589404	0.504370860927152				0.964026490066225	0.0514966887417219	0.149933774834437	-0.888211920529802	-1.34807947019868	0.222516556291392				0.223788079470199	-0.350834437086093	-0.836238410596026	1.42039735099338	0.437615894039735	-0.754701986754968			
8	260	-0.216158940397351	0.146754966887417	-0.935523178807947	-0.246622516556291	0.415364238410596	-1.74490066225166				0.960953642384106	0.0797880794701987	0.285139072847682	0.433907284768212	0.0278145695364242	0.81403973509934				-0.266172185430464	-0.00127152317880793	-0.88794701986755	-0.552582781456954	-0.133509933774833	0.0797350993377501				0.208529801324503	-0.000529801324503289	-0.965721854304636	2.48291390728477	1.8635761589404	0.224370860927152				0.964026490066225	0.0514966887417219	0.149933774834437	-0.888211920529802	-1.62807947019868	1.34251655629139				0.239788079470199	-0.366834437086093	-0.852238410596026	0.300397350993377	0.997615894039735	-1.31470198675497			
9	280	-0.216158940397351	0.130754966887417	-0.935523178807947	-0.806622516556291	0.975364238410596	-1.46490066225166				0.960953642384106	0.0797880794701987	0.269139072847682	-0.686092715231788	0.587814569536424	0.53403973509934				-0.250172185430464	-0.00127152317880793	-0.88794701986755	0.567417218543046	0.146490066225167	-0.20026490066225				0.208529801324503	-0.000529801324503289	-0.949721854304636	0.522913907284768	0.7435761589404	-0.335629139072848				0.964026490066225	0.0514966887417219	0.133933774834437	-0.328211920529802	-3.86807947019868	0.502516556291392				0.239788079470199	-0.366834437086093	-0.852238410596026	0.0203973509933773	0.437615894039735	-1.31470198675497			
10	300	-0.216158940397351	0.130754966887417	-0.935523178807947	0.313377483443709	0.415364238410596	-1.46490066225166				0.944953642384106	0.0797880794701987	0.285139072847682	0.433907284768212	1.70781456953642	0.25403973509934				-0.250172185430464	-0.0172715231788079	-0.88794701986755	0.287417218543046	0.426490066225167	-0.20026490066225				0.192529801324503	-0.000529801324503289	-0.949721854304636	-0.317086092715232	-0.6564238410596	0.224370860927152				0.948026490066225	0.0514966887417219	0.165933774834437	-0.328211920529802	-0.228079470198675	1.06251655629139				0.223788079470199	-0.366834437086093	-0.852238410596026	0.0203973509933773	-0.122384105960265	-0.474701986754968			
11	320	-0.216158940397351	0.130754966887417	-0.935523178807947	0.0333774834437086	-0.144635761589404	-1.18490066225166				0.960953642384106	0.0957880794701987	0.285139072847682	0.433907284768212	1.98781456953642	1.09403973509934				-0.250172185430464	-0.0172715231788079	-0.88794701986755	0.567417218543046	-0.413509933774833	-0.76026490066225				0.192529801324503	-0.000529801324503289	-0.949721854304636	0.242913907284768	0.1835761589404	0.784370860927152				0.948026490066225	0.0674966887417219	0.133933774834437	-1.1682119205298	-2.46807947019868	0.782516556291392				0.239788079470199	-0.366834437086093	-0.852238410596026	-0.819602649006623	0.997615894039735	0.365298013245032			
12	340	-0.216158940397351	0.130754966887417	-0.935523178807947	-0.806622516556291	0.415364238410596	-0.904900662251656				0.960953642384106	0.0797880794701987	0.301139072847682	-1.52609271523179	0.867814569536424	1.09403973509934				-0.266172185430464	-0.0172715231788079	-0.87194701986755	0.847417218543046	0.426490066225167	0.0797350993377501				0.176529801324503	-0.000529801324503289	-0.949721854304636	0.522913907284768	0.7435761589404	1.06437086092715				0.948026490066225	0.0514966887417219	0.149933774834437	-1.7282119205298	-0.508079470198675	-0.337483443708608				0.239788079470199	-0.350834437086093	-0.836238410596026	-0.539602649006623	0.437615894039735	0.365298013245032			
13	360	-0.232158940397351	0.130754966887417	-0.951523178807947	0.593377483443709	-0.704635761589404	-0.624900662251656				0.960953642384106	0.0637880794701987	0.301139072847682	-0.126092715231788	-2.21218543046358	0.53403973509934				-0.250172185430464	-0.00127152317880793	-0.88794701986755	0.287417218543046	-0.133509933774833	-0.20026490066225				0.192529801324503	-0.000529801324503289	-0.949721854304636	1.08291390728477	-0.9364238410596	1.34437086092715				0.948026490066225	0.0514966887417219	0.133933774834437	-1.7282119205298	-0.228079470198675	-0.897483443708608				0.223788079470199	-0.366834437086093	-0.852238410596026	0.300397350993377	-0.682384105960265	0.0852980132450323			
14	380	-0.232158940397351	0.130754966887417	-0.951523178807947	0.593377483443709	0.135364238410596	-1.46490066225166				0.960953642384106	0.0797880794701987	0.253139072847682	0.993907284768212	0.0278145695364242	0.25403973509934				-0.250172185430464	-0.0172715231788079	-0.88794701986755	0.567417218543046	0.426490066225167	0.0797350993377501				0.192529801324503	-0.000529801324503289	-0.965721854304636	-0.877086092715232	-2.0564238410596	1.62437086092715				0.964026490066225	0.0354966887417219	0.149933774834437	2.1917880794702	-0.228079470198675	1.06251655629139				0.239788079470199	-0.350834437086093	-0.868238410596026	-1.09960264900662	-0.122384105960265	0.0852980132450323			
15	400	-0.216158940397351	0.130754966887417	-0.935523178807947	0.593377483443709	0.695364238410596	-1.18490066225166				0.976953642384106	0.0797880794701987	0.285139072847682	-0.406092715231788	2.54781456953642	-0.585960264900661				-0.250172185430464	-0.0172715231788079	-0.88794701986755	0.567417218543046	-0.133509933774833	-0.20026490066225				0.224529801324503	-0.0165298013245033	-0.965721854304636	-1.43708609271523	-2.6164238410596	2.18437086092715				0.964026490066225	0.0514966887417219	0.149933774834437	0.511788079470198	-0.508079470198675	-0.337483443708608				0.239788079470199	-0.366834437086093	-0.852238410596026	-0.819602649006623	-0.682384105960265	0.0852980132450323			
16	420	-0.216158940397351	0.130754966887417	-0.935523178807947	0.313377483443709	0.695364238410596	-0.344900662251656				0.960953642384106	0.0957880794701987	0.301139072847682	-1.24609271523179	-0.812185430463576	-1.14596026490066				-0.250172185430464	-0.0332715231788079	-0.88794701986755	0.567417218543046	0.986490066225167	0.63973509933775				0.208529801324503	-0.000529801324503289	-0.965721854304636	-4.23708609271523	-3.4564238410596	3.02437086092715				0.964026490066225	0.0514966887417219	0.149933774834437	0.231788079470198	-1.06807947019868	0.222516556291392				0.239788079470199	-0.366834437086093	-0.852238410596026	-1.09960264900662	-0.122384105960265	-1.03470198675497			
17	440	-0.216158940397351	0.130754966887417	-0.935523178807947	0.593377483443709	-0.144635761589404	-1.74490066225166				0.960953642384106	0.0797880794701987	0.301139072847682	-1.24609271523179	-1.93218543046358	-0.0259602649006601				-0.266172185430464	-0.0172715231788079	-0.90394701986755	1.68741721854305	0.426490066225167	0.0797350993377501				0.192529801324503	0.0154701986754967	-0.965721854304636	-3.39708609271523	-2.8964238410596	2.74437086092715				0.964026490066225	0.0514966887417219	0.149933774834437	1.0717880794702	-1.06807947019868	0.222516556291392				0.239788079470199	-0.366834437086093	-0.836238410596026	-0.539602649006623	0.437615894039735	-0.474701986754968			
18	460	-0.232158940397351	0.130754966887417	-0.935523178807947	0.873377483443709	0.135364238410596	-1.18490066225166				0.976953642384106	0.0637880794701987	0.269139072847682	0.713907284768212	-2.49218543046358	1.93403973509934				-0.250172185430464	-0.0172715231788079	-0.87194701986755	0.00741721854304636	0.706490066225167	0.35973509933775				0.160529801324503	-0.0165298013245033	-0.949721854304636	-0.0370860927152318	-2.3364238410596	3.02437086092715				0.948026490066225	0.0514966887417219	0.133933774834437	0.791788079470198	-0.508079470198675	-0.337483443708608				0.223788079470199	-0.350834437086093	-0.836238410596026	-1.65960264900662	-0.962384105960265	0.0852980132450323			
19	480	-0.232158940397351	0.146754966887417	-0.935523178807947	0.313377483443709	0.695364238410596	-0.904900662251656				0.976953642384106	0.0797880794701987	0.253139072847682	2.11390728476821	-1.93218543046358	0.81403973509934				-0.266172185430464	-0.0172715231788079	-0.87194701986755	0.00741721854304636	0.426490066225167	0.0797350993377501				0.176529801324503	-0.0165298013245033	-0.949721854304636	-1.43708609271523	-1.4964238410596	3.58437086092715				0.948026490066225	0.0514966887417219	0.149933774834437	0.231788079470198	0.331920529801325	-0.617483443708608				0.223788079470199	-0.350834437086093	-0.836238410596026	-0.819602649006623	-2.08238410596027	-0.754701986754968			
20	500	-0.232158940397351	0.130754966887417	-0.935523178807947	0.593377483443709	0.695364238410596	-1.18490066225166				0.960953642384106	0.0637880794701987	0.269139072847682	1.83390728476821	-1.93218543046358	-0.0259602649006601				-0.250172185430464	-0.0172715231788079	-0.88794701986755	0.847417218543046	0.426490066225167	0.91973509933775				0.160529801324503	0.0154701986754967	-0.917721854304636	-1.15708609271523	0.4635761589404	3.58437086092715				0.964026490066225	0.0354966887417219	0.133933774834437	-0.0482119205298018	1.17192052980133	-0.617483443708608				0.239788079470199	-0.350834437086093	-0.852238410596026	-0.259602649006623	-0.962384105960265	-1.03470198675497			
21	520	-0.216158940397351	0.130754966887417	-0.935523178807947	0.593377483443709	0.415364238410596	-0.624900662251656				0.960953642384106	0.0637880794701987	0.269139072847682	0.713907284768212	-3.33218543046358	0.53403973509934				-0.250172185430464	-0.0172715231788079	-0.88794701986755	0.567417218543046	-0.133509933774833	-0.76026490066225				0.176529801324503	0.0154701986754967	-0.933721854304636	3.04291390728477	1.8635761589404	3.58437086092715				0.964026490066225	0.0354966887417219	0.149933774834437	0.511788079470198	1.73192052980133	-0.617483443708608				0.223788079470199	-0.366834437086093	-0.868238410596026	0.0203973509933773	-0.402384105960265	-1.03470198675497			
22	540	-0.216158940397351	0.130754966887417	-0.935523178807947	-0.246622516556291	0.415364238410596	-1.18490066225166				0.960953642384106	0.0797880794701987	0.253139072847682	-0.966092715231788	-0.812185430463576	0.25403973509934				-0.250172185430464	-0.0172715231788079	-0.88794701986755	1.12741721854305	0.426490066225167	-1.04026490066225				0.192529801324503	-0.000529801324503289	-0.965721854304636	3.32291390728477	2.7035761589404	2.74437086092715				0.964026490066225	0.0354966887417219	0.133933774834437	-0.328211920529802	-3.30807947019868	1.06251655629139				0.223788079470199	-0.366834437086093	-0.852238410596026	-0.259602649006623	0.717615894039735	-1.87470198675497			
23	560	-0.216158940397351	0.114754966887417	-0.951523178807947	0.313377483443709	0.135364238410596	-1.46490066225166				0.960953642384106	0.0797880794701987	0.269139072847682	-1.24609271523179	2.26781456953642	0.53403973509934				-0.250172185430464	-0.0172715231788079	-0.85594701986755	0.00741721854304636	0.426490066225167	-0.20026490066225				0.192529801324503	0.0154701986754967	-0.949721854304636	2.76291390728477	2.4235761589404	1.62437086092715				0.948026490066225	0.0514966887417219	0.149933774834437	0.511788079470198	-0.508079470198675	0.782516556291392				0.223788079470199	-0.366834437086093	-0.836238410596026	0.580397350993377	1.27761589403974	-0.194701986754968			
24	580	-0.216158940397351	0.130754966887417	-0.935523178807947	-0.806622516556291	0.975364238410596	-1.18490066225166				0.976953642384106	0.0957880794701987	0.285139072847682	0.153907284768212	3.10781456953642	1.37403973509934				-0.250172185430464	-0.0172715231788079	-0.88794701986755	0.287417218543046	0.986490066225167	-0.48026490066225				0.176529801324503	-0.000529801324503289	-0.949721854304636	1.36291390728477	1.3035761589404	-0.335629139072848				0.948026490066225	0.0514966887417219	0.133933774834437	-0.0482119205298018	-0.788079470198675	-0.0574834437086077				0.223788079470199	-0.366834437086093	-0.852238410596026	-1.09960264900662	0.717615894039735	0.645298013245032			
25	600	-0.216158940397351	0.130754966887417	-0.935523178807947	-0.806622516556291	0.695364238410596	-0.904900662251656				0.960953642384106	0.0637880794701987	0.269139072847682	0.993907284768212	1.42781456953642	1.09403973509934				-0.250172185430464	-0.0172715231788079	-0.88794701986755	-0.552582781456954	-0.693509933774834	-0.48026490066225				0.192529801324503	-0.000529801324503289	-0.949721854304636	-0.0370860927152318	1.5835761589404	-0.335629139072848				0.964026490066225	0.0354966887417219	0.133933774834437	0.231788079470198	-1.06807947019868	0.782516556291392				0.223788079470199	-0.350834437086093	-0.852238410596026	0.860397350993377	1.55761589403974	1.48529801324503			
26	620	-0.216158940397351	0.146754966887417	-0.935523178807947	-0.526622516556291	0.415364238410596	-0.624900662251656				0.960953642384106	0.0797880794701987	0.285139072847682	1.55390728476821	-0.812185430463576	0.25403973509934				-0.234172185430464	-0.0172715231788079	-0.88794701986755	0.567417218543046	-0.413509933774833	-0.76026490066225				0.192529801324503	-0.000529801324503289	-0.949721854304636	1.36291390728477	1.3035761589404	-0.615629139072848				0.964026490066225	0.0514966887417219	0.149933774834437	1.0717880794702	0.891920529801325	1.34251655629139				0.223788079470199	-0.350834437086093	-0.868238410596026	0.580397350993377	1.55761589403974	1.76529801324503			
27	640	-0.216158940397351	0.130754966887417	-0.935523178807947	-0.806622516556291	0.415364238410596	-0.624900662251656				0.960953642384106	0.0797880794701987	0.285139072847682	1.55390728476821	-1.09218543046358	0.81403973509934				-0.250172185430464	-0.0172715231788079	-0.88794701986755	0.567417218543046	0.146490066225167	0.35973509933775				0.208529801324503	-0.000529801324503289	-0.949721854304636	2.48291390728477	1.5835761589404	0.224370860927152				0.964026490066225	0.0514966887417219	0.133933774834437	0.791788079470198	0.331920529801325	-0.0574834437086077				0.239788079470199	-0.350834437086093	-0.852238410596026	1.70039735099338	0.157615894039735	1.20529801324503			
28	660	-0.232158940397351	0.130754966887417	-0.935523178807947	-0.526622516556291	0.415364238410596	-0.344900662251656				0.960953642384106	0.0637880794701987	0.285139072847682	1.27390728476821	0.867814569536424	1.09403973509934				-0.250172185430464	-0.0172715231788079	-0.88794701986755	-0.272582781456954	0.706490066225167	0.0797350993377501				0.208529801324503	-0.000529801324503289	-0.965721854304636	1.64291390728477	1.3035761589404	-0.615629139072848				0.964026490066225	0.0514966887417219	0.149933774834437	1.9117880794702	-0.228079470198675	0.782516556291392				0.223788079470199	-0.350834437086093	-0.852238410596026	1.14039735099338	-0.122384105960265	0.365298013245032			
29	680	-0.216158940397351	0.146754966887417	-0.935523178807947	0.0333774834437086	0.415364238410596	-0.904900662251656				0.960953642384106	0.0797880794701987	0.285139072847682	0.713907284768212	2.54781456953642	-0.0259602649006601				-0.250172185430464	-0.0172715231788079	-0.88794701986755	-0.552582781456954	-0.413509933774833	-1.04026490066225				0.192529801324503	-0.000529801324503289	-0.949721854304636	-0.0370860927152318	-0.0964238410596001	-0.335629139072848				0.964026490066225	0.0514966887417219	0.133933774834437	1.0717880794702	-0.788079470198675	0.502516556291392				0.223788079470199	-0.350834437086093	-0.852238410596026	1.98039735099338	-0.402384105960265	-0.754701986754968			
30	700	-0.216158940397351	0.130754966887417	-0.935523178807947	0.593377483443709	0.415364238410596	-0.904900662251656				0.976953642384106	0.0797880794701987	0.301139072847682	0.153907284768212	1.42781456953642	-0.0259602649006601				-0.250172185430464	-0.00127152317880793	-0.88794701986755	0.567417218543046	1.26649006622517	-0.20026490066225				0.192529801324503	0.0154701986754967	-0.965721854304636	0.802913907284768	0.1835761589404	-0.0556291390728476				0.964026490066225	0.0354966887417219	0.149933774834437	1.3517880794702	-0.788079470198675	0.782516556291392				0.239788079470199	-0.366834437086093	-0.852238410596026	1.14039735099338	-0.122384105960265	0.0852980132450323			
31	720	-0.216158940397351	0.146754966887417	-0.935523178807947	-0.526622516556291	-0.144635761589404	-0.624900662251656				0.976953642384106	0.0797880794701987	0.285139072847682	0.433907284768212	-1.09218543046358	0.53403973509934				-0.234172185430464	-0.0172715231788079	-0.87194701986755	0.567417218543046	-0.133509933774833	0.0797350993377501				0.176529801324503	0.0154701986754967	-0.965721854304636	0.522913907284768	0.1835761589404	0.224370860927152				0.964026490066225	0.0514966887417219	0.149933774834437	1.9117880794702	-0.788079470198675	0.502516556291392				0.239788079470199	-0.366834437086093	-0.852238410596026	0.0203973509933773	0.157615894039735	0.365298013245032			
32	740	-0.216158940397351	0.130754966887417	-0.951523178807947	0.0333774834437086	-0.144635761589404	-0.624900662251656				0.960953642384106	0.0797880794701987	0.285139072847682	0.993907284768212	-1.93218543046358	0.81403973509934				-0.250172185430464	-0.0172715231788079	-0.88794701986755	1.12741721854305	0.146490066225167	-0.48026490066225				0.192529801324503	-0.000529801324503289	-0.949721854304636	1.08291390728477	1.3035761589404	0.504370860927152				0.964026490066225	0.0514966887417219	0.149933774834437	1.9117880794702	-0.228079470198675	-0.617483443708608				0.239788079470199	-0.366834437086093	-0.852238410596026	0.860397350993377	-0.122384105960265	0.365298013245032			
33	760	-0.232158940397351	0.130754966887417	-0.951523178807947	0.313377483443709	0.135364238410596	-0.904900662251656				0.960953642384106	0.0797880794701987	0.269139072847682	0.713907284768212	-1.37218543046358	1.09403973509934				-0.250172185430464	-0.0172715231788079	-0.88794701986755	-0.272582781456954	0.426490066225167	-0.76026490066225				0.176529801324503	-0.000529801324503289	-0.949721854304636	1.08291390728477	0.4635761589404	1.62437086092715				0.948026490066225	0.0514966887417219	0.149933774834437	0.791788079470198	0.0519205298013249	0.222516556291392				0.239788079470199	-0.366834437086093	-0.852238410596026	0.580397350993377	0.157615894039735	0.365298013245032			
34	780	-0.216158940397351	0.114754966887417	-0.951523178807947	-0.246622516556291	0.695364238410596	-0.624900662251656				0.960953642384106	0.0797880794701987	0.269139072847682	0.153907284768212	-0.252185430463576	1.09403973509934				-0.250172185430464	-0.00127152317880793	-0.88794701986755	-0.272582781456954	-0.413509933774833	-0.48026490066225				0.176529801324503	-0.000529801324503289	-0.949721854304636	0.242913907284768	0.4635761589404	1.34437086092715				0.948026490066225	0.0514966887417219	0.149933774834437	-0.608211920529802	0.0519205298013249	0.782516556291392				0.239788079470199	-0.366834437086093	-0.852238410596026	0.580397350993377	-0.402384105960265	-0.474701986754968			
35	800	-0.216158940397351	0.130754966887417	-0.935523178807947	0.0333774834437086	0.135364238410596	-0.624900662251656				0.960953642384106	0.0797880794701987	0.285139072847682	-0.686092715231788	-0.812185430463576	-0.30596026490066				-0.250172185430464	-0.0172715231788079	-0.88794701986755	-0.272582781456954	-0.133509933774833	-0.20026490066225				0.192529801324503	-0.000529801324503289	-0.949721854304636	0.242913907284768	1.0235761589404	2.18437086092715				0.964026490066225	0.0514966887417219	0.133933774834437	0.511788079470198	1.73192052980133	-3.69748344370861				0.239788079470199	-0.350834437086093	-0.820238410596026	0.580397350993377	1.27761589403974	0.645298013245032			
36	820	-0.216158940397351	0.146754966887417	-0.935523178807947	0.0333774834437086	0.135364238410596	-0.904900662251656				0.960953642384106	0.0797880794701987	0.285139072847682	0.713907284768212	-2.21218543046358	0.25403973509934				-0.250172185430464	-0.0172715231788079	-0.88794701986755	0.567417218543046	-0.133509933774833	-0.48026490066225				0.208529801324503	-0.000529801324503289	-0.949721854304636	0.802913907284768	0.1835761589404	2.18437086092715				0.964026490066225	0.0514966887417219	0.149933774834437	1.3517880794702	0.891920529801325	-0.0574834437086077				0.239788079470199	-0.366834437086093	-0.836238410596026	1.14039735099338	0.997615894039735	0.365298013245032			
37	840	-0.216158940397351	0.130754966887417	-0.951523178807947	0.0333774834437086	-0.144635761589404	-0.904900662251656				0.960953642384106	0.0797880794701987	0.269139072847682	3.23390728476821	-3.61218543046358	0.53403973509934				-0.266172185430464	-0.0172715231788079	-0.88794701986755	0.567417218543046	0.146490066225167	-0.48026490066225				0.208529801324503	-0.0165298013245033	-0.965721854304636	-0.317086092715232	-0.3764238410596	2.18437086092715				0.948026490066225	0.0514966887417219	0.149933774834437	1.6317880794702	0.0519205298013249	1.90251655629139				0.239788079470199	-0.366834437086093	-0.852238410596026	0.300397350993377	1.55761589403974	-0.194701986754968			
38	860	-0.216158940397351	0.130754966887417	-0.935523178807947	0.313377483443709	0.695364238410596	-0.624900662251656				0.960953642384106	0.0797880794701987	0.269139072847682	2.39390728476821	-2.77218543046358	0.81403973509934				-0.250172185430464	-0.0172715231788079	-0.88794701986755	-0.272582781456954	-0.133509933774833	0.0797350993377501				0.192529801324503	-0.0165298013245033	-0.965721854304636	-2.27708609271523	-2.0564238410596	2.46437086092715				0.980026490066225	0.0354966887417219	0.133933774834437	1.0717880794702	-1.34807947019868	0.782516556291392				0.239788079470199	-0.366834437086093	-0.852238410596026	-0.539602649006623	1.83761589403974	-0.474701986754968			
39	880	-0.216158940397351	0.130754966887417	-0.935523178807947	0.0333774834437086	0.135364238410596	-0.624900662251656				0.944953642384106	0.0797880794701987	0.253139072847682	-0.966092715231788	0.867814569536424	1.65403973509934				-0.250172185430464	-0.0172715231788079	-0.88794701986755	0.847417218543046	0.986490066225167	0.0797350993377501				0.192529801324503	-0.0165298013245033	-0.965721854304636	-2.27708609271523	-1.4964238410596	2.74437086092715				0.964026490066225	0.0514966887417219	0.149933774834437	-0.888211920529802	0.891920529801325	0.222516556291392				0.223788079470199	-0.366834437086093	-0.852238410596026	-0.819602649006623	1.83761589403974	0.365298013245032			
40	900	-0.200158940397351	0.130754966887417	-0.935523178807947	0.313377483443709	0.695364238410596	-1.46490066225166				0.960953642384106	0.0797880794701987	0.301139072847682	-2.36609271523179	0.587814569536424	1.09403973509934				-0.250172185430464	-0.0172715231788079	-0.88794701986755	0.567417218543046	0.146490066225167	-0.20026490066225				0.192529801324503	-0.000529801324503289	-0.949721854304636	-3.67708609271523	-1.7764238410596	1.06437086092715				0.948026490066225	0.0514966887417219	0.149933774834437	-1.4482119205298	1.73192052980133	-0.337483443708608				0.223788079470199	-0.366834437086093	-0.836238410596026	-1.37960264900662	2.11761589403974	0.0852980132450323			
41	920	-0.200158940397351	0.130754966887417	-0.935523178807947	0.593377483443709	-0.144635761589404	-1.46490066225166				0	0	0	0	0	0				0	0	0	0	0	0				0.176529801324503	0.0154701986754967	-0.965721854304636	-3.11708609271523	-2.3364238410596	1.90437086092715				0.980026490066225	0.0514966887417219	0.133933774834437	-0.328211920529802	2.29192052980133	-0.617483443708608				0.207788079470199	-0.366834437086093	-0.852238410596026	0.0203973509933773	1.83761589403974	-0.194701986754968			
42	940	0	0	0	0	0	0				0	0	0	0	0	0				0	0	0	0	0	0				0.192529801324503	-0.000529801324503289	-0.965721854304636	-1.71708609271523	-1.4964238410596	1.34437086092715				0.964026490066225	0.0354966887417219	0.133933774834437	2.4717880794702	0.331920529801325	-0.0574834437086077				0.223788079470199	-0.366834437086093	-0.868238410596026	-2.21960264900662	1.83761589403974	-0.474701986754968			
43	1040	-0.216158940397351	0.130754966887417	-0.935523178807947	0.0333774834437086	0.415364238410596	-0.904900662251656				0.960953642384106	0.0637880794701987	0.253139072847682	1.83390728476821	-1.09218543046358	1.65403973509934				-0.250172185430464	-0.00127152317880793	-0.88794701986755	0.00741721854304636	-0.413509933774833	-0.48026490066225				0	0	0	0	0	0				0	0	0	0	0	0				0	0	0	0	0	0			
44	1060	-0.216158940397351	0.130754966887417	-0.935523178807947	0.313377483443709	0.975364238410596	-0.624900662251656				0.960953642384106	0.0637880794701987	0.269139072847682	2.39390728476821	0.0278145695364242	1.09403973509934				-0.250172185430464	-0.00127152317880793	-0.88794701986755	0.00741721854304636	0.706490066225167	0.0797350993377501				0	0	0	0	0	0				0	0	0	0	0	0				0	0	0	0	0	0			
45	1080	-0.216158940397351	0.130754966887417	-0.935523178807947	-0.246622516556291	0.415364238410596	-0.904900662251656				0.960953642384106	0.0637880794701987	0.237139072847682	2.67390728476821	0.307814569536424	0.53403973509934				-0.234172185430464	-0.0172715231788079	-0.87194701986755	-0.272582781456954	0.426490066225167	-0.20026490066225				0.208529801324503	-0.000529801324503289	-0.949721854304636	0.522913907284768	-0.3764238410596	-2.29562913907285				0.964026490066225	0.0514966887417219	0.149933774834437	2.4717880794702	0.891920529801325	-0.897483443708608				0.223788079470199	-0.366834437086093	-0.836238410596026	0.0203973509933773	0.717615894039735	-1.87470198675497			
46	1100	-0.216158940397351	0.130754966887417	-0.935523178807947	-0.526622516556291	-0.424635761589404	-1.18490066225166				0.960953642384106	0.0637880794701987	0.253139072847682	0.993907284768212	1.98781456953642	0.25403973509934				-0.250172185430464	-0.0332715231788079	-0.88794701986755	0.287417218543046	-0.413509933774833	-0.76026490066225				0.208529801324503	-0.000529801324503289	-0.965721854304636	-1.15708609271523	-0.6564238410596	-1.45562913907285				0.964026490066225	0.0354966887417219	0.149933774834437	2.4717880794702	-1.06807947019868	-0.337483443708608				0.239788079470199	-0.350834437086093	-0.836238410596026	-1.09960264900662	1.27761589403974	-1.59470198675497			
47	1120	-0.216158940397351	0.130754966887417	-0.951523178807947	0.0333774834437086	-0.144635761589404	-1.18490066225166				0.976953642384106	0.0637880794701987	0.269139072847682	0.433907284768212	3.66781456953642	0.53403973509934				-0.250172185430464	-0.0172715231788079	-0.88794701986755	0.847417218543046	-0.133509933774833	-0.48026490066225				0.192529801324503	-0.000529801324503289	-0.949721854304636	-2.55708609271523	-1.2164238410596	-1.45562913907285				0.948026490066225	0.0514966887417219	0.165933774834437	1.9117880794702	0.331920529801325	-1.17748344370861				0.239788079470199	-0.366834437086093	-0.852238410596026	0.300397350993377	0.437615894039735	-1.59470198675497			
48	1140	-0.232158940397351	0.130754966887417	-0.951523178807947	-1.08662251655629	-0.144635761589404	-0.344900662251656				0.960953642384106	0.0797880794701987	0.285139072847682	1.27390728476821	1.98781456953642	0.25403973509934				-0.250172185430464	-0.0172715231788079	-0.90394701986755	-0.552582781456954	-0.413509933774833	0.35973509933775				0.176529801324503	0.0154701986754967	-0.949721854304636	-1.71708609271523	-0.9364238410596	-1.17562913907285				0.964026490066225	0.0514966887417219	0.165933774834437	2.4717880794702	1.17192052980133	0.222516556291392				0.239788079470199	-0.366834437086093	-0.852238410596026	0.580397350993377	-0.962384105960265	-2.43470198675497			
49	1160	-0.216158940397351	0.146754966887417	-0.919523178807947	0.0333774834437086	0.415364238410596	-0.624900662251656				0.976953642384106	0.0637880794701987	0.285139072847682	0.993907284768212	0.0278145695364242	-0.30596026490066				-0.250172185430464	-0.0172715231788079	-0.87194701986755	0.567417218543046	0.706490066225167	0.35973509933775				0.192529801324503	0.0154701986754967	-0.933721854304636	-0.0370860927152318	-0.3764238410596	-1.17562913907285				0.964026490066225	0.0514966887417219	0.149933774834437	2.4717880794702	1.73192052980133	-0.897483443708608				0.239788079470199	-0.366834437086093	-0.868238410596026	0.860397350993377	-0.962384105960265	-1.59470198675497			
50	1180	-0.216158940397351	0.130754966887417	-0.935523178807947	0.0333774834437086	0.135364238410596	-0.624900662251656				0.976953642384106	0.0797880794701987	0.269139072847682	1.83390728476821	-0.532185430463576	-0.30596026490066				-0.266172185430464	-0.0172715231788079	-0.88794701986755	-0.272582781456954	0.146490066225167	0.63973509933775				0.192529801324503	0.0154701986754967	-0.949721854304636	1.08291390728477	-0.0964238410596001	-1.73562913907285				0.964026490066225	0.0514966887417219	0.149933774834437	0.791788079470198	0.611920529801325	-0.617483443708608				0.255788079470199	-0.366834437086093	-0.868238410596026	-0.539602649006623	-0.122384105960265	-1.87470198675497			
51	1200	-0.216158940397351	0.130754966887417	-0.935523178807947	-0.526622516556291	0.135364238410596	-0.904900662251656				0.960953642384106	0.0797880794701987	0.269139072847682	0.993907284768212	-1.09218543046358	-0.30596026490066				-0.250172185430464	-0.0172715231788079	-0.87194701986755	-0.272582781456954	0.986490066225167	0.35973509933775				0.192529801324503	0.0154701986754967	-0.965721854304636	0.242913907284768	0.7435761589404	-1.17562913907285				0.948026490066225	0.0354966887417219	0.149933774834437	0.511788079470198	0.331920529801325	-1.45748344370861				0.239788079470199	-0.350834437086093	-0.852238410596026	0.860397350993377	0.437615894039735	-2.43470198675497			
52	1220	-0.216158940397351	0.114754966887417	-0.935523178807947	-0.526622516556291	0.695364238410596	-1.46490066225166				0.960953642384106	0.0797880794701987	0.269139072847682	0.993907284768212	-0.532185430463576	-0.0259602649006601				-0.250172185430464	-0.00127152317880793	-0.88794701986755	-0.272582781456954	-0.133509933774833	-0.20026490066225				0.192529801324503	0.0154701986754967	-0.949721854304636	0.522913907284768	1.0235761589404	-0.895629139072848				0.964026490066225	0.0514966887417219	0.149933774834437	1.3517880794702	0.611920529801325	-0.617483443708608				0.239788079470199	-0.366834437086093	-0.820238410596026	1.42039735099338	-0.122384105960265	-2.15470198675497			
53	1240	-0.216158940397351	0.130754966887417	-0.935523178807947	0.0333774834437086	1.2553642384106	-1.46490066225166				0.976953642384106	0.0797880794701987	0.269139072847682	2.39390728476821	-0.532185430463576	-0.30596026490066				-0.250172185430464	-0.0172715231788079	-0.88794701986755	0.00741721854304636	-0.133509933774833	-1.04026490066225				0.192529801324503	0.0154701986754967	-0.949721854304636	0.242913907284768	1.8635761589404	-2.01562913907285				0.964026490066225	0.0514966887417219	0.149933774834437	-0.0482119205298018	-0.228079470198675	-0.617483443708608				0.239788079470199	-0.366834437086093	-0.852238410596026	1.70039735099338	-0.402384105960265	-1.59470198675497			
54	1260	-0.216158940397351	0.130754966887417	-0.935523178807947	-0.246622516556291	0.135364238410596	-1.46490066225166				0.960953642384106	0.0957880794701987	0.269139072847682	2.39390728476821	0.0278145695364242	0.81403973509934				-0.250172185430464	-0.00127152317880793	-0.87194701986755	0.287417218543046	0.146490066225167	-0.48026490066225				0.192529801324503	0.0154701986754967	-0.949721854304636	1.92291390728477	2.1435761589404	-1.73562913907285				0.948026490066225	0.0514966887417219	0.149933774834437	0.791788079470198	0.0519205298013249	-0.617483443708608				0.239788079470199	-0.366834437086093	-0.836238410596026	0.580397350993377	0.437615894039735	-1.03470198675497			
55	1280	-0.216158940397351	0.130754966887417	-0.935523178807947	0.0333774834437086	0.695364238410596	-1.74490066225166				0.960953642384106	0.0797880794701987	0.269139072847682	2.67390728476821	1.14781456953642	0.81403973509934				-0.250172185430464	-0.0172715231788079	-0.88794701986755	0.00741721854304636	0.986490066225167	-0.20026490066225				0.192529801324503	0.0154701986754967	-0.965721854304636	1.92291390728477	2.4235761589404	-2.29562913907285				0.948026490066225	0.0514966887417219	0.149933774834437	1.0717880794702	-0.788079470198675	-0.0574834437086077				0.239788079470199	-0.350834437086093	-0.836238410596026	0.0203973509933773	1.27761589403974	-0.754701986754968			
56	1300	-0.216158940397351	0.130754966887417	-0.935523178807947	0.0333774834437086	0.415364238410596	-1.18490066225166				0.960953642384106	0.0797880794701987	0.269139072847682	2.67390728476821	1.70781456953642	-0.0259602649006601				-0.250172185430464	-0.00127152317880793	-0.88794701986755	1.12741721854305	0.986490066225167	-0.48026490066225				0.192529801324503	-0.000529801324503289	-0.949721854304636	2.20291390728477	2.1435761589404	-2.29562913907285				0.948026490066225	0.0674966887417219	0.149933774834437	1.0717880794702	-0.508079470198675	-0.617483443708608				0.239788079470199	-0.350834437086093	-0.852238410596026	0.860397350993377	1.27761589403974	-0.754701986754968			
57	1320	-0.216158940397351	0.130754966887417	-0.935523178807947	-0.526622516556291	-0.144635761589404	-0.904900662251656				0.960953642384106	0.0797880794701987	0.253139072847682	2.11390728476821	1.70781456953642	0.53403973509934				-0.250172185430464	-0.0172715231788079	-0.90394701986755	1.12741721854305	-0.973509933774833	-0.48026490066225				0.192529801324503	0.0154701986754967	-0.949721854304636	1.64291390728477	2.4235761589404	-2.01562913907285				0.948026490066225	0.0674966887417219	0.149933774834437	1.3517880794702	0.0519205298013249	0.222516556291392				0.239788079470199	-0.350834437086093	-0.836238410596026	1.42039735099338	0.157615894039735	-1.87470198675497			
58	1340	-0.216158940397351	0.130754966887417	-0.935523178807947	0.313377483443709	0.135364238410596	-1.46490066225166				0.944953642384106	0.0797880794701987	0.253139072847682	1.83390728476821	2.54781456953642	1.65403973509934				-0.250172185430464	-0.0172715231788079	-0.87194701986755	-0.832582781456954	-0.133509933774833	-0.76026490066225				0.192529801324503	0.0154701986754967	-0.949721854304636	1.64291390728477	2.4235761589404	-2.29562913907285				0.948026490066225	0.0674966887417219	0.149933774834437	1.6317880794702	-0.228079470198675	-0.337483443708608				0.239788079470199	-0.366834437086093	-0.852238410596026	1.42039735099338	0.717615894039735	-0.754701986754968			
59	1360	-0.216158940397351	0.146754966887417	-0.935523178807947	0.0333774834437086	0.135364238410596	-0.624900662251656				0.960953642384106	0.0957880794701987	0.269139072847682	1.27390728476821	4.22781456953642	0.81403973509934				-0.250172185430464	-0.0172715231788079	-0.88794701986755	0.00741721854304636	0.146490066225167	-0.48026490066225				0.192529801324503	-0.000529801324503289	-0.965721854304636	1.08291390728477	1.0235761589404	-2.57562913907285				0.964026490066225	0.0514966887417219	0.149933774834437	1.0717880794702	-0.228079470198675	-0.337483443708608				0.239788079470199	-0.366834437086093	-0.852238410596026	-1.37960264900662	0.997615894039735	0.365298013245032			
60	1380	-0.216158940397351	0.130754966887417	-0.935523178807947	0.593377483443709	0.135364238410596	-1.18490066225166				0.976953642384106	0.0637880794701987	0.285139072847682	2.11390728476821	3.10781456953642	1.09403973509934				-0.266172185430464	-0.00127152317880793	-0.88794701986755	0.287417218543046	-0.133509933774833	-0.76026490066225				0.192529801324503	-0.000529801324503289	-0.965721854304636	1.92291390728477	0.7435761589404	-1.17562913907285				0.964026490066225	0.0514966887417219	0.149933774834437	1.3517880794702	-0.788079470198675	0.502516556291392				0.239788079470199	-0.366834437086093	-0.884238410596026	0.580397350993377	2.11761589403974	1.48529801324503			
61	1400	-0.216158940397351	0.146754966887417	-0.935523178807947	0.0333774834437086	-0.144635761589404	-1.74490066225166				0.960953642384106	0.0637880794701987	0.285139072847682	1.83390728476821	3.10781456953642	0.81403973509934				-0.250172185430464	-0.00127152317880793	-0.88794701986755	0.287417218543046	-1.25350993377483	-1.60026490066225				0.192529801324503	0.0154701986754967	-0.965721854304636	1.36291390728477	-0.0964238410596001	-0.615629139072848				0.948026490066225	0.0674966887417219	0.165933774834437	2.4717880794702	3.69192052980133	-0.337483443708608				0.239788079470199	-0.382834437086093	-0.852238410596026	3.10039735099338	1.55761589403974	3.44529801324503			
62	1420	-0.216158940397351	0.146754966887417	-0.935523178807947	0.593377483443709	-0.704635761589404	-1.46490066225166				0.944953642384106	0.0957880794701987	0.285139072847682	2.95390728476821	5.34781456953642	1.65403973509934				-0.250172185430464	-0.0172715231788079	-0.90394701986755	1.40741721854305	-0.133509933774833	-1.60026490066225				0.192529801324503	0.0154701986754967	-0.965721854304636	-0.0370860927152318	-0.6564238410596	-0.895629139072848				0.964026490066225	0.0674966887417219	0.149933774834437	-0.608211920529802	0.611920529801325	-0.0574834437086077				0.255788079470199	-0.366834437086093	-0.852238410596026	2.82039735099338	0.717615894039735	4.28529801324503			
63	1440	-0.200158940397351	0.130754966887417	-0.935523178807947	1.43337748344371	-0.424635761589404	-1.46490066225166				0.960953642384106	0.0797880794701987	0.253139072847682	-0.126092715231788	7.86781456953642	1.37403973509934				-0.234172185430464	-0.00127152317880793	-0.88794701986755	1.68741721854305	0.146490066225167	-2.44026490066225				0.192529801324503	-0.000529801324503289	-0.965721854304636	1.64291390728477	-2.6164238410596	-1.17562913907285				0.964026490066225	0.0514966887417219	0.149933774834437	-2.2882119205298	1.45192052980132	-0.337483443708608				0.239788079470199	-0.366834437086093	-0.852238410596026	1.42039735099338	-2.08238410596027	6.80529801324503			
64	1460	-0.216158940397351	0.130754966887417	-0.935523178807947	0.313377483443709	-1.5446357615894	-1.46490066225166				0.992953642384106	0.0797880794701987	0.317139072847682	-3.48609271523179	4.50781456953642	1.37403973509934				-0.250172185430464	-0.0172715231788079	-0.87194701986755	0.847417218543046	-0.693509933774834	-1.88026490066225				0.176529801324503	-0.000529801324503289	-0.981721854304636	-1.71708609271523	-4.5764238410596	0.224370860927152				0.932026490066225	0.0674966887417219	0.133933774834437	-2.8482119205298	3.41192052980132	-1.73748344370861				0.223788079470199	-0.382834437086093	-0.868238410596026	-0.819602649006623	-0.962384105960265	7.64529801324503			
65	1480	-0.216158940397351	0.130754966887417	-0.951523178807947	0.873377483443709	-0.704635761589404	-0.624900662251656				0.960953642384106	0.0637880794701987	0.285139072847682	-2.36609271523179	-0.252185430463576	1.65403973509934				-0.250172185430464	-0.00127152317880793	-0.90394701986755	1.12741721854305	-1.25350993377483	-2.44026490066225				0.176529801324503	-0.000529801324503289	-0.981721854304636	-1.99708609271523	-4.2964238410596	1.34437086092715				0.948026490066225	0.0674966887417219	0.133933774834437	-1.1682119205298	2.29192052980133	-0.897483443708608				0.207788079470199	-0.398834437086093	-0.868238410596026	-1.65960264900662	-3.20238410596026	7.92529801324503			
66	1500	-0.216158940397351	0.114754966887417	-0.935523178807947	1.99337748344371	-0.424635761589404	-0.624900662251656				0.944953642384106	0.0797880794701987	0.269139072847682	-3.20609271523179	6.18781456953642	1.09403973509934				-0.250172185430464	-0.0172715231788079	-0.88794701986755	1.68741721854305	-0.413509933774833	-3.00026490066225				0.176529801324503	-0.000529801324503289	-0.965721854304636	-0.877086092715232	-3.4564238410596	-0.0556291390728476				0.964026490066225	0.0514966887417219	0.133933774834437	-2.2882119205298	3.13192052980133	-0.337483443708608				0.223788079470199	-0.382834437086093	-0.868238410596026	-10.0596026490066	2.95761589403974	9.32529801324503			
67	1520	-0.216158940397351	0.114754966887417	-0.919523178807947	0.0333774834437086	-1.2646357615894	-1.18490066225166				0.960953642384106	0.0957880794701987	0.269139072847682	-2.92609271523179	9.54781456953642	1.37403973509934				-0.250172185430464	-0.0332715231788079	-0.87194701986755	1.68741721854305	-0.693509933774834	-4.40026490066225				0.144529801324503	-0.000529801324503289	-0.965721854304636	1.08291390728477	-4.5764238410596	-1.45562913907285				0.964026490066225	0.0514966887417219	0.117933774834437	-3.4082119205298	4.53192052980133	-0.337483443708608				0.223788079470199	-0.334834437086093	-0.900238410596026	-16.2196026490066	1.27761589403974	9.32529801324503			
68	1540	-0.216158940397351	0.114754966887417	-0.951523178807947	0.593377483443709	-1.2646357615894	0.215099337748344				0.976953642384106	0.0797880794701987	0.253139072847682	-3.20609271523179	8.42781456953642	3.61403973509934				-0.250172185430464	-0.0172715231788079	-0.88794701986755	2.24741721854305	-0.133509933774833	-5.52026490066225				0.128529801324503	0.0154701986754967	-0.981721854304636	5.00291390728477	-5.1364238410596	-3.69562913907285				0.948026490066225	0.0514966887417219	0.117933774834437	-4.5282119205298	5.65192052980133	0.782516556291392				0.207788079470199	-0.382834437086093	-0.884238410596026	-13.6996026490066	-6.00238410596027	11.285298013245			
69	1560	-0.200158940397351	0.114754966887417	-0.951523178807947	-0.246622516556291	-0.424635761589404	1.05509933774834				0.976953642384106	0.111788079470199	0.237139072847682	-2.92609271523179	7.86781456953642	3.05403973509934				-0.234172185430464	-0.0332715231788079	-0.88794701986755	3.92741721854305	0.706490066225167	-7.20026490066225				0.128529801324503	-0.000529801324503289	-0.997721854304636	5.56291390728477	-7.6564238410596	-8.17562913907285				0.964026490066225	0.0354966887417219	0.101933774834437	-4.2482119205298	6.21192052980133	0.502516556291392				0.159788079470199	-0.382834437086093	-0.868238410596026	-27.1396026490066	-13.2823841059603	15.765298013245			
70	1580	0	0	0	0	0	0				0.944953642384106	0.0637880794701987	0.237139072847682	-5.44609271523179	5.90781456953642	4.45403973509934				-0.250172185430464	-0.0332715231788079	-0.85594701986755	3.64741721854305	-1.81350993377483	-7.48026490066225				0.0965298013245033	-0.0165298013245033	-1.01372185430464	-3.67708609271523	-9.3364238410596	-13.4956291390728				0.964026490066225	0.0354966887417219	0.0699337748344371	-7.0482119205298	7.89192052980133	-0.0574834437086077				0.159788079470199	-0.366834437086093	-0.884238410596026	-35.5396026490066	-10.7623841059603	22.485298013245			
71	1600	-0.216158940397351	0.130754966887417	-0.951523178807947	-1.36662251655629	-0.144635761589404	1.61509933774834				0.960953642384106	0.0797880794701987	0.205139072847682	-2.08609271523179	10.6678145695364	6.41403973509934				-0.234172185430464	-0.0492715231788079	-0.85594701986755	0.847417218543046	-2.09350993377483	-5.52026490066225				0.0645298013245033	-0.0165298013245033	-0.981721854304636	-5.91708609271523	-9.8964238410596	-16.0156291390729				0.964026490066225	0.0514966887417219	0.0699337748344371	-5.6482119205298	10.4119205298013	-0.617483443708608				0.143788079470199	-0.302834437086093	-0.948238410596026	-36.6596026490066	-7.68238410596027	29.205298013245			
72	1620	-0.200158940397351	0.130754966887417	-0.967523178807947	-2.48662251655629	-0.144635761589404	2.45509933774835				0.976953642384106	0.0957880794701987	0.237139072847682	-0.126092715231788	16.5478145695364	7.81403973509934				-0.250172185430464	-0.0812715231788079	-0.88794701986755	1.68741721854305	-1.53350993377483	-3.00026490066225				0.0645298013245033	-0.0325298013245033	-0.997721854304636	-6.75708609271523	-11.2964238410596	-16.0156291390729				0.964026490066225	0.0514966887417219	0.0539337748344371	-4.5282119205298	12.6519205298013	-0.0574834437086077				0.111788079470199	-0.254834437086093	-0.964238410596026	-18.1796026490066	-17.4823841059603	31.445298013245			
73	1640	-0.184158940397351	0.130754966887417	-0.935523178807947	-1.92662251655629	0.975364238410596	4.69509933774834				0.976953642384106	0.143788079470199	0.237139072847682	-1.52609271523179	15.9878145695364	9.21403973509934				-0.234172185430464	-0.0652715231788079	-0.88794701986755	0.00741721854304636	-1.53350993377483	-1.88026490066225				0.0805298013245033	-0.0805298013245033	-0.981721854304636	-2.55708609271523	-9.8964238410596	-16.2956291390729				0.980026490066225	0.0194966887417219	0.0219337748344371	-2.0082119205298	16.2919205298013	-0.0574834437086077				0.0797880794701987	-0.270834437086093	-0.932238410596026	-1.09960264900662	-23.9223841059603	35.925298013245			
74	1660	-0.216158940397351	0.130754966887417	-0.903523178807947	-5.56662251655629	-1.5446357615894	5.25509933774834				0.976953642384106	0.0957880794701987	0.221139072847682	0.713907284768212	21.8678145695364	11.4540397350993				-0.234172185430464	-0.0492715231788079	-0.87194701986755	-0.552582781456954	-1.25350993377483	-1.04026490066225				0.0325298013245033	-0.0805298013245033	-1.01372185430464	-5.63708609271523	-13.5364238410596	-16.5756291390728				0.996026490066225	0.0354966887417219	0.00593377483443711	-3.4082119205298	18.2519205298013	0.502516556291392				0.0477880794701987	-0.318834437086093	-0.980238410596026	15.4203973509934	-19.7223841059603	44.325298013245			
75	1680	-0.248158940397351	0.146754966887417	-0.919523178807947	-7.80662251655629	-4.0646357615894	4.97509933774835				0.992953642384106	0.0477880794701987	0.205139072847682	5.75390728476821	23.2678145695364	13.4140397350993				-0.250172185430464	-0.0492715231788079	-0.87194701986755	-4.75258278145695	-0.693509933774834	0.91973509933775				-0.0154701986754967	-0.0965298013245033	-1.04572185430464	-3.95708609271523	-18.2964238410596	-14.6156291390728				1.01202649006623	0.0514966887417219	-0.0100662251655629	-5.9282119205298	19.9319205298013	0.222516556291392				0.0317880794701987	-0.302834437086093	-0.932238410596026	22.1403973509934	-14.1223841059603	50.205298013245			
76	1700	-0.280158940397351	0.146754966887417	-0.967523178807947	-4.16662251655629	-3.7846357615894	4.41509933774834				1.08895364238411	0.0957880794701987	0.125139072847682	4.63390728476821	21.0278145695364	15.0940397350993				-0.282172185430464	-0.00127152317880793	-0.90394701986755	-3.91258278145695	0.146490066225167	3.71973509933775				-0.0154701986754967	-0.112529801324503	-1.07772185430464	-8.43708609271523	-20.5364238410596	-12.6556291390728				0.980026490066225	0.0194966887417219	0.00593377483443711	-1.4482119205298	21.3319205298013	0.502516556291392				0.0317880794701987	-0.270834437086093	-0.964238410596026	19.6203973509934	-12.1623841059603	50.485298013245			
77	1720	-0.280158940397351	0.130754966887417	-0.967523178807947	-4.72662251655629	0.415364238410596	4.97509933774835				1.16895364238411	0.287788079470199	0.109139072847682	6.87390728476821	4.22781456953642	13.9740397350993				-0.330172185430464	-0.0332715231788079	-0.90394701986755	3.08741721854305	2.94649006622517	5.39973509933775				-0.0154701986754967	-0.128529801324503	-1.09372185430464	-9.27708609271523	-24.4564238410596	-8.73562913907285				1.01202649006623	0.00349668874172187	0.0379337748344371	-3.4082119205298	24.4119205298013	1.62251655629139				0.0157880794701987	-0.270834437086093	-0.980238410596026	24.6603973509934	-15.2423841059603	51.325298013245			
78	1740	-0.280158940397351	0.114754966887417	-0.935523178807947	-10.3266225165563	1.8153642384106	6.09509933774834				1.02495364238411	0.0637880794701987	0.109139072847682	0.433907284768212	-30.7721854304636	13.1340397350993				-0.314172185430464	-0.00127152317880793	-0.85594701986755	1.40741721854305	1.54649006622517	5.11973509933775				-0.0154701986754967	-0.128529801324503	-1.12572185430464	-14.8770860927152	-29.7764238410596	-2.01562913907285				1.09202649006623	0.0194966887417219	0.0379337748344371	-9.2882119205298	26.0919205298013	1.06251655629139				-0.0162119205298013	-0.334834437086093	-0.980238410596026	29.9803973509934	-10.7623841059603	52.445298013245			
79	1760	-0.328158940397351	0.114754966887417	-0.935523178807947	-15.0866225165563	-1.8246357615894	7.21509933774835				1.12095364238411	0.111788079470199	-0.00286092715231785	-12.4460927152318	-14.2521854304636	8.93403973509934				-0.298172185430464	0.0787284768211921	-0.87194701986755	-1.11258278145695	1.54649006622517	6.79973509933775				-0.0154701986754967	-0.0805298013245033	-1.18972185430464	-19.0770860927152	-36.7764238410596	2.18437086092715				1.14002649006623	0.0674966887417219	-0.0100662251655629	-15.1682119205298	20.7719205298013	-1.45748344370861				-0.0162119205298013	-0.318834437086093	-0.964238410596026	20.4603973509934	-7.68238410596027	52.725298013245			
80	1780	-0.456158940397351	0.0987549668874172	-0.935523178807947	-20.4066225165563	3.2153642384106	8.89509933774834				1.18495364238411	0.143788079470199	0.0771390728476822	-45.4860927152318	26.0678145695364	18.1740397350993				-0.346172185430464	0.0307284768211921	-0.90394701986755	8.68741721854305	4.90649006622517	10.7197350993378				-0.0154701986754967	-0.0645298013245033	-1.23772185430464	-20.7570860927152	-45.4564238410596	-0.615629139072848				1.17202649006623	0.0354966887417219	-0.0260662251655629	-7.8882119205298	13.7719205298013	-4.81748344370861				-0.0482119205298013	-0.302834437086093	-0.996238410596026	10.1003973509934	-6.00238410596027	55.805298013245			
81	1800	-0.472158940397351	0.0667549668874172	-0.887523178807947	-27.1266225165563	1.8153642384106	10.8550993377483				0.928953642384106	0.207788079470199	0.285139072847682	-67.8860927152318	33.6278145695364	25.4540397350993				-0.426172185430464	-0.0812715231788079	-0.93594701986755	12.887417218543	5.46649006622517	11.2797350993378				-0.0154701986754967	-0.0485298013245033	-1.22172185430464	-29.4370860927152	-57.4964238410596	-3.69562913907285				1.17202649006623	0.0834966887417219	-0.0740662251655629	-9.5682119205298	3.41192052980132	-5.93748344370861				-0.128211920529801	-0.302834437086093	-0.948238410596026	20.1803973509934	4.07761589403974	57.765298013245			
82	1820	-0.280158940397351	0.0347549668874172	-0.919523178807947	-55.9666225165563	16.3753642384106	8.05509933774835				0.784953642384106	-0.0642119205298013	0.125139072847682	-27.8460927152318	15.9878145695364	50.6540397350993				-0.426172185430464	-0.0492715231788079	-0.93594701986755	9.80741721854305	7.98649006622517	4.83973509933775				-0.0794701986754967	-0.0645298013245033	-1.17372185430464	-40.0770860927152	-66.4564238410596	-9.01562913907285				1.04402649006623	0.147496688741722	-0.0420662251655629	-9.0082119205298	0.331920529801325	-7.89748344370861				-0.144211920529801	-0.254834437086093	-0.980238410596026	15.1403973509934	8.83761589403974	65.045298013245			
83	1840	-0.328158940397351	0.0667549668874172	-1.09552317880795	-18.1666225165563	8.2553642384106	2.73509933774834				1.04095364238411	-0.144211920529801	0.205139072847682	21.7139072847682	77.3078145695364	61.2940397350993				-0.346172185430464	0.0467284768211921	-0.88794701986755	7.28741721854305	11.9064900662252	4.83973509933775				-0.175470198675497	-0.176529801324503	-1.07772185430464	-59.3970860927152	-74.8564238410596	-13.7756291390728				0.932026490066225	0.0834966887417219	-0.0420662251655629	0.511788079470198	10.1319205298013	-5.37748344370861				-0.192211920529801	-0.206834437086093	-0.964238410596026	20.1803973509934	7.43761589403974	66.725298013245			
84	1860	-0.408158940397351	0.194754966887417	-0.951523178807947	-32.1666225165563	20.2953642384106	10.2950993377483				1.07295364238411	0.0317880794701987	0.493139072847682	-13.5660927152318	82.6278145695364	43.6540397350993				-0.442172185430464	-0.00127152317880793	-0.90394701986755	13.167417218543	12.1864900662252	6.79973509933775				-0.239470198675497	-0.0965298013245033	-0.981721854304636	-90.1970860927152	-81.5764238410596	-20.7756291390729				0.932026490066225	-0.0925033112582781	-0.0580662251655629	10.0317880794702	22.1719205298013	-4.53748344370861				-0.256211920529801	-0.238834437086093	-0.932238410596026	23.5403973509934	11.0776158940397	65.605298013245			
85	1880	-0.328158940397351	0.210754966887417	-0.983523178807947	-46.1666225165563	18.0553642384106	13.6550993377483				0.832953642384106	0.0477880794701987	0.189139072847682	-16.9260927152318	57.4278145695364	23.4940397350993				-0.442172185430464	-0.0972715231788079	-1.06394701986755	24.087417218543	16.9464900662252	9.31973509933775				-0.271470198675497	0.0954701986754967	-0.885721854304636	-95.2370860927152	-77.9364238410596	-35.6156291390729				0.916026490066225	-0.108503311258278	-0.0100662251655629	22.0717880794702	24.9719205298013	-5.37748344370861				-0.208211920529801	-0.286834437086093	-0.916238410596027	51.8203973509934	-1.80238410596026	69.525298013245			
86	1900	-0.360158940397351	0.210754966887417	-0.983523178807947	-34.9666225165563	19.1753642384106	17.2950993377483				0.928953642384106	-0.160211920529801	0.0291390728476822	-2.08609271523179	71.4278145695364	20.9740397350993				-0.362172185430464	-0.0492715231788079	-1.04794701986755	25.2074172185431	27.0264900662252	13.7997350993378				-0.303470198675497	0.207470198675497	-0.821721854304636	-61.0770860927152	-64.7764238410596	-46.5356291390729				0.996026490066225	-0.108503311258278	0.101933774834437	8.0717880794702	29.7319205298013	-12.0974834437086				-0.192211920529801	-0.286834437086093	-0.884238410596026	38.1003973509934	9.39761589403974	67.845298013245			
87	1920	-0.376158940397351	0.258754966887417	-0.983523178807947	-43.9266225165563	34.0153642384106	22.0550993377483				0.960953642384106	-0.160211920529801	0.397139072847682	-29.8060927152318	99.1478145695364	16.7740397350993				-0.298172185430464	-0.0492715231788079	-0.90394701986755	8.68741721854305	30.6664900662252	12.6797350993378				-0.287470198675497	0.143470198675497	-0.773721854304636	-20.4770860927152	-49.6564238410596	-45.4156291390729				1.01202649006623	-0.0605033112582781	0.117933774834437	17.0317880794702	23.2919205298013	-14.0574834437086				-0.160211920529801	-0.334834437086093	-0.932238410596026	46.7803973509934	4.91761589403974	61.405298013245			
88	1940	-0.280158940397351	0.178754966887417	-0.951523178807947	-15.6466225165563	32.6153642384106	25.4150993377483				0	0	0	0	0	0				0	0	0	0	0	0				-0.175470198675497	0.0314701986754967	-0.885721854304636	11.7229139072848	-25.0164238410596	-45.4156291390729				0.948026490066225	0.0194966887417219	0.181933774834437	15.9117880794702	25.5319205298013	-16.5774834437086				-0.192211920529801	-0.398834437086093	-0.916238410596027	39.2203973509934	3.23761589403974	58.045298013245			
89	1960	0	0	0	0	0	0				0	0	0	0	0	0				0	0	0	0	0	0				-0.143470198675497	0.0314701986754967	-0.933721854304636	6.40291390728477	-10.7364238410596	-41.2156291390729				0.948026490066225	0.0994966887417219	0.245933774834437	13.6717880794702	31.1319205298013	-14.0574834437086				-0.112211920529801	-0.510834437086093	-0.820238410596026	37.2603973509934	12.7576158940397	56.365298013245			
90	2080	-0.104158940397351	0.386754966887417	-0.999523178807947	0.0333774834437086	86.9353642384106	52.5750993377484				1.16895364238411	-0.416211920529801	1.03713907284768	-9.36609271523179	45.9478145695364	1.65403973509934				-0.0741721854304636	-0.145271523178808	-1.09594701986755	-13.432582781457	80.2264900662252	-11.4002649006623				0	0	0	0	0	0				1.12402649006623	0.275496688741722	0.805933774834437	15.0717880794702	45.4119205298013	-17.9774834437086				0.287788079470199	-0.894834437086093	-0.852238410596026	16.5403973509934	34.3176158940397	-0.754701986754968			
91	2100	0.055841059602649	0.418754966887417	-0.951523178807947	7.31337748344371	97.5753642384106	45.8550993377483				1.08895364238411	0.0157880794701987	1.10113907284768	-12.1660927152318	33.6278145695364	-7.86596026490066				-0.0581721854304636	-0.161271523178808	-1.19194701986755	1.96741721854305	86.6664900662252	-17.8402649006623				0.000529801324503301	0.527470198675497	-1.23772185430464	-5.91708609271523	27.0635761589404	7.22437086092715				1.28402649006623	0.0674966887417219	0.933933774834437	9.1917880794702	49.0519205298013	-19.0974834437086				0.239788079470199	-0.990834437086093	-0.884238410596026	22.4203973509934	52.2376158940397	-18.674701986755			
92	2120	0.263841059602649	0.434754966887417	-1.03152317880795	8.99337748344371	105.415364238411	42.4950993377484				1.10495364238411	-0.0162119205298013	1.19713907284768	3.79390728476821	21.0278145695364	-7.58596026490066				0.0698278145695364	-0.129271523178808	-1.06394701986755	14.287417218543	93.9464900662252	-18.4002649006623				0.128529801324503	0.383470198675497	-1.22172185430464	8.64291390728477	31.5435761589404	16.1843708609272				1.28402649006623	0.147496688741722	0.917933774834437	-9.2882119205298	23.0119205298013	-14.6174834437086				0.271788079470199	-0.974834437086093	-1.04423841059603	14.0203973509934	67.3576158940397	-24.274701986755			
93	2140	0.327841059602649	0.450754966887417	-0.999523178807947	9.83337748344371	111.295364238411	44.7350993377484				1.04095364238411	-0.144211920529801	0.909139072847682	56.9939072847682	4.22781456953642	2.77403973509934				0.0538278145695364	-0.225271523178808	-1.04794701986755	13.447417218543	100.946490066225	-14.2002649006623				0.0965298013245033	0.319470198675497	-1.33372185430464	-9.83708609271523	37.7035761589404	28.2243708609272				1.18802649006623	0.339496688741722	0.677933774834437	-19.0882119205298	15.1719205298013	-14.0574834437086				0.351788079470199	-0.798834437086093	-1.04423841059603	-11.7396026490066	73.7976158940397	-30.714701986755			
94	2160	0.263841059602649	0.322754966887417	-1.03152317880795	18.7933774834437	116.895364238411	42.2150993377483				1.00895364238411	-0.208211920529801	0.813139072847682	71.8339072847682	-17.3321854304636	2.49403973509934				0.101827814569536	-0.321271523178808	-1.03194701986755	18.2074172185431	112.986490066225	-13.9202649006623				-0.0314701986754967	0.415470198675497	-1.28572185430464	-18.2370860927152	51.4235761589404	30.4643708609272				1.15602649006623	0.387496688741722	0.645933774834437	-10.9682119205298	31.6919205298013	-12.3774834437086				0.319788079470199	-0.798834437086093	-0.964238410596026	7.02039735099338	78.8376158940397	-29.314701986755			
95	2180	0.215841059602649	0.290754966887417	-0.999523178807947	12.9133774834437	127.255364238411	39.6950993377484				1.00895364238411	-0.128211920529801	0.861139072847682	18.6339072847682	-18.1721854304636	0.25403973509934				0.181827814569536	-0.257271523178808	-1.07994701986755	10.647417218543	121.666490066225	-16.1602649006623				-0.0154701986754967	0.479470198675497	-1.28572185430464	-1.43708609271523	59.2635761589404	32.1443708609272				1.23602649006623	0.243496688741722	0.661933774834437	0.511788079470198	40.9319205298013	-10.1374834437086				0.319788079470199	-0.846834437086093	-0.996238410596026	23.2603973509934	72.6776158940397	-33.794701986755			
96	2200	0.311841059602649	0.306754966887417	-0.935523178807947	11.5133774834437	136.215364238411	36.3350993377484				1.08895364238411	-0.144211920529801	1.48513907284768	-33.1660927152318	9.54781456953642	2.21403973509934				0.245827814569536	-0.193271523178808	-1.09594701986755	4.76741721854305	129.506490066225	-21.4802649006623				0.176529801324503	0.367470198675497	-1.25372185430464	-1.71708609271523	70.4635761589404	40.5443708609272				1.25202649006623	0.147496688741722	0.837933774834437	13.3917880794702	29.1719205298013	-7.05748344370861				0.383788079470199	-0.910834437086093	-0.996238410596026	18.7803973509934	66.5176158940397	-42.474701986755			
97	2220	0.423841059602649	0.322754966887417	-0.887523178807947	22.7133774834437	144.895364238411	37.7350993377484				1.12095364238411	0.0797880794701987	1.10113907284768	4.35390728476821	-10.0521854304636	-2.54596026490066				0.261827814569536	-0.0172715231788079	-1.01594701986755	-6.71258278145695	135.106490066225	-26.2402649006623				0.144529801324503	0.335470198675497	-1.25372185430464	-1.15708609271523	88.6635761589404	43.0643708609272				1.10802649006623	0.307496688741722	0.917933774834437	-10.1282119205298	2.57192052980133	-10.1374834437086				0.335788079470199	-0.894834437086093	-0.900238410596026	-13.4196026490066	84.9976158940397	-38.834701986755			
98	2240	0.503841059602649	0.258754966887417	-0.855523178807947	26.0733774834437	147.135364238411	41.0950993377484				1.12095364238411	0.0157880794701987	0.749139072847682	77.7139072847682	-61.2921854304636	-6.74596026490066				0.261827814569536	0.0147284768211921	-0.99994701986755	0.00741721854304636	137.066490066225	-28.2002649006623				0.0805298013245033	0.351470198675497	-1.23772185430464	-8.99708609271523	100.70357615894	46.1443708609272				1.17202649006623	0.339496688741722	0.709933774834437	-8.7282119205298	9.01192052980133	-6.49748344370861				0.383788079470199	-0.814834437086093	-0.836238410596026	-29.3796026490066	122.79761589404	-29.874701986755			
99	2260	0.455841059602649	0.194754966887417	-0.807523178807947	20.4733774834437	150.495364238411	42.7750993377484				1.07295364238411	-0.0642119205298013	0.445139072847682	95.9139072847682	-113.372185430464	-12.3459602649007				0.213827814569536	-0.0812715231788079	-0.88794701986755	9.80741721854305	142.666490066225	-28.2002649006623				0.160529801324503	0.351470198675497	-1.14172185430464	-3.95708609271523	109.10357615894	50.9043708609272				1.15602649006623	0.243496688741722	0.581933774834437	-4.2482119205298	13.2119205298013	-5.93748344370861				0.575788079470199	-0.766834437086093	-0.820238410596026	-31.0596026490066	142.67761589404	-24.834701986755			
100	2280	0.407841059602649	0.194754966887417	-0.743523178807947	19.0733774834437	153.855364238411	39.4150993377484				1.00895364238411	-0.160211920529801	0.589139072847682	31.5139072847682	-99.0921854304636	-4.78596026490066				0.261827814569536	-0.177271523178808	-0.80794701986755	-1.39258278145695	148.826490066225	-25.1202649006623				0.416529801324503	0.351470198675497	-1.10972185430464	13.1229139072848	118.90357615894	55.3843708609272				1.14002649006623	0.211496688741722	0.645933774834437	-4.8082119205298	14.6119205298013	-6.21748344370861				0.639788079470199	-0.750834437086093	-0.836238410596026	-1.93960264900662	130.07761589404	-32.394701986755			
101	2300	0.439841059602649	0.258754966887417	-0.663523178807947	20.4733774834437	164.775364238411	34.3750993377484				0.880953642384106	0.0477880794701987	0.813139072847682	-6.56609271523179	-82.0121854304636	-16.8259602649007				0.389827814569536	-0.145271523178808	-0.72794701986755	-11.752582781457	155.546490066225	-24.2802649006623				0.432529801324503	0.351470198675497	-1.09372185430464	26.8429139072848	114.70357615894	56.7843708609272				1.01202649006623	0.227496688741722	0.645933774834437	-14.3282119205298	-6.38807947019868	-4.25748344370861				0.639788079470199	-0.638834437086093	-0.804238410596027	20.7403973509934	114.11761589404	-47.514701986755			
102	2320	0.535841059602649	0.258754966887417	-0.583523178807947	35.3133774834437	170.655364238411	32.9750993377484				0.896953642384106	-0.144211920529801	0.685139072847682	33.7539072847682	-87.0521854304636	-22.1459602649007				0.437827814569536	-0.0492715231788079	-0.66394701986755	-18.192582781457	158.906490066225	-25.4002649006623				0.400529801324503	0.287470198675497	-0.949721854304636	36.0829139072848	116.94357615894	48.9443708609272				0.868026490066225	0.211496688741722	0.581933774834437	-5.6482119205298	-16.1880794701987	3.02251655629139				0.559788079470199	-0.638834437086093	-0.756238410596026	19.6203973509934	104.31761589404	-43.874701986755			
103	2340	0.583841059602649	0.194754966887417	-0.583523178807947	50.4333774834437	175.695364238411	25.6950993377483				0.880953642384106	-0.128211920529801	0.333139072847682	46.3539072847682	-100.492185430464	-22.7059602649007				0.453827814569536	0.0627284768211921	-0.56794701986755	-13.152582781457	160.306490066225	-24.2802649006623				0.416529801324503	0.223470198675497	-0.789721854304636	39.1629139072848	106.86357615894	39.1443708609272				0.852026490066225	0.147496688741722	0.517933774834437	-16.0082119205298	-21.5080794701987	3.86251655629139				0.511788079470199	-0.686834437086093	-0.676238410596026	2.26039735099338	101.79761589404	-20.914701986755			
104	2360	0.567841059602649	0.130754966887417	-0.519523178807947	43.4333774834437	175.695364238411	23.7350993377483				0.832953642384106	-0.0322119205298013	0.157139072847682	40.4739072847682	-101.612185430464	-24.3859602649007				0.485827814569536	0.110728476821192	-0.61594701986755	-7.55258278145695	155.826490066225	-20.6402649006623				0.432529801324503	0.191470198675497	-0.741721854304636	34.6829139072848	99.5835761589404	41.1043708609272				0.852026490066225	0.00349668874172187	0.549933774834437	-15.4482119205298	-35.2280794701987	7.50251655629139				0.543788079470199	-0.702834437086093	-0.596238410596026	-22.0996026490066	95.3576158940397	-6.35470198675497			
105	2380	0.519841059602649	0.0827549668874172	-0.487523178807947	26.6333774834437	188.855364238411	23.7350993377483				0.688953642384106	0.0157880794701987	0.317139072847682	20.8739072847682	-95.7321854304636	-17.6659602649007				0.517827814569536	0.0467284768211921	-0.55194701986755	15.967417218543	153.866490066225	-16.1602649006623				0.464529801324503	0.191470198675497	-0.661721854304636	33.8429139072848	79.7035761589404	38.3043708609272				0.772026490066225	0.0674966887417219	0.485933774834437	-37.0082119205298	-59.5880794701987	12.2625165562914				0.575788079470199	-0.622834437086093	-0.612238410596026	-32.1796026490066	89.4776158940397	-10.274701986755			
106	2400	0.599841059602649	0.114754966887417	-0.391523178807947	31.9533774834437	186.055364238411	22.3350993377483				0.512953642384106	-0.0162119205298013	0.301139072847682	-9.64609271523179	-96.2921854304636	-10.3859602649007				0.549827814569536	-0.0812715231788079	-0.48794701986755	10.367417218543	154.706490066225	-14.4802649006623				0.304529801324503	0.0634701986754967	-0.709721854304636	48.1229139072848	62.3435761589404	34.1043708609272				0.676026490066225	0.163496688741722	0.325933774834437	-38.4082119205298	-70.5080794701987	15.9025165562914				0.543788079470199	-0.446834437086093	-0.548238410596027	-39.7396026490066	81.0776158940397	-15.314701986755			
107	2420	0.663841059602649	0.0827549668874172	-0.391523178807947	25.5133774834437	188.295364238411	18.4150993377483				0.464953642384106	0.0317880794701987	0.205139072847682	-29.2460927152318	-82.8521854304636	-8.98596026490066				0.533827814569536	-0.0972715231788079	-0.42394701986755	-23.792582781457	148.826490066225	-13.3602649006623				0.288529801324503	0.0154701986754967	-0.645721854304636	57.3629139072848	58.7035761589404	39.4243708609272				0.548026490066225	0.0994966887417219	0.261933774834437	-33.9282119205298	-74.7080794701987	15.6225165562914				0.431788079470199	-0.382834437086093	-0.500238410596026	-31.6196026490066	56.7176158940397	-6.63470198675497			
108	2440	0.759841059602649	0.0507549668874172	-0.311523178807947	26.9133774834437	188.855364238411	12.2550993377483				0.640953642384106	0.0637880794701987	0.189139072847682	-27.8460927152318	-80.3321854304636	-6.46596026490066				0.581827814569536	-0.0332715231788079	-0.37594701986755	-35.552582781457	152.186490066225	-11.4002649006623				0.288529801324503	-0.000529801324503289	-0.517721854304636	48.9629139072848	47.5035761589404	46.9843708609272				0.484026490066225	0.0514966887417219	0.261933774834437	-22.4482119205298	-73.8680794701987	13.6625165562914				0.351788079470199	-0.366834437086093	-0.372238410596026	-44.2196026490066	38.5176158940397	14.925298013245			
109	2460	0.823841059602649	0.0827549668874172	-0.343523178807947	9.27337748344371	184.375364238411	10.2950993377483				0.576953642384106	-0.0962119205298013	0.221139072847682	-16.6460927152318	-104.692185430464	-13.7459602649007				0.581827814569536	0.0627284768211921	-0.32794701986755	-45.072582781457	145.186490066225	-7.48026490066225				0.256529801324503	0.0474701986754967	-0.469721854304636	51.4829139072848	25.6635761589404	48.6643708609272				0.468026490066225	0.0514966887417219	0.245933774834437	-29.4482119205298	-77.7880794701987	13.6625165562914				0.335788079470199	-0.318834437086093	-0.292238410596026	-59.6196026490066	26.1976158940397	26.405298013245			
110	2480	0.743841059602649	0.194754966887417	-0.343523178807947	3.67337748344371	172.335364238411	21.4950993377483				0.448953642384106	-0.0962119205298013	0.205139072847682	-11.8860927152318	-124.012185430464	-25.2259602649007				0.629827814569536	0.0947284768211921	-0.31194701986755	-26.032582781457	144.066490066225	-4.40026490066225				0.288529801324503	0.0474701986754967	-0.517721854304636	47.0029139072848	1.5835761589404	46.9843708609272				0.500026490066225	0.0354966887417219	0.261933774834437	-32.8082119205298	-78.9080794701987	15.0625165562914				0.351788079470199	-0.222834437086093	-0.292238410596026	-59.3396026490066	14.1576158940397	15.765298013245			
111	2500	0.679841059602649	0.306754966887417	-0.327523178807947	12.6333774834437	163.095364238411	19.8150993377483				0.480953642384106	0.0317880794701987	0.269139072847682	8.55390728476821	-124.852185430464	-25.5059602649007				0.741827814569536	-0.00127152317880793	-0.39194701986755	-2.51258278145695	130.906490066225	-3.28026490066225				0.256529801324503	-0.0165298013245033	-0.485721854304636	48.1229139072848	-14.3764238410596	46.1443708609272				0.468026490066225	0.00349668874172187	0.213933774834437	-39.8082119205298	-88.9880794701987	14.2225165562914				0.303788079470199	-0.126834437086093	-0.308238410596026	-59.8996026490066	-1.80238410596026	0.365298013245032			
112	2520	0.807841059602649	0.146754966887417	-0.247523178807947	62.7533774834437	156.655364238411	13.9350993377483				0.288953642384106	0.127788079470199	0.109139072847682	22.5539072847682	-56.8121854304636	-2.54596026490066				0.709827814569536	-0.0972715231788079	-0.35994701986755	-13.992582781457	111.306490066225	-3.28026490066225				0.224529801324503	-0.0965298013245033	-0.437721854304636	34.9629139072848	-26.4164238410596	42.7843708609272				0.420026490066225	0.0514966887417219	0.0859337748344371	-38.1282119205298	-101.588079470199	13.3825165562914				0.223788079470199	-0.0948344370860927	-0.308238410596026	-66.3396026490066	1.27761589403974	-7.75470198675497			
113	2540	0.951841059602649	0.114754966887417	-0.311523178807947	69.7533774834437	154.135364238411	18.6950993377483				0.464953642384106	0.127788079470199	0.173139072847682	-0.406092715231788	-73.3321854304636	-25.5059602649007				0.709827814569536	-0.113271523178808	-0.37594701986755	-17.912582781457	103.466490066225	-5.24026490066225				0.144529801324503	-0.0805298013245033	-0.453721854304636	24.6029139072848	-39.8564238410596	38.5843708609272				0.452026490066225	0.0834966887417219	0.00593377483443711	-39.2482119205298	-97.1080794701987	11.4225165562914				0.191788079470199	-0.0468344370860927	-0.372238410596026	-68.2996026490066	4.63761589403974	-11.954701986755			
114	2560	0.791841059602649	0.00275496688741723	-0.055523178807947	29.9933774834437	156.375364238411	33.2550993377483				0.448953642384106	0.0797880794701987	0.141139072847682	-2.64609271523179	-77.5321854304636	-28.8659602649007				0.709827814569536	-0.0812715231788079	-0.34394701986755	-24.072582781457	88.6264900662252	-3.00026490066225				0.0805298013245033	-0.0325298013245033	-0.533721854304636	28.5229139072848	-51.3364238410596	41.6643708609272				0.420026490066225	0.0674966887417219	0.0699337748344371	-31.6882119205298	-83.9480794701987	7.22251655629139				0.191788079470199	0.00116556291390731	-0.436238410596026	-50.6596026490066	-13.2823841059603	-17.834701986755			
115	2580	0.871841059602649	-0.269245033112583	-0.071523178807947	26.6333774834437	138.175364238411	37.1750993377484				0.448953642384106	0.111788079470199	0.253139072847682	-33.4460927152318	-61.8521854304636	-19.9059602649007				0.789827814569536	-0.0812715231788079	-0.32794701986755	-30.792582781457	72.3864900662252	0.0797350993377501				0.0645298013245033	-0.0485298013245033	-0.613721854304636	50.9229139072848	-43.2164238410596	48.1043708609272				0.500026490066225	0.0994966887417219	0.133933774834437	-29.7282119205298	-87.8680794701987	2.18251655629139				0.175788079470199	-0.0788344370860927	-0.484238410596026	-41.4196026490066	-29.5223841059603	-21.754701986755			
116	2600	0.871841059602649	-0.285245033112583	0.024476821192053	0.593377483443709	110.455364238411	32.9750993377484				0.608953642384106	0.255788079470199	0.253139072847682	-19.4460927152318	-35.8121854304636	-14.5859602649007				0.901827814569536	-0.0492715231788079	-0.23194701986755	-53.192582781457	63.9864900662252	2.03973509933775				0.0805298013245033	-0.192529801324503	-0.597721854304636	51.7629139072848	-29.2164238410596	46.4243708609272				0.468026490066225	0.0994966887417219	0.00593377483443711	-31.4082119205298	-87.3080794701987	1.06251655629139				0.239788079470199	-0.110834437086093	-0.532238410596027	-75.5796026490066	-20.2823841059603	-22.314701986755			
117	2620	0.951841059602649	0.0987549668874172	0.072476821192053	-50.6466225165563	92.8153642384106	-0.344900662251656				0.832953642384106	0.0797880794701987	0.285139072847682	6.31390728476821	-28.8121854304636	-9.82596026490066				0.997827814569536	-0.0172715231788079	-0.23194701986755	-48.152582781457	55.8664900662252	2.31973509933775				0.144529801324503	-0.224529801324503	-0.661721854304636	31.8829139072848	-32.2964238410596	43.6243708609272				0.452026490066225	0.115496688741722	-0.0420662251655629	-24.9682119205298	-58.4680794701987	-2.29748344370861				0.271788079470199	0.0331655629139073	-0.628238410596026	-82.2996026490066	-30.3623841059603	-18.954701986755			
118	2640	0.999841059602649	0.258754966887417	0.088476821192053	-58.7666225165563	83.2953642384106	-9.58490066225166				0.656953642384106	-0.0962119205298013	0.141139072847682	0.713907284768212	-48.6921854304636	-2.54596026490066				0.981827814569536	-0.0972715231788079	-0.16794701986755	-43.672582781457	34.0264900662252	3.71973509933775				0.144529801324503	-0.112529801324503	-0.773721854304636	27.4029139072848	-33.6964238410596	38.8643708609272				0.644026490066225	0.115496688741722	0.0539337748344371	-16.2882119205298	-28.7880794701987	-7.05748344370861				0.223788079470199	0.0331655629139073	-0.612238410596026	-43.6596026490066	-34.8423841059603	-18.394701986755			
119	2660	0.999841059602649	0.0507549668874172	0.120476821192053	-31.3266225165563	55.8553642384106	10.0150993377483				0.688953642384106	0.0637880794701987	0.205139072847682	-28.6860927152318	1.70781456953642	2.77403973509934				0.837827814569536	-0.145271523178808	-0.10394701986755	-34.712582781457	26.1864900662252	5.95973509933775				0.240529801324503	-0.0965298013245033	-0.789721854304636	19.0029139072848	-37.3364238410596	36.9043708609272				0.820026490066225	0.0514966887417219	0.0699337748344371	-7.8882119205298	-25.9880794701987	-7.61748344370861				0.287788079470199	-0.110834437086093	-0.628238410596026	-38.3396026490066	-17.4823841059603	-29.594701986755			
120	2680	1.04784105960265	-0.0292450331125828	0.136476821192053	-1.36662251655629	40.1753642384106	13.9350993377483				0.848953642384106	0.159788079470199	0.253139072847682	-9.64609271523179	9.82781456953643	-1.14596026490066				0.917827814569536	-0.129271523178808	-0.0719470198675496	-25.192582781457	28.9864900662252	7.07973509933775				0.288529801324503	-0.224529801324503	-0.805721854304636	14.8029139072848	-31.7364238410596	28.7843708609272				0.820026490066225	0.0834966887417219	-0.0260662251655629	-9.5682119205298	-27.9480794701987	-4.53748344370861				0.479788079470199	-0.110834437086093	-0.708238410596026	-42.2596026490066	-3.48238410596027	-38.554701986755			
121	2700	0.999841059602649	0.0187549668874172	0.184476821192053	-3.04662251655629	28.6953642384106	6.09509933774834				0.960953642384106	0.143788079470199	0.157139072847682	-5.44609271523179	10.9478145695364	-2.26596026490066				0.997827814569536	-0.00127152317880793	-0.00794701986754963	6.44741721854305	24.5064900662252	9.87973509933775				0.224529801324503	-0.176529801324503	-0.821721854304636	-11.7970860927152	-17.4564238410596	18.1443708609272				0.836026490066225	0.147496688741722	0.00593377483443711	-5.3682119205298	-19.8280794701987	-5.09748344370861				0.479788079470199	-0.110834437086093	-0.788238410596027	-26.2996026490066	-1.80238410596026	-38.834701986755			
122	2720	0.967841059602649	0.0347549668874172	0.184476821192053	0.593377483443709	20.8553642384106	2.17509933774834				0.912953642384106	0.0477880794701987	0.189139072847682	-7.40609271523179	9.54781456953642	2.49403973509934				0.965827814569536	0.174728476821192	-0.0719470198675496	29.9674172185431	23.9464900662252	4.55973509933775				0.240529801324503	-0.0165298013245033	-0.773721854304636	-8.15708609271523	-3.4564238410596	15.0643708609272				0.916026490066225	0.131496688741722	0.0379337748344371	2.7517880794702	-12.2680794701987	-5.09748344370861				0.415788079470199	-0.110834437086093	-0.820238410596026	4.22039735099338	-1.24238410596026	-41.354701986755			
123	2740	0.919841059602649	0.0187549668874172	0.136476821192053	30.2733774834437	15.8153642384106	6.09509933774834				0.864953642384106	-0.000211920529801304	0.365139072847682	-2.36609271523179	6.18781456953642	1.65403973509934				0.869827814569536	0.206728476821192	-0.13594701986755	39.7674172185431	26.1864900662252	-8.32026490066225				0.208529801324503	-0.0325298013245033	-0.789721854304636	19.8429139072848	4.9435761589404	4.14437086092715				0.836026490066225	0.0994966887417219	0.0699337748344371	5.8317880794702	-5.54807947019868	-2.57748344370861				0.415788079470199	-0.190834437086093	-0.788238410596027	27.7403973509934	6.87761589403974	-40.794701986755			
124	2760	0.935841059602649	-0.0292450331125828	0.216476821192053	30.5533774834437	13.2953642384106	4.13509933774834				0.880953642384106	0.127788079470199	0.253139072847682	7.71390728476821	-6.13218543046358	-3.94596026490066				0.917827814569536	0.110728476821192	-0.16794701986755	49.567417218543	30.6664900662252	-11.4002649006623				0.256529801324503	-0.144529801324503	-0.837721854304636	14.5229139072848	7.7435761589404	-8.73562913907285				0.836026490066225	0.0834966887417219	0.101933774834437	11.1517880794702	3.69192052980133	-1.45748344370861				0.463788079470199	-0.334834437086093	-0.788238410596027	17.3803973509934	11.0776158940397	-25.114701986755			
125	2780	0.951841059602649	-0.0292450331125828	0.328476821192053	17.9533774834437	12.7353642384106	2.17509933774834				0.912953642384106	0.111788079470199	0.0771390728476822	13.8739072847682	-3.61218543046358	-1.70596026490066				0.981827814569536	-0.0332715231788079	-0.15194701986755	48.7274172185431	25.3464900662252	-8.04026490066225				0.288529801324503	-0.208529801324503	-0.869721854304636	6.40291390728477	12.7835761589404	-10.4156291390728				0.852026490066225	0.0674966887417219	0.133933774834437	9.1917880794702	9.57192052980133	-3.69748344370861				0.527788079470199	-0.446834437086093	-0.820238410596026	12.9003973509934	-0.122384105960265	-4.39470198675497			
126	2800	0.919841059602649	0.0187549668874172	0.264476821192053	17.1133774834437	-1.2646357615894	0.215099337748344				0.960953642384106	-0.0162119205298013	0.189139072847682	14.7139072847682	9.82781456953643	5.57403973509934				0.981827814569536	-0.129271523178808	-0.0239470198675496	41.1674172185431	23.6664900662252	-9.72026490066225				0.320529801324503	-0.176529801324503	-0.853721854304636	6.40291390728477	14.1835761589404	-11.8156291390728				0.900026490066225	0.0514966887417219	0.0859337748344371	8.9117880794702	14.6119205298013	-2.85748344370861				0.527788079470199	-0.414834437086093	-0.756238410596026	17.9403973509934	-15.8023841059603	16.605298013245			
127	2820	0.935841059602649	0.0187549668874172	0.264476821192053	25.7933774834437	-6.5846357615894	0.775099337748344				0.944953642384106	-0.0642119205298013	0.317139072847682	5.19390728476821	12.6278145695364	8.93403973509934				0.981827814569536	-0.177271523178808	0.0240529801324504	28.567417218543	27.5864900662252	-13.9202649006623				0.384529801324503	-0.176529801324503	-0.869721854304636	2.76291390728477	16.1435761589404	-14.6156291390728				0.948026490066225	0.0354966887417219	0.133933774834437	10.0317880794702	22.1719205298013	-2.01748344370861				0.575788079470199	-0.270834437086093	-0.676238410596026	-1.93960264900662	-17.2023841059603	22.205298013245			
128	2840	0.999841059602649	0.0187549668874172	0.232476821192053	26.0733774834437	-7.7046357615894	0.775099337748344				0.912953642384106	0.143788079470199	0.173139072847682	9.95390728476821	-0.532185430463576	-1.42596026490066				0.933827814569536	-0.241271523178808	-0.0559470198675496	27.447417218543	19.1864900662252	-9.16026490066225				0.400529801324503	-0.192529801324503	-0.869721854304636	0.522913907284768	16.1435761589404	-11.8156291390728				0.948026490066225	0.0194966887417219	0.197933774834437	9.4717880794702	17.4119205298013	-1.73748344370861				0.559788079470199	-0.222834437086093	-0.676238410596026	1.98039735099338	-11.8823841059603	16.325298013245			
129	2860	0.951841059602649	0.0187549668874172	0.248476821192053	24.9533774834437	-7.4246357615894	0.775099337748344				0.944953642384106	0.0637880794701987	0.109139072847682	18.6339072847682	15.4278145695364	-0.0259602649006601				0.933827814569536	-0.129271523178808	-0.0719470198675496	16.247417218543	17.5064900662252	-3.28026490066225				0.400529801324503	-0.176529801324503	-0.885721854304636	-7.03708609271523	11.1035761589404	-8.17562913907285				0.916026490066225	0.0674966887417219	0.181933774834437	5.8317880794702	12.0919205298013	-1.45748344370861				0.527788079470199	-0.238834437086093	-0.596238410596026	19.6203973509934	-3.20238410596026	-0.474701986754968			
130	2880	0.903841059602649	-0.0452450331125828	0.280476821192053	16.8333774834437	-2.6646357615894	3.85509933774834				0.992953642384106	-0.0162119205298013	0.237139072847682	14.7139072847682	10.1078145695364	2.77403973509934				1.02982781456954	-0.0812715231788079	-0.0719470198675496	2.52741721854305	16.9464900662252	0.35973509933775				0.400529801324503	-0.160529801324503	-0.885721854304636	-15.4370860927152	10.2635761589404	-9.57562913907285				0.932026490066225	0.0994966887417219	0.133933774834437	4.1517880794702	12.9319205298013	-3.13748344370861				0.511788079470199	-0.254834437086093	-0.612238410596026	15.4203973509934	10.7976158940397	-12.794701986755			
131	2900	0.919841059602649	-0.0932450331125828	0.264476821192053	16.8333774834437	-0.424635761589404	0.495099337748344				0.960953642384106	0.0477880794701987	0.237139072847682	5.75390728476821	7.58781456953643	2.21403973509934				1.09382781456954	-0.113271523178808	-0.11994701986755	9.52741721854305	11.9064900662252	-1.04026490066225				0.384529801324503	-0.128529801324503	-0.869721854304636	-15.9970860927152	9.7035761589404	-10.6956291390728				0.948026490066225	0.0674966887417219	0.181933774834437	10.0317880794702	20.4919205298013	-3.41748344370861				0.559788079470199	-0.286834437086093	-0.724238410596026	16.2603973509934	9.11761589403974	-16.994701986755			
132	2920	0.951841059602649	-0.0772450331125828	0.248476821192053	-0.806622516556291	3.7753642384106	-2.02490066225166				0.976953642384106	0.0797880794701987	0.205139072847682	5.47390728476821	11.7878145695364	2.49403973509934				1.02982781456954	-0.0812715231788079	-0.11994701986755	14.567417218543	10.2264900662252	-2.16026490066225				0.384529801324503	-0.0965298013245033	-0.901721854304636	-11.2370860927152	10.8235761589404	-10.1356291390728				0.964026490066225	0.0514966887417219	0.213933774834437	9.1917880794702	18.2519205298013	-3.97748344370861				0.575788079470199	-0.350834437086093	-0.772238410596026	32.5003973509934	-1.52238410596026	-16.434701986755			
133	2940	1.01584105960265	-0.0132450331125828	0.200476821192053	-13.9666225165563	3.2153642384106	-3.14490066225166				1.00895364238411	0.0797880794701987	0.173139072847682	11.9139072847682	7.86781456953642	1.93403973509934				0.981827814569536	-0.0172715231788079	-0.0719470198675496	12.887417218543	6.02649006622517	0.63973509933775				0.352529801324503	-0.0965298013245033	-0.917721854304636	-12.9170860927152	9.4235761589404	-10.9756291390728				0.964026490066225	0.0834966887417219	0.181933774834437	3.5917880794702	14.0519205298013	-3.69748344370861				0.607788079470199	-0.366834437086093	-0.756238410596026	28.3003973509934	-0.682384105960265	-13.634701986755			
134	2960	0	0	0	0	0	0				0	0	0	0	0	0				0	0	0	0	0	0				0.368529801324503	-0.112529801324503	-0.917721854304636	-11.7970860927152	7.1835761589404	-11.5356291390728				0.964026490066225	0.115496688741722	0.197933774834437	3.5917880794702	17.1319205298013	-2.29748344370861				0.607788079470199	-0.366834437086093	-0.788238410596027	11.5003973509934	-3.20238410596026	-5.79470198675497			
135	3080	0.983841059602649	-0.0132450331125828	0.072476821192053	0.593377483443709	0.975364238410596	-2.30490066225166				0.976953642384106	0.0957880794701987	0.221139072847682	-8.24609271523179	7.86781456953642	5.57403973509934				0.949827814569536	-0.00127152317880793	-0.15194701986755	4.76741721854305	2.10649006622517	-0.48026490066225				0	0	0	0	0	0				0	0	0	0	0	0				0	0	0	0	0	0			
136	3100	1.01584105960265	-0.0132450331125828	0.104476821192053	2.27337748344371	1.8153642384106	-2.58490066225166				0.992953642384106	0.0797880794701987	0.173139072847682	-4.88609271523179	5.62781456953642	4.73403973509934				0.965827814569536	-0.0172715231788079	-0.15194701986755	5.88741721854305	2.38649006622517	-0.20026490066225				0.384529801324503	-0.0965298013245033	-0.917721854304636	-12.3570860927152	-7.3764238410596	2.46437086092715				0.948026490066225	0.0994966887417219	0.181933774834437	-5.9282119205298	13.2119205298013	1.62251655629139				0.511788079470199	-0.334834437086093	-0.708238410596026	10.3803973509934	-3.76238410596027	4.28529801324503			
137	3120	0.999841059602649	0.0347549668874172	0.104476821192053	1.43337748344371	-0.704635761589404	-4.26490066225166				1.02495364238411	0.0797880794701987	0.157139072847682	-5.16609271523179	7.86781456953642	3.89403973509934				0.949827814569536	-0.0492715231788079	-0.15194701986755	7.00741721854305	2.94649006622517	0.35973509933775				0.384529801324503	-0.0805298013245033	-0.885721854304636	-13.1970860927152	-6.5364238410596	3.02437086092715				0.980026490066225	0.0994966887417219	0.213933774834437	-3.4082119205298	15.4519205298013	0.782516556291392				0.527788079470199	-0.302834437086093	-0.740238410596026	8.42039735099338	1.83761589403974	2.32529801324503			
138	3140	0.983841059602649	0.0187549668874172	0.120476821192053	0.873377483443709	-5.7446357615894	-4.26490066225166				0.992953642384106	0.0637880794701987	0.157139072847682	-7.40609271523179	1.14781456953642	4.73403973509934				0.981827814569536	-0.0492715231788079	-0.15194701986755	-0.552582781456954	2.94649006622517	0.35973509933775				0.400529801324503	-0.0485298013245033	-0.853721854304636	-5.63708609271523	-4.8564238410596	2.46437086092715				0.996026490066225	0.0834966887417219	0.181933774834437	-1.1682119205298	13.4919205298013	1.06251655629139				0.495788079470199	-0.302834437086093	-0.740238410596026	11.5003973509934	-2.92238410596027	2.88529801324503			
139	3160	0.983841059602649	0.00275496688741723	0.104476821192053	-3.88662251655629	-6.8646357615894	-3.14490066225166				0.992953642384106	0.0957880794701987	0.157139072847682	-5.72609271523179	2.54781456953642	5.01403973509934				0.997827814569536	-0.0172715231788079	-0.16794701986755	1.68741721854305	2.10649006622517	-0.48026490066225				0.400529801324503	-0.0325298013245033	-0.869721854304636	-5.91708609271523	-1.4964238410596	1.34437086092715				0.996026490066225	0.0834966887417219	0.181933774834437	-0.0482119205298018	8.73192052980133	1.34251655629139				0.495788079470199	-0.334834437086093	-0.756238410596026	13.4603973509934	-6.28238410596027	3.44529801324503			
140	3180	0.983841059602649	0.00275496688741723	0.104476821192053	-4.16662251655629	-5.1846357615894	-2.86490066225166				1.00895364238411	0.0637880794701987	0.141139072847682	-3.20609271523179	1.98781456953642	4.17403973509934				0.965827814569536	-0.0172715231788079	-0.18394701986755	3.08741721854305	0.706490066225167	-1.60026490066225				0.384529801324503	-0.0645298013245033	-0.901721854304636	-3.67708609271523	1.3035761589404	-0.895629139072848				0.980026490066225	0.0994966887417219	0.197933774834437	-0.888211920529802	0.891920529801325	2.18251655629139				0.511788079470199	-0.366834437086093	-0.756238410596026	7.02039735099338	-2.64238410596027	1.20529801324503			
141	3200	0.983841059602649	0.0187549668874172	0.088476821192053	-1.36662251655629	-4.3446357615894	-3.98490066225166				0.992953642384106	0.0477880794701987	0.157139072847682	-5.72609271523179	1.70781456953642	2.49403973509934				0.949827814569536	-0.0172715231788079	-0.16794701986755	3.92741721854305	0.706490066225167	-0.48026490066225				0.384529801324503	-0.0645298013245033	-0.901721854304636	-1.15708609271523	-1.7764238410596	-2.01562913907285				0.964026490066225	0.0994966887417219	0.181933774834437	4.9917880794702	0.331920529801325	3.02251655629139				0.495788079470199	-0.334834437086093	-0.740238410596026	6.18039735099338	0.717615894039735	1.48529801324503			
142	3220	0.967841059602649	0.0187549668874172	0.088476821192053	-0.526622516556291	-1.8246357615894	-4.82490066225166				0.992953642384106	0.0477880794701987	0.157139072847682	-7.68609271523179	0.867814569536424	2.21403973509934				0.949827814569536	-0.0332715231788079	-0.16794701986755	-1.67258278145695	0.146490066225167	0.0797350993377501				0.368529801324503	-0.112529801324503	-0.901721854304636	1.36291390728477	-5.9764238410596	-0.615629139072848				0.964026490066225	0.0834966887417219	0.197933774834437	6.6717880794702	-0.228079470198675	3.02251655629139				0.495788079470199	-0.318834437086093	-0.708238410596026	6.18039735099338	2.39761589403974	1.20529801324503			
143	3240	0.951841059602649	0.0187549668874172	0.088476821192053	0.313377483443709	0.415364238410596	-4.54490066225166				0.976953642384106	0.0477880794701987	0.173139072847682	-11.6060927152318	-1.09218543046358	1.65403973509934				0.949827814569536	-0.0492715231788079	-0.18394701986755	-3.35258278145695	-2.65350993377483	0.91973509933775				0.352529801324503	-0.112529801324503	-0.917721854304636	-0.0370860927152318	-6.8164238410596	-2.57562913907285				0.964026490066225	0.0674966887417219	0.181933774834437	6.6717880794702	-1.34807947019868	2.46251655629139				0.495788079470199	-0.318834437086093	-0.724238410596026	4.22039735099338	1.55761589403974	-0.754701986754968			
144	3260	0.967841059602649	0.0187549668874172	0.104476821192053	-0.806622516556291	0.975364238410596	-3.14490066225166				0.960953642384106	0.0637880794701987	0.157139072847682	-10.4860927152318	0.587814569536424	2.21403973509934				0.949827814569536	-0.0332715231788079	-0.18394701986755	-1.67258278145695	-2.65350993377483	0.0797350993377501				0.336529801324503	-0.0965298013245033	-0.917721854304636	-4.23708609271523	-5.1364238410596	-3.69562913907285				0.964026490066225	0.0674966887417219	0.197933774834437	3.5917880794702	-2.18807947019868	1.90251655629139				0.543788079470199	-0.350834437086093	-0.740238410596026	4.50039735099338	0.437615894039735	-4.95470198675497			
145	3280	0.983841059602649	0.00275496688741723	0.104476821192053	-2.76662251655629	-2.3846357615894	-3.14490066225166				0.992953642384106	0.0637880794701987	0.157139072847682	-9.36609271523179	1.98781456953642	1.65403973509934				0.949827814569536	-0.0172715231788079	-0.18394701986755	-4.19258278145695	-3.21350993377483	-0.20026490066225				0.336529801324503	-0.0965298013245033	-0.885721854304636	-1.99708609271523	-6.2564238410596	-4.25562913907285				0.948026490066225	0.0674966887417219	0.181933774834437	2.4717880794702	-2.74807947019868	1.34251655629139				0.527788079470199	-0.334834437086093	-0.756238410596026	3.66039735099338	-1.52238410596026	-10.274701986755			
146	3300	0.983841059602649	0.00275496688741723	0.104476821192053	-4.44662251655629	-2.9446357615894	-3.42490066225166				0.992953642384106	0.0797880794701987	0.173139072847682	-6.00609271523179	-2.77218543046358	1.09403973509934				0.965827814569536	-0.0172715231788079	-0.16794701986755	-4.75258278145695	-4.61350993377483	-0.76026490066225				0.336529801324503	-0.0805298013245033	-0.869721854304636	1.92291390728477	-6.8164238410596	-3.41562913907285				0.948026490066225	0.0834966887417219	0.181933774834437	2.4717880794702	-2.74807947019868	1.90251655629139				0.527788079470199	-0.334834437086093	-0.756238410596026	7.30039735099338	-3.48238410596027	-13.634701986755			
147	3320	0.983841059602649	0.0187549668874172	0.104476821192053	-5.00662251655629	-1.2646357615894	-2.02490066225166				0.992953642384106	0.0797880794701987	0.141139072847682	-3.76609271523179	-2.49218543046358	1.37403973509934				0.949827814569536	-0.00127152317880793	-0.16794701986755	-0.272582781456954	-4.61350993377483	0.0797350993377501				0.336529801324503	-0.0805298013245033	-0.885721854304636	0.802913907284768	-4.2964238410596	-0.615629139072848				0.948026490066225	0.0994966887417219	0.149933774834437	2.7517880794702	-4.42807947019868	3.86251655629139				0.495788079470199	-0.334834437086093	-0.772238410596026	7.58039735099338	-7.12238410596027	-11.394701986755			
148	3340	0.967841059602649	0.0187549668874172	0.104476821192053	0.313377483443709	-1.8246357615894	-0.904900662251656				0.976953642384106	0.0797880794701987	0.157139072847682	-2.08609271523179	-2.77218543046358	0.81403973509934				0.949827814569536	-0.00127152317880793	-0.19994701986755	1.68741721854305	-4.89350993377483	-0.48026490066225				0.320529801324503	-0.0965298013245033	-0.869721854304636	2.76291390728477	-1.2164238410596	1.06437086092715				0.948026490066225	0.0834966887417219	0.165933774834437	3.8717880794702	-3.02807947019868	3.58251655629139				0.479788079470199	-0.334834437086093	-0.772238410596026	6.18039735099338	-9.64238410596027	-8.31470198675497			
149	3360	0.967841059602649	0.0187549668874172	0.120476821192053	1.99337748344371	-2.1046357615894	-0.624900662251656				0.992953642384106	0.0637880794701987	0.173139072847682	0.713907284768212	-1.37218543046358	1.65403973509934				0.949827814569536	-0.0172715231788079	-0.18394701986755	0.00741721854304636	-3.49350993377483	-0.48026490066225				0.320529801324503	-0.0965298013245033	-0.901721854304636	8.92291390728477	0.1835761589404	0.504370860927152				0.964026490066225	0.0674966887417219	0.133933774834437	5.5517880794702	-3.02807947019868	3.30251655629139				0.479788079470199	-0.334834437086093	-0.756238410596026	6.46039735099338	-9.64238410596027	-7.47470198675497			
150	3380	0.983841059602649	0.0187549668874172	0.136476821192053	1.71337748344371	-3.5046357615894	0.215099337748344				0.976953642384106	0.0797880794701987	0.157139072847682	0.713907284768212	-2.49218543046358	-0.0259602649006601				0.965827814569536	-0.0172715231788079	-0.18394701986755	0.567417218543046	-2.65350993377483	-1.32026490066225				0.336529801324503	-0.0965298013245033	-0.917721854304636	7.80291390728477	-0.0964238410596001	-3.13562913907285				0.964026490066225	0.0834966887417219	0.149933774834437	6.1117880794702	-3.02807947019868	3.30251655629139				0.479788079470199	-0.318834437086093	-0.740238410596026	3.94039735099338	-6.84238410596027	-8.31470198675497			
151	3400	0.983841059602649	0.0187549668874172	0.152476821192053	0.593377483443709	-5.4646357615894	-0.904900662251656				0.992953642384106	0.0637880794701987	0.141139072847682	0.153907284768212	-2.77218543046358	-0.0259602649006601				0.965827814569536	-0.00127152317880793	-0.16794701986755	3.92741721854305	-2.09350993377483	-1.88026490066225				0.352529801324503	-0.112529801324503	-0.917721854304636	4.72291390728477	-0.3764238410596	-3.97562913907285				0.964026490066225	0.0834966887417219	0.133933774834437	7.2317880794702	-4.70807947019868	3.30251655629139				0.463788079470199	-0.318834437086093	-0.740238410596026	3.10039735099338	-6.28238410596027	-7.47470198675497			
152	3420	0.983841059602649	0.0187549668874172	0.104476821192053	3.39337748344371	-4.3446357615894	-0.904900662251656				0.992953642384106	0.0637880794701987	0.141139072847682	1.83390728476821	-1.65218543046358	-0.0259602649006601				0.965827814569536	-0.0332715231788079	-0.18394701986755	4.20741721854305	-3.21350993377483	-3.00026490066225				0.336529801324503	-0.112529801324503	-0.933721854304636	3.04291390728477	-1.2164238410596	-5.65562913907285				0.964026490066225	0.0674966887417219	0.149933774834437	8.9117880794702	-4.70807947019868	2.46251655629139				0.479788079470199	-0.334834437086093	-0.740238410596026	3.10039735099338	-4.88238410596027	-6.07470198675497			
153	3440	0.983841059602649	0.0187549668874172	0.104476821192053	5.07337748344371	-4.3446357615894	-1.18490066225166				0.992953642384106	0.0477880794701987	0.141139072847682	1.27390728476821	-0.532185430463576	0.53403973509934				0.965827814569536	-0.0332715231788079	-0.18394701986755	5.32741721854305	-3.21350993377483	-2.16026490066225				0.304529801324503	-0.128529801324503	-0.917721854304636	3.32291390728477	-2.3364238410596	-7.33562913907285				0.964026490066225	0.0514966887417219	0.133933774834437	7.7917880794702	-4.70807947019868	2.18251655629139				0.479788079470199	-0.334834437086093	-0.756238410596026	1.98039735099338	-6.00238410596027	-6.07470198675497			
154	3460	0.967841059602649	0.00275496688741723	0.104476821192053	3.11337748344371	-5.1846357615894	-2.30490066225166				0.992953642384106	0.0477880794701987	0.157139072847682	3.23390728476821	-2.49218543046358	1.93403973509934				0.965827814569536	-0.0332715231788079	-0.16794701986755	4.76741721854305	-2.65350993377483	-2.44026490066225				0.304529801324503	-0.128529801324503	-0.901721854304636	5.28291390728477	-2.0564238410596	-8.17562913907285				0.964026490066225	0.0674966887417219	0.149933774834437	8.9117880794702	-3.86807947019868	1.90251655629139				0.479788079470199	-0.318834437086093	-0.772238410596026	0.580397350993377	-5.44238410596027	-4.95470198675497			
155	3480	0.967841059602649	0.00275496688741723	0.120476821192053	0.873377483443709	-3.7846357615894	-2.58490066225166				0.976953642384106	0.0637880794701987	0.141139072847682	3.51390728476821	-3.33218543046358	1.65403973509934				0.965827814569536	-0.0332715231788079	-0.18394701986755	4.48741721854305	-3.49350993377483	-1.88026490066225				0.304529801324503	-0.0965298013245033	-0.885721854304636	5.00291390728477	-0.9364238410596	-6.77562913907285				0.964026490066225	0.0674966887417219	0.149933774834437	8.6317880794702	-3.58807947019868	2.46251655629139				0.495788079470199	-0.318834437086093	-0.772238410596026	3.66039735099338	-5.16238410596027	-5.23470198675497			
156	3500	0.967841059602649	0.0187549668874172	0.168476821192053	-1.92662251655629	-4.0646357615894	-0.624900662251656				0.992953642384106	0.0477880794701987	0.125139072847682	3.51390728476821	-2.21218543046358	0.53403973509934				0.965827814569536	-0.0332715231788079	-0.15194701986755	3.36741721854305	-2.37350993377483	-1.60026490066225				0.304529801324503	-0.128529801324503	-0.901721854304636	5.00291390728477	0.7435761589404	-4.53562913907285				0.980026490066225	0.0514966887417219	0.149933774834437	7.5117880794702	-6.10807947019868	3.02251655629139				0.495788079470199	-0.334834437086093	-0.772238410596026	3.94039735099338	-7.68238410596027	-6.91470198675497			
157	3520	0.967841059602649	0.0187549668874172	0.088476821192053	1.43337748344371	-1.2646357615894	-2.30490066225166				0.992953642384106	0.0317880794701987	0.141139072847682	1.27390728476821	-3.89218543046358	-0.30596026490066				0.949827814569536	-0.0172715231788079	-0.16794701986755	1.68741721854305	-2.09350993377483	-1.04026490066225				0.304529801324503	-0.128529801324503	-0.901721854304636	6.12291390728477	2.1435761589404	-3.13562913907285				0.964026490066225	0.0514966887417219	0.133933774834437	5.5517880794702	-7.22807947019868	3.02251655629139				0.495788079470199	-0.350834437086093	-0.788238410596027	3.66039735099338	-6.84238410596027	-6.07470198675497			
158	3540	0.967841059602649	0.00275496688741723	0.088476821192053	0.0333774834437086	-1.2646357615894	-3.42490066225166				0.976953642384106	0.0317880794701987	0.157139072847682	-1.80609271523179	-4.17218543046358	-1.14596026490066				0.949827814569536	-0.0332715231788079	-0.18394701986755	0.567417218543046	-1.25350993377483	-1.32026490066225				0.288529801324503	-0.128529801324503	-0.917721854304636	5.84291390728477	2.1435761589404	-1.45562913907285				0.964026490066225	0.0514966887417219	0.133933774834437	5.8317880794702	-6.66807947019868	2.74251655629139				0.495788079470199	-0.350834437086093	-0.756238410596026	1.14039735099338	-6.84238410596027	-4.67470198675497			
159	3560	0.967841059602649	0.0187549668874172	0.088476821192053	1.15337748344371	-3.2246357615894	-2.58490066225166				0.960953642384106	0.0637880794701987	0.157139072847682	0.433907284768212	-3.89218543046358	-0.585960264900661				0.933827814569536	-0.0332715231788079	-0.16794701986755	-0.832582781456954	-2.09350993377483	-1.88026490066225				0.288529801324503	-0.128529801324503	-0.917721854304636	6.68291390728477	-0.6564238410596	-1.45562913907285				0.964026490066225	0.0514966887417219	0.117933774834437	5.5517880794702	-5.54807947019868	4.14251655629139				0.479788079470199	-0.334834437086093	-0.740238410596026	-0.539602649006623	-6.84238410596027	-3.27470198675497			
160	3580	0.967841059602649	0.0187549668874172	0.072476821192053	-0.526622516556291	-2.3846357615894	-3.14490066225166				0.976953642384106	0.0637880794701987	0.109139072847682	-0.406092715231788	-0.532185430463576	0.81403973509934				0.949827814569536	-0.0172715231788079	-0.16794701986755	-2.79258278145695	-1.25350993377483	-1.32026490066225				0.304529801324503	-0.128529801324503	-0.917721854304636	8.08291390728477	-2.6164238410596	-0.335629139072848				0.948026490066225	0.0674966887417219	0.117933774834437	3.3117880794702	-6.66807947019868	3.86251655629139				0.479788079470199	-0.318834437086093	-0.740238410596026	-2.49960264900662	-6.28238410596027	-3.27470198675497			
161	3600	0.951841059602649	0.00275496688741723	0.072476821192053	-1.08662251655629	-2.1046357615894	-3.98490066225166				0.976953642384106	0.0477880794701987	0.125139072847682	-6.56609271523179	-0.532185430463576	0.25403973509934				0.965827814569536	-0.0172715231788079	-0.18394701986755	-3.91258278145695	-0.973509933774833	-0.76026490066225				0.288529801324503	-0.160529801324503	-0.917721854304636	4.16291390728477	-2.8964238410596	-1.17562913907285				0.932026490066225	0.0674966887417219	0.149933774834437	1.6317880794702	-6.10807947019868	2.18251655629139				0.479788079470199	-0.318834437086093	-0.740238410596026	0.580397350993377	-7.12238410596027	-5.51470198675497			
162	3620	0.983841059602649	-0.0132450331125828	0.088476821192053	-4.44662251655629	-2.3846357615894	-2.86490066225166				0.976953642384106	0.0797880794701987	0.157139072847682	-4.88609271523179	-7.53218543046358	-0.585960264900661				0.965827814569536	-0.0332715231788079	-0.16794701986755	-1.95258278145695	-1.25350993377483	-1.60026490066225				0.288529801324503	-0.144529801324503	-0.949721854304636	2.76291390728477	-2.8964238410596	0.224370860927152				0.948026490066225	0.0674966887417219	0.101933774834437	0.511788079470198	-5.26807947019868	2.18251655629139				0.463788079470199	-0.318834437086093	-0.740238410596026	5.34039735099338	-5.44238410596027	-7.75470198675497			
163	3640	0.999841059602649	0.00275496688741723	0.104476821192053	-4.72662251655629	-2.9446357615894	-2.02490066225166				0.992953642384106	0.0637880794701987	0.125139072847682	-2.92609271523179	-3.33218543046358	-0.30596026490066				0.965827814569536	-0.00127152317880793	-0.19994701986755	-1.39258278145695	-3.21350993377483	-1.04026490066225				0.288529801324503	-0.112529801324503	-0.901721854304636	-0.317086092715232	-2.6164238410596	0.784370860927152				0.948026490066225	0.0674966887417219	0.117933774834437	3.0317880794702	-3.86807947019868	1.90251655629139				0.463788079470199	-0.318834437086093	-0.740238410596026	2.54039735099338	-3.76238410596027	-6.91470198675497			
164	3660	0.983841059602649	0.0187549668874172	0.072476821192053	-7.80662251655629	-3.2246357615894	-2.86490066225166				1.00895364238411	0.0637880794701987	0.125139072847682	-6.00609271523179	-1.09218543046358	-0.585960264900661				0.965827814569536	-0.00127152317880793	-0.18394701986755	-4.75258278145695	-1.81350993377483	-1.60026490066225				0.304529801324503	-0.112529801324503	-0.901721854304636	3.88291390728477	-2.3364238410596	-0.335629139072848				0.980026490066225	0.0674966887417219	0.117933774834437	2.7517880794702	-4.70807947019868	2.18251655629139				0.479788079470199	-0.318834437086093	-0.756238410596026	0.580397350993377	-2.36238410596027	-5.23470198675497			
165	3680	0.967841059602649	0.0347549668874172	0.088476821192053	-6.40662251655629	-2.1046357615894	-2.58490066225166				0.992953642384106	0.0957880794701987	0.157139072847682	-6.56609271523179	-4.73218543046358	0.53403973509934				0.965827814569536	-0.0172715231788079	-0.18394701986755	-4.75258278145695	-2.65350993377483	-0.76026490066225				0.288529801324503	-0.144529801324503	-0.917721854304636	5.00291390728477	1.3035761589404	-0.335629139072848				0.964026490066225	0.0514966887417219	0.117933774834437	1.0717880794702	-6.38807947019868	2.46251655629139				0.479788079470199	-0.302834437086093	-0.772238410596026	-1.65960264900662	-1.80238410596026	-5.51470198675497			
166	3700	0.967841059602649	0.0507549668874172	0.088476821192053	-5.28662251655629	-2.1046357615894	-2.30490066225166				0.960953642384106	0.0957880794701987	0.141139072847682	-4.04609271523179	-6.97218543046358	-0.86596026490066				0.949827814569536	-0.00127152317880793	-0.18394701986755	-3.91258278145695	-2.37350993377483	-1.32026490066225				0.304529801324503	-0.144529801324503	-0.933721854304636	2.48291390728477	2.4235761589404	-0.0556291390728476				0.948026490066225	0.0674966887417219	0.117933774834437	1.0717880794702	-4.42807947019868	1.34251655629139				0.479788079470199	-0.302834437086093	-0.772238410596026	1.42039735099338	-0.682384105960265	-7.47470198675497			
167	3720	0.983841059602649	0.0507549668874172	0.088476821192053	-4.16662251655629	-2.6646357615894	-2.30490066225166				0.992953642384106	0.0797880794701987	0.125139072847682	1.27390728476821	-2.49218543046358	-0.0259602649006601				0.933827814569536	0.0147284768211921	-0.18394701986755	-2.79258278145695	-0.413509933774833	-1.32026490066225				0.288529801324503	-0.128529801324503	-0.933721854304636	1.92291390728477	-0.0964238410596001	-0.615629139072848				0.948026490066225	0.0834966887417219	0.101933774834437	0.231788079470198	-4.42807947019868	1.62251655629139				0.495788079470199	-0.318834437086093	-0.772238410596026	2.82039735099338	-1.52238410596026	-7.75470198675497			
168	3740	0.983841059602649	0.0507549668874172	0.104476821192053	-2.76662251655629	-3.7846357615894	-2.30490066225166				0.976953642384106	0.0797880794701987	0.141139072847682	2.95390728476821	-2.21218543046358	-0.30596026490066				0.949827814569536	0.0147284768211921	-0.19994701986755	-0.552582781456954	0.146490066225167	-0.76026490066225				0.320529801324503	-0.128529801324503	-0.917721854304636	2.48291390728477	-0.9364238410596	-0.615629139072848				0.964026490066225	0.0834966887417219	0.101933774834437	1.3517880794702	-2.74807947019868	1.62251655629139				0.479788079470199	-0.318834437086093	-0.772238410596026	1.42039735099338	-2.36238410596027	-5.51470198675497			
169	3760	0.983841059602649	0.0507549668874172	0.088476821192053	0.0333774834437086	-3.7846357615894	-2.02490066225166				0.976953642384106	0.0797880794701987	0.125139072847682	-0.406092715231788	0.0278145695364242	0.53403973509934				0.949827814569536	0.0147284768211921	-0.19994701986755	0.847417218543046	-0.693509933774834	-0.48026490066225				0.304529801324503	-0.128529801324503	-0.917721854304636	1.64291390728477	-0.0964238410596001	0.224370860927152				0.964026490066225	0.0674966887417219	0.101933774834437	-0.328211920529802	-4.42807947019868	1.62251655629139				0.479788079470199	-0.302834437086093	-0.756238410596026	-3.61960264900662	-2.92238410596027	-4.95470198675497			
170	3780	0.983841059602649	0.0347549668874172	0.088476821192053	1.43337748344371	-2.6646357615894	-2.02490066225166				0.992953642384106	0.0797880794701987	0.125139072847682	-2.36609271523179	-1.93218543046358	0.25403973509934				0.949827814569536	0.0147284768211921	-0.18394701986755	-1.95258278145695	-0.973509933774833	-1.04026490066225				0.304529801324503	-0.128529801324503	-0.917721854304636	1.36291390728477	1.8635761589404	0.504370860927152				0.964026490066225	0.0674966887417219	0.117933774834437	-0.328211920529802	-4.70807947019868	0.222516556291392				0.479788079470199	-0.286834437086093	-0.772238410596026	-1.93960264900662	-1.80238410596026	-4.39470198675497			
171	3800	0.983841059602649	0.0347549668874172	0.088476821192053	-1.36662251655629	-2.3846357615894	-1.46490066225166				0.992953642384106	0.0957880794701987	0.0931390728476822	0.993907284768212	-4.17218543046358	-0.0259602649006601				0.965827814569536	0.0147284768211921	-0.18394701986755	0.847417218543046	-0.133509933774833	-0.48026490066225				0.304529801324503	-0.144529801324503	-0.933721854304636	0.522913907284768	1.5835761589404	0.504370860927152				0.964026490066225	0.0674966887417219	0.101933774834437	-0.0482119205298018	-3.30807947019868	0.222516556291392				0.479788079470199	-0.302834437086093	-0.772238410596026	1.42039735099338	-0.682384105960265	-7.19470198675497			
172	3820	0.967841059602649	0.0347549668874172	0.104476821192053	-1.64662251655629	-2.6646357615894	-2.30490066225166				0.992953642384106	0.0637880794701987	0.109139072847682	2.11390728476821	-1.37218543046358	-0.30596026490066				0.965827814569536	-0.00127152317880793	-0.19994701986755	3.64741721854305	-2.93350993377483	-0.76026490066225				0.304529801324503	-0.128529801324503	-0.917721854304636	2.20291390728477	1.3035761589404	0.504370860927152				0.964026490066225	0.0834966887417219	0.101933774834437	0.231788079470198	-2.74807947019868	-0.337483443708608				0.479788079470199	-0.302834437086093	-0.772238410596026	0.860397350993377	-1.80238410596026	-6.91470198675497			
173	3840	0.967841059602649	0.0347549668874172	0.088476821192053	-1.36662251655629	-2.6646357615894	-1.18490066225166				0.976953642384106	0.0797880794701987	0.125139072847682	2.95390728476821	0.307814569536424	0.25403973509934				0.933827814569536	-0.00127152317880793	-0.19994701986755	3.64741721854305	-2.65350993377483	-1.04026490066225				0.272529801324503	-0.128529801324503	-0.917721854304636	3.60291390728477	1.5835761589404	-0.335629139072848				0.964026490066225	0.0674966887417219	0.0859337748344371	0.791788079470198	-3.02807947019868	-0.337483443708608				0.479788079470199	-0.286834437086093	-0.772238410596026	-3.05960264900662	-1.80238410596026	-6.07470198675497			
174	3860	0.967841059602649	0.0507549668874172	0.072476821192053	-1.36662251655629	-0.704635761589404	-1.18490066225166				0.992953642384106	0.0797880794701987	0.125139072847682	3.23390728476821	-3.33218543046358	-0.86596026490066				0.949827814569536	0.0147284768211921	-0.18394701986755	1.12741721854305	0.146490066225167	-0.76026490066225				0.288529801324503	-0.128529801324503	-0.917721854304636	0.802913907284768	2.9835761589404	-0.0556291390728476				0.964026490066225	0.0514966887417219	0.101933774834437	1.3517880794702	-3.30807947019868	0.222516556291392				0.463788079470199	-0.270834437086093	-0.772238410596026	-4.73960264900662	-2.08238410596027	-5.51470198675497			
175	3880	0.983841059602649	0.0347549668874172	0.072476821192053	0.313377483443709	-0.144635761589404	-1.46490066225166				0.976953642384106	0.0797880794701987	0.0931390728476822	0.993907284768212	-6.41218543046358	-1.14596026490066				0.949827814569536	-0.0172715231788079	-0.18394701986755	0.00741721854304636	-0.133509933774833	-0.20026490066225				0.304529801324503	-0.144529801324503	-0.917721854304636	-0.0370860927152318	1.5835761589404	0.784370860927152				0.964026490066225	0.0674966887417219	0.0859337748344371	0.231788079470198	-4.70807947019868	-0.617483443708608				0.479788079470199	-0.286834437086093	-0.772238410596026	-2.49960264900662	-2.64238410596027	-6.07470198675497			
176	3900	0.983841059602649	0.0347549668874172	0.072476821192053	1.15337748344371	0.415364238410596	-1.46490066225166				0.976953642384106	0.0797880794701987	0.0931390728476822	0.713907284768212	-1.65218543046358	-1.70596026490066				0.949827814569536	-0.00127152317880793	-0.19994701986755	1.68741721854305	-1.25350993377483	-0.48026490066225				0.288529801324503	-0.128529801324503	-0.917721854304636	2.76291390728477	2.7035761589404	1.34437086092715				0.948026490066225	0.0674966887417219	0.0699337748344371	-0.0482119205298018	-5.26807947019868	-1.45748344370861				0.479788079470199	-0.286834437086093	-0.756238410596026	-0.259602649006623	-2.36238410596027	-8.59470198675497			
177	3920	0.967841059602649	0.0347549668874172	0.072476821192053	1.71337748344371	2.3753642384106	-0.624900662251656				1.00895364238411	0.0797880794701987	0.109139072847682	0.993907284768212	0.587814569536424	-1.14596026490066				0.949827814569536	-0.00127152317880793	-0.19994701986755	2.52741721854305	-0.973509933774833	-0.48026490066225				0.304529801324503	-0.128529801324503	-0.917721854304636	3.32291390728477	2.1435761589404	0.504370860927152				0.964026490066225	0.0674966887417219	0.0859337748344371	1.0717880794702	-3.86807947019868	-0.0574834437086077				0.479788079470199	-0.286834437086093	-0.756238410596026	-1.37960264900662	-2.36238410596027	-9.43470198675497			
178	3940	0.967841059602649	0.0347549668874172	0.072476821192053	-0.806622516556291	2.3753642384106	-0.344900662251656				0.976953642384106	0.0797880794701987	0.125139072847682	2.95390728476821	-3.33218543046358	-1.70596026490066				0.965827814569536	-0.00127152317880793	-0.19994701986755	1.12741721854305	-0.133509933774833	0.35973509933775				0.304529801324503	-0.144529801324503	-0.917721854304636	1.36291390728477	3.2635761589404	0.784370860927152				0.964026490066225	0.0674966887417219	0.0859337748344371	0.511788079470198	-3.58807947019868	-1.45748344370861				0.479788079470199	-0.270834437086093	-0.788238410596027	-3.89960264900662	-2.36238410596027	-8.31470198675497			
179	3960	0.967841059602649	0.0187549668874172	0.056476821192053	-1.36662251655629	0.975364238410596	-0.344900662251656				0.976953642384106	0.0797880794701987	0.109139072847682	2.95390728476821	-1.93218543046358	-1.70596026490066				0	0	0	0	0	0				0.304529801324503	-0.144529801324503	-0.917721854304636	0.802913907284768	1.5835761589404	1.06437086092715				0.964026490066225	0.0674966887417219	0.0859337748344371	-0.608211920529802	-3.86807947019868	-1.73748344370861				0.463788079470199	-0.286834437086093	-0.788238410596027	-2.21960264900662	-3.48238410596027	-8.03470198675497			
