No	Time	12-AccX	12-AccY	12-AccZ	12-GyroX	12-GyroY	12-GyroZ	13-AccX	13-AccY	13-AccZ	13-GyroX	13-GyroY	13-GyroZ	14-AccX	14-AccY	14-AccZ	14-GyroX	14-GyroY	14-GyroZ	15-AccX	15-AccY	15-AccZ	15-GyroX	15-GyroY	15-GyroZ	16-AccX	16-AccY	16-AccZ	16-GyroX	16-GyroY	16-GyroZ	17-AccX	17-AccY	17-AccZ	17-GyroX	17-GyroY	17-GyroZ
0	100	0	0	0	0	0	0				0	0	0	0	0	0				-0.234172185430464	-0.145271523178808	-0.88794701986755	1.12741721854305	0.426490066225167	-1.04026490066225				0.256529801324503	-0.112529801324503	-0.933721854304636	0.242913907284768	1.8635761589404	6.94437086092715				0.884026490066225	0.0674966887417219	0.341933774834437	-8.7282119205298	-0.508079470198675	-1.45748344370861				0.0317880794701987	-0.478834437086093	-0.804238410596027	-0.819602649006623	1.83761589403974	2.32529801324503			
1	120	-0.184158940397351	0.0667549668874172	-0.951523178807947	0.873377483443709	-0.424635761589404	-1.18490066225166				1.00895364238411	0.0477880794701987	0.0291390728476822	-0.686092715231788	-2.49218543046358	0.53403973509934				-0.218172185430464	-0.129271523178808	-0.88794701986755	0.00741721854304636	0.986490066225167	0.35973509933775				0.272529801324503	-0.112529801324503	-0.917721854304636	0.242913907284768	2.4235761589404	7.22437086092715				0.916026490066225	0.0514966887417219	0.357933774834437	-5.9282119205298	0.0519205298013249	-0.617483443708608				0.0317880794701987	-0.478834437086093	-0.820238410596026	-0.539602649006623	1.27761589403974	2.60529801324503			
2	140	-0.184158940397351	0.0827549668874172	-0.967523178807947	1.15337748344371	-0.144635761589404	-1.46490066225166				0.992953642384106	0.0317880794701987	0.0451390728476822	-1.24609271523179	0.307814569536424	1.37403973509934				-0.218172185430464	-0.129271523178808	-0.88794701986755	0.287417218543046	-0.133509933774833	-0.48026490066225				0.288529801324503	-0.128529801324503	-0.917721854304636	1.36291390728477	2.4235761589404	6.94437086092715				0.932026490066225	0.0354966887417219	0.357933774834437	-6.2082119205298	-0.228079470198675	-0.617483443708608				0.0317880794701987	-0.478834437086093	-0.836238410596026	-0.819602649006623	1.83761589403974	1.48529801324503			
3	160	-0.200158940397351	0.0827549668874172	-0.951523178807947	1.15337748344371	0.135364238410596	-1.46490066225166				0.976953642384106	0.0477880794701987	0.0771390728476822	-4.32609271523179	3.10781456953642	-0.0259602649006601				-0.234172185430464	-0.145271523178808	-0.88794701986755	1.12741721854305	0.146490066225167	-0.20026490066225				0.288529801324503	-0.112529801324503	-0.933721854304636	0.802913907284768	2.1435761589404	6.38437086092715				0.900026490066225	0.0354966887417219	0.357933774834437	-5.3682119205298	-1.62807947019868	-1.73748344370861				0.0317880794701987	-0.494834437086093	-0.820238410596026	-0.819602649006623	2.67761589403974	1.76529801324503			
4	180	-0.184158940397351	0.0667549668874172	-0.951523178807947	1.15337748344371	0.415364238410596	-1.46490066225166				0.976953642384106	0.0317880794701987	0.0611390728476822	-5.16609271523179	1.70781456953642	-1.42596026490066				-0.218172185430464	-0.129271523178808	-0.88794701986755	0.847417218543046	0.986490066225167	-0.76026490066225				0.288529801324503	-0.112529801324503	-0.933721854304636	-0.0370860927152318	2.4235761589404	5.82437086092715				0.900026490066225	0.0514966887417219	0.373933774834437	-3.4082119205298	-1.34807947019868	-1.45748344370861				0.0317880794701987	-0.494834437086093	-0.820238410596026	-2.21960264900662	2.95761589403974	4.00529801324503			
5	200	-0.200158940397351	0.0827549668874172	-0.951523178807947	1.43337748344371	-0.144635761589404	-1.46490066225166				0.992953642384106	0.0477880794701987	0.0451390728476822	-2.64609271523179	1.98781456953642	-2.54596026490066				-0.234172185430464	-0.145271523178808	-0.88794701986755	-0.832582781456954	0.146490066225167	-0.48026490066225				0.272529801324503	-0.144529801324503	-0.933721854304636	-1.43708609271523	1.3035761589404	4.42437086092715				0.916026490066225	0.0354966887417219	0.357933774834437	-1.7282119205298	-0.788079470198675	-1.45748344370861				0.0477880794701987	-0.478834437086093	-0.820238410596026	-0.539602649006623	2.11761589403974	3.44529801324503			
6	220	-0.200158940397351	0.0667549668874172	-0.951523178807947	0.313377483443709	0.415364238410596	-0.904900662251656				0.992953642384106	0.0317880794701987	0.0451390728476822	-1.52609271523179	2.26781456953642	-1.42596026490066				-0.234172185430464	-0.129271523178808	-0.87194701986755	-1.67258278145695	-0.413509933774833	-0.20026490066225				0.288529801324503	-0.112529801324503	-0.917721854304636	-1.71708609271523	1.3035761589404	3.02437086092715				0.900026490066225	0.0354966887417219	0.357933774834437	-2.5682119205298	-1.34807947019868	-2.29748344370861				0.0477880794701987	-0.478834437086093	-0.820238410596026	0.860397350993377	1.55761589403974	2.60529801324503			
7	240	-0.200158940397351	0.0827549668874172	-0.951523178807947	0.873377483443709	0.975364238410596	-1.46490066225166				0.976953642384106	0.0477880794701987	0.0451390728476822	-1.24609271523179	0.587814569536424	-2.26596026490066				-0.218172185430464	-0.129271523178808	-0.88794701986755	-0.552582781456954	-0.133509933774833	-0.20026490066225				0.272529801324503	-0.112529801324503	-0.901721854304636	-0.597086092715232	0.4635761589404	2.46437086092715				0.916026490066225	0.0354966887417219	0.373933774834437	-2.5682119205298	-1.34807947019868	-2.01748344370861				0.0477880794701987	-0.478834437086093	-0.804238410596027	0.300397350993377	1.27761589403974	2.32529801324503			
8	260	-0.200158940397351	0.0667549668874172	-0.951523178807947	0.593377483443709	0.135364238410596	-0.904900662251656				0.976953642384106	0.0317880794701987	0.0291390728476822	-0.406092715231788	3.66781456953642	-3.10596026490066				-0.234172185430464	-0.145271523178808	-0.87194701986755	1.12741721854305	0.426490066225167	0.0797350993377501				0.272529801324503	-0.128529801324503	-0.917721854304636	-0.0370860927152318	0.4635761589404	3.02437086092715				0.916026490066225	0.0514966887417219	0.357933774834437	-2.0082119205298	-1.34807947019868	-2.01748344370861				0.0317880794701987	-0.494834437086093	-0.804238410596027	-0.819602649006623	2.39761589403974	1.76529801324503			
9	280	-0.200158940397351	0.0667549668874172	-0.951523178807947	-0.806622516556291	0.415364238410596	-1.46490066225166				0.992953642384106	0.0477880794701987	0.0451390728476822	-2.36609271523179	1.98781456953642	-3.66596026490066				-0.218172185430464	-0.129271523178808	-0.88794701986755	-0.552582781456954	1.26649006622517	0.0797350993377501				0.288529801324503	-0.128529801324503	-0.933721854304636	-1.15708609271523	0.1835761589404	3.02437086092715				0.900026490066225	0.0354966887417219	0.341933774834437	-1.1682119205298	-2.46807947019868	-2.29748344370861				0.0317880794701987	-0.478834437086093	-0.820238410596026	-1.37960264900662	1.55761589403974	0.365298013245032			
10	300	-0.200158940397351	0.0667549668874172	-0.951523178807947	0.593377483443709	0.415364238410596	-0.624900662251656				0.992953642384106	0.0477880794701987	0.0451390728476822	-6.28609271523179	0.867814569536424	-4.78596026490066				-0.234172185430464	-0.129271523178808	-0.88794701986755	-1.67258278145695	0.426490066225167	-0.20026490066225				0.288529801324503	-0.112529801324503	-0.933721854304636	-1.15708609271523	-0.3764238410596	2.18437086092715				0.900026490066225	0.0514966887417219	0.357933774834437	-2.5682119205298	-1.62807947019868	-3.13748344370861				0.0317880794701987	-0.478834437086093	-0.820238410596026	-1.65960264900662	0.717615894039735	-0.754701986754968			
11	320	-0.200158940397351	0.0667549668874172	-0.951523178807947	-0.806622516556291	0.415364238410596	-1.18490066225166				0.976953642384106	0.0477880794701987	0.0611390728476822	-6.56609271523179	-2.21218543046358	-3.66596026490066				-0.234172185430464	-0.129271523178808	-0.87194701986755	-1.11258278145695	0.146490066225167	-0.20026490066225				0.288529801324503	-0.0965298013245033	-0.933721854304636	-0.317086092715232	1.3035761589404	2.18437086092715				0.916026490066225	0.0514966887417219	0.341933774834437	0.511788079470198	-1.06807947019868	-3.13748344370861				0.0317880794701987	-0.478834437086093	-0.820238410596026	-1.65960264900662	-0.122384105960265	-1.87470198675497			
12	340	-0.184158940397351	0.0827549668874172	-0.951523178807947	-1.64662251655629	0.415364238410596	-0.624900662251656				0.976953642384106	0.0637880794701987	0.0451390728476822	-0.406092715231788	-1.37218543046358	-2.26596026490066				-0.250172185430464	-0.129271523178808	-0.87194701986755	-2.23258278145695	0.146490066225167	0.35973509933775				0.272529801324503	-0.112529801324503	-0.917721854304636	-0.597086092715232	1.3035761589404	0.784370860927152				0.916026490066225	0.0514966887417219	0.341933774834437	2.7517880794702	-1.90807947019868	-2.01748344370861				0.0317880794701987	-0.478834437086093	-0.820238410596026	-0.819602649006623	-0.402384105960265	-2.71470198675497			
13	360	-0.200158940397351	0.0827549668874172	-0.951523178807947	-1.08662251655629	0.415364238410596	-0.344900662251656				0.992953642384106	0.0637880794701987	0.0451390728476822	2.11390728476821	2.26781456953642	-2.82596026490066				-0.234172185430464	-0.129271523178808	-0.88794701986755	-3.07258278145695	-0.973509933774833	0.35973509933775				0.288529801324503	-0.128529801324503	-0.933721854304636	-1.99708609271523	-0.9364238410596	0.224370860927152				0.916026490066225	0.0514966887417219	0.341933774834437	3.5917880794702	-1.90807947019868	-1.73748344370861				0.0157880794701987	-0.478834437086093	-0.820238410596026	-3.33960264900662	-0.122384105960265	-2.43470198675497			
14	380	-0.200158940397351	0.0827549668874172	-0.951523178807947	-0.806622516556291	0.415364238410596	-1.18490066225166				0.992953642384106	0.0477880794701987	0.0771390728476822	-1.80609271523179	5.06781456953642	-3.66596026490066				-0.234172185430464	-0.129271523178808	-0.91994701986755	0.00741721854304636	-0.413509933774833	0.0797350993377501				0.272529801324503	-0.128529801324503	-0.933721854304636	-3.39708609271523	0.1835761589404	0.504370860927152				0.900026490066225	0.0514966887417219	0.357933774834437	4.1517880794702	-0.228079470198675	-2.57748344370861				0.0157880794701987	-0.478834437086093	-0.820238410596026	-3.89960264900662	0.157615894039735	-1.87470198675497			
15	400	-0.200158940397351	0.0667549668874172	-0.951523178807947	-1.08662251655629	0.975364238410596	-1.18490066225166				0.992953642384106	0.0477880794701987	0.0931390728476822	-7.12609271523179	2.26781456953642	-5.62596026490066				-0.218172185430464	-0.113271523178808	-0.90394701986755	-1.11258278145695	1.54649006622517	0.0797350993377501				0.288529801324503	-0.0965298013245033	-0.933721854304636	-1.71708609271523	1.5835761589404	-0.0556291390728476				0.916026490066225	0.0674966887417219	0.357933774834437	7.5117880794702	0.331920529801325	-2.29748344370861				0.0317880794701987	-0.462834437086093	-0.836238410596026	-4.17960264900662	0.997615894039735	-1.31470198675497			
16	420	-0.200158940397351	0.0827549668874172	-0.935523178807947	-0.806622516556291	0.975364238410596	-0.624900662251656				0.976953642384106	0.0637880794701987	0.0771390728476822	-8.80609271523179	-1.65218543046358	-6.46596026490066				-0.218172185430464	-0.113271523178808	-0.85594701986755	-1.39258278145695	0.706490066225167	0.0797350993377501				0.272529801324503	-0.0965298013245033	-0.933721854304636	-0.877086092715232	2.1435761589404	-0.0556291390728476				0.932026490066225	0.0514966887417219	0.357933774834437	8.6317880794702	0.331920529801325	-2.29748344370861				0.0477880794701987	-0.478834437086093	-0.820238410596026	-2.21960264900662	0.997615894039735	-1.31470198675497			
17	440	-0.184158940397351	0.0827549668874172	-0.951523178807947	-1.08662251655629	0.135364238410596	-0.904900662251656				1.00895364238411	0.0797880794701987	0.0291390728476822	-3.20609271523179	-3.33218543046358	-5.90596026490066				-0.234172185430464	-0.113271523178808	-0.87194701986755	-2.51258278145695	-0.413509933774833	0.0797350993377501				0.272529801324503	-0.112529801324503	-0.933721854304636	-1.99708609271523	1.0235761589404	-0.615629139072848				0.916026490066225	0.0354966887417219	0.341933774834437	5.5517880794702	-0.228079470198675	-2.85748344370861				0.0477880794701987	-0.478834437086093	-0.836238410596026	-2.77960264900662	1.83761589403974	-2.43470198675497			
18	460	-0.184158940397351	0.0827549668874172	-0.951523178807947	-1.36662251655629	0.415364238410596	-0.904900662251656				1.00895364238411	0.0797880794701987	0.0131390728476822	-0.406092715231788	0.0278145695364242	-2.82596026490066				-0.234172185430464	-0.113271523178808	-0.88794701986755	-1.11258278145695	-0.693509933774834	0.91973509933775				0.256529801324503	-0.112529801324503	-0.949721854304636	-3.95708609271523	-1.2164238410596	-0.0556291390728476				0.916026490066225	0.0354966887417219	0.341933774834437	-0.0482119205298018	-0.788079470198675	-3.69748344370861				0.0477880794701987	-0.478834437086093	-0.820238410596026	-3.89960264900662	1.83761589403974	-2.15470198675497			
19	480	-0.200158940397351	0.0827549668874172	-0.935523178807947	-0.806622516556291	0.415364238410596	-1.18490066225166				0.992953642384106	0.0477880794701987	0.0611390728476822	-2.36609271523179	1.70781456953642	-2.82596026490066				-0.234172185430464	-0.113271523178808	-0.90394701986755	-0.552582781456954	0.426490066225167	0.35973509933775				0.256529801324503	-0.0965298013245033	-0.917721854304636	-4.79708609271523	-1.2164238410596	-1.17562913907285				0.900026490066225	0.0514966887417219	0.373933774834437	-0.328211920529802	0.891920529801325	-3.41748344370861				0.0477880794701987	-0.462834437086093	-0.836238410596026	-4.45960264900662	2.67761589403974	-2.43470198675497			
20	500	-0.200158940397351	0.0667549668874172	-0.951523178807947	0.593377483443709	0.415364238410596	-1.74490066225166				0.992953642384106	0.0637880794701987	0.0611390728476822	-3.20609271523179	-2.49218543046358	-3.94596026490066				-0.234172185430464	-0.113271523178808	-0.88794701986755	-0.552582781456954	1.26649006622517	-0.20026490066225				0.256529801324503	-0.0805298013245033	-0.917721854304636	-3.11708609271523	-0.9364238410596	-1.17562913907285				0.916026490066225	0.0514966887417219	0.357933774834437	1.6317880794702	0.611920529801325	-3.69748344370861				0.0637880794701987	-0.462834437086093	-0.852238410596026	-0.539602649006623	2.39761589403974	-2.15470198675497			
21	520	-0.200158940397351	0.0667549668874172	-0.951523178807947	-1.36662251655629	0.415364238410596	-1.46490066225166				0.992953642384106	0.0957880794701987	0.0291390728476822	-1.52609271523179	-5.29218543046358	-4.78596026490066				-0.218172185430464	-0.113271523178808	-0.87194701986755	-1.11258278145695	-0.413509933774833	-0.76026490066225				0.272529801324503	-0.0805298013245033	-0.917721854304636	-2.27708609271523	-0.0964238410596001	-1.45562913907285				0.932026490066225	0.0834966887417219	0.341933774834437	0.231788079470198	0.891920529801325	-3.69748344370861				0.0637880794701987	-0.478834437086093	-0.836238410596026	0.0203973509933773	2.39761589403974	-2.43470198675497			
22	540	-0.200158940397351	0.0667549668874172	-0.951523178807947	-1.64662251655629	0.975364238410596	-2.02490066225166				0.992953642384106	0.0957880794701987	0.0131390728476822	0.433907284768212	-3.89218543046358	-3.66596026490066				-0.234172185430464	-0.129271523178808	-0.87194701986755	-1.95258278145695	-0.133509933774833	-0.20026490066225				0.272529801324503	-0.0965298013245033	-0.917721854304636	-2.55708609271523	-0.9364238410596	-1.45562913907285				0.916026490066225	0.0674966887417219	0.341933774834437	-3.1282119205298	0.891920529801325	-3.41748344370861				0.0637880794701987	-0.478834437086093	-0.836238410596026	-0.539602649006623	1.27761589403974	-1.59470198675497			
23	560	-0.200158940397351	0.0827549668874172	-0.951523178807947	-0.806622516556291	0.135364238410596	-0.624900662251656				0.992953642384106	0.0797880794701987	0.0451390728476822	0.993907284768212	-1.37218543046358	-2.54596026490066				-0.234172185430464	-0.113271523178808	-0.88794701986755	-1.39258278145695	-0.693509933774834	0.0797350993377501				0.272529801324503	-0.0965298013245033	-0.917721854304636	-1.99708609271523	-1.2164238410596	-1.45562913907285				0.916026490066225	0.0674966887417219	0.341933774834437	-4.8082119205298	1.17192052980133	-3.41748344370861				0.0477880794701987	-0.462834437086093	-0.852238410596026	-2.21960264900662	0.157615894039735	-1.31470198675497			
24	580	-0.200158940397351	0.0827549668874172	-0.951523178807947	-1.08662251655629	0.415364238410596	-0.904900662251656				0.976953642384106	0.0637880794701987	0.0771390728476822	-0.126092715231788	-1.65218543046358	-1.98596026490066				-0.234172185430464	-0.113271523178808	-0.90394701986755	-0.832582781456954	0.146490066225167	0.0797350993377501				0.288529801324503	-0.0805298013245033	-0.917721854304636	-1.15708609271523	-0.0964238410596001	-0.895629139072848				0.900026490066225	0.0994966887417219	0.373933774834437	-4.2482119205298	2.57192052980133	-3.13748344370861				0.0477880794701987	-0.446834437086093	-0.852238410596026	-1.09960264900662	-0.122384105960265	-1.31470198675497			
25	600	-0.200158940397351	0.0827549668874172	-0.951523178807947	-1.08662251655629	0.975364238410596	-0.344900662251656				0.992953642384106	0.0637880794701987	0.0611390728476822	-0.966092715231788	-3.61218543046358	-2.26596026490066				-0.234172185430464	-0.113271523178808	-0.88794701986755	-0.552582781456954	0.706490066225167	0.35973509933775				0.288529801324503	-0.0805298013245033	-0.933721854304636	-0.597086092715232	1.0235761589404	-0.615629139072848				0.916026490066225	0.0834966887417219	0.325933774834437	-0.888211920529802	0.0519205298013249	-2.57748344370861				0.0317880794701987	-0.446834437086093	-0.836238410596026	-0.539602649006623	1.55761589403974	-1.03470198675497			
26	620	-0.200158940397351	0.0827549668874172	-0.951523178807947	-1.36662251655629	1.2553642384106	0.215099337748344				0.992953642384106	0.0477880794701987	0.0291390728476822	0.153907284768212	-1.93218543046358	-2.26596026490066				-0.234172185430464	-0.129271523178808	-0.88794701986755	-0.552582781456954	1.54649006622517	0.0797350993377501				0.256529801324503	-0.0965298013245033	-0.933721854304636	-0.597086092715232	1.5835761589404	0.784370860927152				0.916026490066225	0.0514966887417219	0.357933774834437	-1.4482119205298	2.57192052980133	-3.41748344370861				0.0317880794701987	-0.462834437086093	-0.820238410596026	0.0203973509933773	0.997615894039735	-1.59470198675497			
27	640	-0.184158940397351	0.0827549668874172	-0.951523178807947	-1.36662251655629	1.2553642384106	-1.18490066225166				0.992953642384106	0.0957880794701987	0.0291390728476822	-2.92609271523179	-1.09218543046358	-4.50596026490066				-0.218172185430464	-0.145271523178808	-0.88794701986755	-1.67258278145695	0.146490066225167	-0.76026490066225				0.256529801324503	-0.112529801324503	-0.949721854304636	-1.71708609271523	1.0235761589404	0.784370860927152				0.884026490066225	0.0834966887417219	0.341933774834437	-2.0082119205298	1.45192052980132	-2.57748344370861				0.0317880794701987	-0.446834437086093	-0.820238410596026	-1.93960264900662	0.717615894039735	-1.31470198675497			
28	660	-0.200158940397351	0.0827549668874172	-0.935523178807947	-1.08662251655629	0.695364238410596	-1.46490066225166				0.992953642384106	0.0797880794701987	0.0611390728476822	-1.52609271523179	-3.33218543046358	-3.66596026490066				-0.234172185430464	-0.129271523178808	-0.88794701986755	-1.67258278145695	0.146490066225167	-1.04026490066225				0.272529801324503	-0.0965298013245033	-0.933721854304636	-3.39708609271523	0.7435761589404	0.224370860927152				0.916026490066225	0.0834966887417219	0.341933774834437	0.231788079470198	3.13192052980133	-2.57748344370861				0.0637880794701987	-0.446834437086093	-0.836238410596026	-2.77960264900662	0.997615894039735	-2.43470198675497			
29	680	-0.184158940397351	0.0827549668874172	-0.951523178807947	-1.64662251655629	0.415364238410596	-1.46490066225166				0.976953642384106	0.0957880794701987	0.0451390728476822	-1.52609271523179	-5.29218543046358	-2.26596026490066				-0.234172185430464	-0.113271523178808	-0.88794701986755	-2.51258278145695	0.426490066225167	0.0797350993377501				0.304529801324503	-0.0965298013245033	-0.933721854304636	-3.11708609271523	0.4635761589404	-0.335629139072848				0.932026490066225	0.0834966887417219	0.357933774834437	3.8717880794702	1.73192052980133	-2.85748344370861				0.0477880794701987	-0.462834437086093	-0.836238410596026	0.0203973509933773	1.27761589403974	-2.15470198675497			
30	700	-0.184158940397351	0.0987549668874172	-0.951523178807947	-3.04662251655629	0.135364238410596	-0.904900662251656				0.992953642384106	0.0637880794701987	0.0131390728476822	-4.04609271523179	-2.77218543046358	-3.10596026490066				-0.234172185430464	-0.0972715231788079	-0.88794701986755	-2.23258278145695	0.706490066225167	0.35973509933775				0.288529801324503	-0.0805298013245033	-0.933721854304636	-2.83708609271523	-0.6564238410596	-0.335629139072848				0.932026490066225	0.0834966887417219	0.357933774834437	1.9117880794702	0.891920529801325	-3.41748344370861				0.0477880794701987	-0.462834437086093	-0.852238410596026	-1.93960264900662	1.55761589403974	-1.87470198675497			
31	720	-0.184158940397351	0.0827549668874172	-0.951523178807947	-1.64662251655629	0.415364238410596	-0.904900662251656				0.976953642384106	0.0797880794701987	0.0451390728476822	-7.40609271523179	-2.77218543046358	-4.78596026490066				-0.218172185430464	-0.113271523178808	-0.87194701986755	-1.11258278145695	0.426490066225167	0.0797350993377501				0.256529801324503	-0.0805298013245033	-0.933721854304636	-1.99708609271523	-0.6564238410596	0.504370860927152				0.916026490066225	0.0834966887417219	0.357933774834437	1.6317880794702	-0.228079470198675	-2.57748344370861				0.0477880794701987	-0.462834437086093	-0.852238410596026	-1.93960264900662	0.717615894039735	-1.59470198675497			
32	740	-0.184158940397351	0.0987549668874172	-0.935523178807947	-1.36662251655629	0.415364238410596	-0.624900662251656				0.960953642384106	0.0957880794701987	0.0451390728476822	-6.84609271523179	-3.61218543046358	-5.06596026490066				-0.234172185430464	-0.129271523178808	-0.88794701986755	-2.79258278145695	0.146490066225167	0.35973509933775				0.272529801324503	-0.0805298013245033	-0.933721854304636	-1.71708609271523	-0.0964238410596001	0.224370860927152				0.916026490066225	0.0674966887417219	0.341933774834437	2.7517880794702	0.0519205298013249	-1.73748344370861				0.0637880794701987	-0.462834437086093	-0.852238410596026	-1.37960264900662	0.997615894039735	-1.59470198675497			
33	760	-0.200158940397351	0.0827549668874172	-0.951523178807947	-1.64662251655629	-0.704635761589404	-1.74490066225166				0.992953642384106	0.111788079470199	0.0291390728476822	-4.32609271523179	0.867814569536424	-4.22596026490066				-0.234172185430464	-0.113271523178808	-0.90394701986755	-2.79258278145695	0.146490066225167	-0.20026490066225				0.256529801324503	-0.0805298013245033	-0.917721854304636	-1.15708609271523	-1.2164238410596	-0.0556291390728476				0.916026490066225	0.0834966887417219	0.341933774834437	1.0717880794702	-0.788079470198675	-1.73748344370861				0.0477880794701987	-0.462834437086093	-0.836238410596026	-0.819602649006623	0.717615894039735	-1.87470198675497			
34	780	-0.216158940397351	0.0827549668874172	-0.935523178807947	-0.806622516556291	0.415364238410596	-2.30490066225166				1.00895364238411	0.0957880794701987	0.0291390728476822	-1.24609271523179	0.587814569536424	-3.38596026490066				-0.250172185430464	-0.0972715231788079	-0.90394701986755	-3.63258278145695	0.986490066225167	-0.48026490066225				0.256529801324503	-0.0645298013245033	-0.917721854304636	-1.71708609271523	-0.6564238410596	-0.615629139072848				0.900026490066225	0.0834966887417219	0.341933774834437	0.231788079470198	-0.228079470198675	-0.897483443708608				0.0477880794701987	-0.446834437086093	-0.852238410596026	-1.37960264900662	0.437615894039735	-1.31470198675497			
35	800	-0.200158940397351	0.0827549668874172	-0.951523178807947	-1.64662251655629	1.2553642384106	-0.344900662251656				0.992953642384106	0.0957880794701987	0.0291390728476822	-1.52609271523179	1.42781456953642	-2.82596026490066				-0.250172185430464	-0.0812715231788079	-0.88794701986755	-2.51258278145695	0.426490066225167	0.35973509933775				0.272529801324503	-0.0805298013245033	-0.917721854304636	-0.597086092715232	-0.3764238410596	-1.17562913907285				0.900026490066225	0.0834966887417219	0.357933774834437	-0.0482119205298018	0.891920529801325	-2.01748344370861				0.0477880794701987	-0.446834437086093	-0.852238410596026	0.0203973509933773	-0.122384105960265	-2.15470198675497			
36	820	-0.184158940397351	0.0827549668874172	-0.951523178807947	-0.526622516556291	1.5353642384106	-0.0649006622516557				0.992953642384106	0.127788079470199	0.0611390728476822	-0.686092715231788	-1.93218543046358	-3.66596026490066				-0.234172185430464	-0.0972715231788079	-0.87194701986755	0.00741721854304636	0.986490066225167	1.19973509933775				0.272529801324503	-0.0965298013245033	-0.917721854304636	0.802913907284768	-0.0964238410596001	-1.73562913907285				0.916026490066225	0.0834966887417219	0.341933774834437	-0.328211920529802	1.45192052980132	-1.45748344370861				0.0477880794701987	-0.462834437086093	-0.836238410596026	-0.539602649006623	0.437615894039735	-2.43470198675497			
37	840	-0.184158940397351	0.0827549668874172	-0.919523178807947	0.313377483443709	1.5353642384106	-0.904900662251656				0.992953642384106	0.0957880794701987	0.0131390728476822	1.83390728476821	-5.01218543046358	-3.10596026490066				-0.234172185430464	-0.0972715231788079	-0.90394701986755	0.847417218543046	1.82649006622517	0.63973509933775				0.272529801324503	-0.0805298013245033	-0.933721854304636	-1.71708609271523	-0.9364238410596	-1.45562913907285				0.916026490066225	0.0834966887417219	0.341933774834437	1.3517880794702	-0.228079470198675	0.222516556291392				0.0477880794701987	-0.446834437086093	-0.852238410596026	-1.37960264900662	-0.402384105960265	-1.31470198675497			
38	860	-0.168158940397351	0.0827549668874172	-0.935523178807947	-0.806622516556291	0.135364238410596	-1.18490066225166				0.960953642384106	0.0957880794701987	0.0291390728476822	-1.80609271523179	0.0278145695364242	-2.82596026490066				-0.234172185430464	-0.113271523178808	-0.88794701986755	0.287417218543046	-0.133509933774833	-0.20026490066225				0.272529801324503	-0.0805298013245033	-0.933721854304636	-1.43708609271523	-1.4964238410596	-0.895629139072848				0.900026490066225	0.0994966887417219	0.341933774834437	2.4717880794702	0.0519205298013249	-1.73748344370861				0.0477880794701987	-0.446834437086093	-0.836238410596026	-1.93960264900662	-0.402384105960265	-1.03470198675497			
39	880	-0.200158940397351	0.0827549668874172	-0.983523178807947	-1.92662251655629	-0.984635761589404	-0.904900662251656				0.960953642384106	0.0957880794701987	0.0451390728476822	-2.36609271523179	2.82781456953642	-1.42596026490066				-0.218172185430464	-0.0972715231788079	-0.88794701986755	0.567417218543046	0.706490066225167	-0.48026490066225				0.272529801324503	-0.0805298013245033	-0.933721854304636	-1.71708609271523	0.4635761589404	-0.0556291390728476				0.900026490066225	0.0994966887417219	0.357933774834437	2.7517880794702	0.0519205298013249	-0.617483443708608				0.0477880794701987	-0.430834437086093	-0.836238410596026	-0.539602649006623	-0.122384105960265	-1.31470198675497			
40	900	-0.184158940397351	0.0987549668874172	-0.951523178807947	-1.36662251655629	-0.144635761589404	-0.624900662251656				0.992953642384106	0.127788079470199	0.0771390728476822	-0.966092715231788	7.02781456953642	-1.14596026490066				-0.234172185430464	-0.0972715231788079	-0.85594701986755	-1.39258278145695	-0.693509933774834	-0.20026490066225				0.272529801324503	-0.0645298013245033	-0.917721854304636	-1.71708609271523	-0.3764238410596	-1.17562913907285				0.900026490066225	0.0834966887417219	0.341933774834437	7.7917880794702	0.331920529801325	0.782516556291392				0.0477880794701987	-0.446834437086093	-0.836238410596026	0.580397350993377	0.997615894039735	-1.31470198675497			
41	920	-0.184158940397351	0.0987549668874172	-0.951523178807947	0.873377483443709	0.975364238410596	-0.344900662251656				0.992953642384106	0.0957880794701987	0.0451390728476822	1.55390728476821	3.10781456953642	-0.86596026490066				-0.234172185430464	-0.113271523178808	-0.88794701986755	0.847417218543046	-1.53350993377483	-0.76026490066225				0.272529801324503	-0.0645298013245033	-0.901721854304636	-1.71708609271523	-1.7764238410596	-1.73562913907285				0.884026490066225	0.0834966887417219	0.341933774834437	6.6717880794702	0.891920529801325	-0.0574834437086077				0.0477880794701987	-0.462834437086093	-0.820238410596026	0.860397350993377	1.55761589403974	-1.03470198675497			
42	940	-0.200158940397351	0.0827549668874172	-0.951523178807947	0.593377483443709	0.415364238410596	-1.46490066225166				1.00895364238411	0.0957880794701987	0.0291390728476822	0.713907284768212	0.307814569536424	-2.54596026490066				-0.234172185430464	-0.113271523178808	-0.90394701986755	0.287417218543046	0.146490066225167	-0.48026490066225				0.256529801324503	-0.0645298013245033	-0.917721854304636	-3.39708609271523	-1.4964238410596	-2.29562913907285				0	0	0	0	0	0				0	0	0	0	0	0			
43	1060	-0.200158940397351	0.0827549668874172	-0.951523178807947	-1.08662251655629	-0.704635761589404	-1.46490066225166				0.992953642384106	0.0957880794701987	0.0291390728476822	-1.24609271523179	-0.252185430463576	0.53403973509934				-0.234172185430464	-0.129271523178808	-0.90394701986755	1.68741721854305	0.706490066225167	-0.76026490066225				0	0	0	0	0	0				0.916026490066225	0.0834966887417219	0.373933774834437	-0.0482119205298018	0.891920529801325	-0.0574834437086077				0.0797880794701987	-0.446834437086093	-0.852238410596026	-0.539602649006623	0.157615894039735	0.0852980132450323			
44	1080	-0.200158940397351	0.0827549668874172	-0.967523178807947	0.593377483443709	-0.144635761589404	-1.46490066225166				0.976953642384106	0.0797880794701987	0.0771390728476822	-1.80609271523179	-1.09218543046358	-0.585960264900661				-0.234172185430464	-0.0972715231788079	-0.87194701986755	1.12741721854305	0.986490066225167	-1.60026490066225				0.256529801324503	-0.0645298013245033	-0.917721854304636	0.242913907284768	0.1835761589404	1.34437086092715				0.900026490066225	0.0994966887417219	0.373933774834437	0.511788079470198	1.45192052980132	-0.337483443708608				0.0637880794701987	-0.462834437086093	-0.852238410596026	1.42039735099338	1.55761589403974	-0.474701986754968			
45	1100	-0.200158940397351	0.0827549668874172	-0.951523178807947	0.313377483443709	0.975364238410596	-1.46490066225166				0.976953642384106	0.111788079470199	0.0771390728476822	-0.686092715231788	-1.65218543046358	-1.42596026490066				-0.218172185430464	-0.113271523178808	-0.85594701986755	0.00741721854304636	0.426490066225167	0.0797350993377501				0.272529801324503	-0.0645298013245033	-0.917721854304636	0.802913907284768	0.4635761589404	0.784370860927152				0.916026490066225	0.0994966887417219	0.357933774834437	0.511788079470198	0.611920529801325	0.502516556291392				0.0637880794701987	-0.462834437086093	-0.852238410596026	3.10039735099338	1.27761589403974	-1.31470198675497			
46	1120	-0.200158940397351	0.0987549668874172	-0.951523178807947	0.313377483443709	0.975364238410596	-0.344900662251656				0.992953642384106	0.111788079470199	0.0451390728476822	1.83390728476821	0.307814569536424	0.25403973509934				-0.234172185430464	-0.113271523178808	-0.88794701986755	0.567417218543046	0.146490066225167	0.63973509933775				0.272529801324503	-0.0805298013245033	-0.933721854304636	-0.597086092715232	0.7435761589404	0.784370860927152				0.900026490066225	0.0834966887417219	0.357933774834437	-0.888211920529802	0.331920529801325	1.34251655629139				0.0637880794701987	-0.478834437086093	-0.836238410596026	1.14039735099338	1.55761589403974	-0.474701986754968			
47	1140	-0.184158940397351	0.0987549668874172	-0.935523178807947	0.0333774834437086	0.135364238410596	-0.624900662251656				0.992953642384106	0.0957880794701987	0.0291390728476822	1.83390728476821	-1.65218543046358	0.81403973509934				-0.234172185430464	-0.113271523178808	-0.90394701986755	1.40741721854305	-0.413509933774833	0.0797350993377501				0.272529801324503	-0.0645298013245033	-0.917721854304636	-0.877086092715232	-0.6564238410596	1.62437086092715				0.900026490066225	0.0994966887417219	0.373933774834437	-2.0082119205298	2.29192052980133	1.06251655629139				0.0637880794701987	-0.462834437086093	-0.836238410596026	-1.09960264900662	0.997615894039735	0.925298013245032			
48	1160	-0.200158940397351	0.0827549668874172	-0.951523178807947	-0.806622516556291	-0.144635761589404	-0.904900662251656				0.976953642384106	0.0957880794701987	0.0451390728476822	0.153907284768212	-2.77218543046358	1.09403973509934				-0.234172185430464	-0.113271523178808	-0.90394701986755	1.68741721854305	0.986490066225167	-0.76026490066225				0.272529801324503	-0.0805298013245033	-0.917721854304636	0.242913907284768	0.7435761589404	1.34437086092715				0.916026490066225	0.0994966887417219	0.341933774834437	-0.328211920529802	-0.788079470198675	-0.0574834437086077				0.0637880794701987	-0.446834437086093	-0.836238410596026	-0.819602649006623	0.997615894039735	0.925298013245032			
49	1180	-0.200158940397351	0.0827549668874172	-0.967523178807947	0.593377483443709	-0.424635761589404	-0.624900662251656				0.976953642384106	0.111788079470199	0.0451390728476822	1.27390728476821	-1.09218543046358	1.65403973509934				-0.218172185430464	-0.0972715231788079	-0.87194701986755	-0.552582781456954	1.26649006622517	-0.48026490066225				0.272529801324503	-0.0645298013245033	-0.917721854304636	1.64291390728477	2.1435761589404	1.06437086092715				0.900026490066225	0.0834966887417219	0.373933774834437	-1.4482119205298	0.891920529801325	-0.0574834437086077				0.0797880794701987	-0.430834437086093	-0.836238410596026	2.26039735099338	0.437615894039735	-0.194701986754968			
50	1200	-0.184158940397351	0.0827549668874172	-0.951523178807947	0.0333774834437086	0.415364238410596	-1.46490066225166				0.976953642384106	0.111788079470199	0.0291390728476822	0.153907284768212	-2.21218543046358	1.65403973509934				-0.234172185430464	-0.113271523178808	-0.87194701986755	-1.11258278145695	0.146490066225167	-0.76026490066225				0.272529801324503	-0.0805298013245033	-0.917721854304636	2.20291390728477	0.7435761589404	1.62437086092715				0.884026490066225	0.0834966887417219	0.357933774834437	-0.888211920529802	2.29192052980133	0.502516556291392				0.0637880794701987	-0.462834437086093	-0.836238410596026	3.10039735099338	0.437615894039735	-1.31470198675497			
51	1220	-0.184158940397351	0.0987549668874172	-0.935523178807947	0.0333774834437086	0.695364238410596	-1.46490066225166				0.992953642384106	0.0957880794701987	0.0611390728476822	0.993907284768212	-4.73218543046358	0.53403973509934				-0.234172185430464	-0.113271523178808	-0.87194701986755	0.847417218543046	-1.25350993377483	-0.20026490066225				0.288529801324503	-0.0805298013245033	-0.917721854304636	-0.0370860927152318	0.1835761589404	-0.0556291390728476				0.916026490066225	0.0834966887417219	0.373933774834437	1.0717880794702	-0.228079470198675	0.782516556291392				0.0637880794701987	-0.462834437086093	-0.836238410596026	0.580397350993377	0.157615894039735	-1.03470198675497			
52	1240	-0.200158940397351	0.0827549668874172	-0.951523178807947	0.873377483443709	0.135364238410596	-1.46490066225166				0.992953642384106	0.111788079470199	0.0291390728476822	1.55390728476821	-5.85218543046358	-0.0259602649006601				-0.234172185430464	-0.113271523178808	-0.90394701986755	1.12741721854305	-0.693509933774834	0.0797350993377501				0.288529801324503	-0.0805298013245033	-0.933721854304636	-0.0370860927152318	-2.0564238410596	-0.615629139072848				0.916026490066225	0.0834966887417219	0.357933774834437	2.1917880794702	1.73192052980133	1.90251655629139				0.0637880794701987	-0.462834437086093	-0.852238410596026	0.0203973509933773	-0.682384105960265	-1.03470198675497			
53	1260	-0.184158940397351	0.0827549668874172	-0.951523178807947	0.313377483443709	-0.144635761589404	-0.904900662251656				0.992953642384106	0.111788079470199	0.0451390728476822	2.11390728476821	-1.37218543046358	-0.30596026490066				-0.234172185430464	-0.113271523178808	-0.90394701986755	0.287417218543046	0.706490066225167	0.0797350993377501				0.288529801324503	-0.0805298013245033	-0.933721854304636	-0.317086092715232	-0.3764238410596	-0.615629139072848				0.916026490066225	0.0834966887417219	0.357933774834437	1.6317880794702	0.891920529801325	1.34251655629139				0.0637880794701987	-0.462834437086093	-0.836238410596026	0.580397350993377	-2.08238410596027	-1.59470198675497			
54	1280	-0.184158940397351	0.0827549668874172	-0.951523178807947	-0.246622516556291	0.135364238410596	-1.74490066225166				0.992953642384106	0.0957880794701987	0.0451390728476822	2.39390728476821	-3.05218543046358	1.09403973509934				-0.234172185430464	-0.0972715231788079	-0.88794701986755	0.287417218543046	0.146490066225167	-0.76026490066225				0.272529801324503	-0.0805298013245033	-0.933721854304636	1.08291390728477	1.0235761589404	-0.335629139072848				0.916026490066225	0.0834966887417219	0.373933774834437	2.7517880794702	0.611920529801325	0.782516556291392				0.0637880794701987	-0.462834437086093	-0.820238410596026	0.580397350993377	-1.24238410596026	-1.03470198675497			
55	1300	-0.184158940397351	0.0827549668874172	-0.951523178807947	0.313377483443709	0.415364238410596	-1.46490066225166				0.992953642384106	0.0957880794701987	0.0451390728476822	2.11390728476821	-3.61218543046358	0.81403973509934				-0.218172185430464	-0.113271523178808	-0.87194701986755	0.567417218543046	0.146490066225167	-0.48026490066225				0.272529801324503	-0.0805298013245033	-0.917721854304636	1.92291390728477	1.3035761589404	0.784370860927152				0.916026490066225	0.0674966887417219	0.357933774834437	2.1917880794702	0.0519205298013249	0.502516556291392				0.0797880794701987	-0.462834437086093	-0.836238410596026	-0.259602649006623	-0.682384105960265	-0.754701986754968			
56	1320	-0.184158940397351	0.0987549668874172	-0.951523178807947	0.0333774834437086	0.415364238410596	-0.904900662251656				0.976953642384106	0.111788079470199	0.0291390728476822	0.713907284768212	-3.61218543046358	0.25403973509934				-0.234172185430464	-0.113271523178808	-0.88794701986755	1.12741721854305	-0.133509933774833	-0.20026490066225				0.272529801324503	-0.0805298013245033	-0.933721854304636	2.48291390728477	-0.0964238410596001	0.224370860927152				0.916026490066225	0.0674966887417219	0.357933774834437	1.9117880794702	-0.508079470198675	1.62251655629139				0.0797880794701987	-0.462834437086093	-0.836238410596026	0.580397350993377	-0.122384105960265	-0.194701986754968			
57	1340	-0.200158940397351	0.0827549668874172	-0.951523178807947	0.313377483443709	0.695364238410596	-1.18490066225166				0.992953642384106	0.0957880794701987	0.0291390728476822	1.27390728476821	-2.21218543046358	1.09403973509934				-0.234172185430464	-0.113271523178808	-0.90394701986755	0.00741721854304636	0.146490066225167	-0.76026490066225				0.272529801324503	-0.0805298013245033	-0.933721854304636	-0.0370860927152318	-1.4964238410596	-0.0556291390728476				0.900026490066225	0.0674966887417219	0.357933774834437	1.0717880794702	-0.508079470198675	1.06251655629139				0.0797880794701987	-0.462834437086093	-0.836238410596026	0.300397350993377	-0.682384105960265	-0.474701986754968			
58	1360	-0.200158940397351	0.0827549668874172	-0.951523178807947	0.0333774834437086	0.695364238410596	-0.904900662251656				0.992953642384106	0.0957880794701987	0.0291390728476822	1.27390728476821	0.867814569536424	1.37403973509934				-0.234172185430464	-0.113271523178808	-0.90394701986755	0.567417218543046	0.706490066225167	-1.04026490066225				0.272529801324503	-0.0645298013245033	-0.917721854304636	-0.317086092715232	-1.4964238410596	-0.0556291390728476				0.916026490066225	0.0834966887417219	0.357933774834437	0.231788079470198	0.0519205298013249	0.782516556291392				0.0637880794701987	-0.462834437086093	-0.852238410596026	-0.819602649006623	-1.24238410596026	0.0852980132450323			
59	1380	-0.184158940397351	0.0827549668874172	-0.951523178807947	1.15337748344371	-0.144635761589404	-1.46490066225166				0.992953642384106	0.111788079470199	0.0451390728476822	2.67390728476821	0.307814569536424	1.37403973509934				-0.218172185430464	-0.113271523178808	-0.88794701986755	1.40741721854305	1.26649006622517	-0.76026490066225				0.256529801324503	-0.0805298013245033	-0.933721854304636	1.36291390728477	-0.3764238410596	1.34437086092715				0.900026490066225	0.0994966887417219	0.357933774834437	1.0717880794702	0.891920529801325	0.222516556291392				0.0637880794701987	-0.462834437086093	-0.852238410596026	0.860397350993377	-1.80238410596026	-0.754701986754968			
60	1400	-0.200158940397351	0.0827549668874172	-0.951523178807947	0.0333774834437086	-0.144635761589404	-1.18490066225166				0.976953642384106	0.0957880794701987	0.0291390728476822	2.11390728476821	-3.89218543046358	1.93403973509934				-0.218172185430464	-0.113271523178808	-0.87194701986755	0.00741721854304636	0.706490066225167	-0.20026490066225				0.288529801324503	-0.0805298013245033	-0.933721854304636	1.64291390728477	0.1835761589404	1.62437086092715				0.916026490066225	0.0674966887417219	0.341933774834437	0.791788079470198	-0.508079470198675	0.782516556291392				0.0637880794701987	-0.462834437086093	-0.836238410596026	2.26039735099338	-2.64238410596027	-1.87470198675497			
61	1420	-0.184158940397351	0.0827549668874172	-0.935523178807947	-1.08662251655629	0.135364238410596	-0.344900662251656				0.976953642384106	0.0957880794701987	-0.00286092715231785	1.55390728476821	-2.49218543046358	1.09403973509934				-0.218172185430464	-0.113271523178808	-0.87194701986755	0.287417218543046	-0.973509933774833	-0.20026490066225				0.272529801324503	-0.0805298013245033	-0.917721854304636	1.92291390728477	0.4635761589404	2.46437086092715				0.900026490066225	0.0674966887417219	0.357933774834437	-1.7282119205298	-0.508079470198675	0.782516556291392				0.0637880794701987	-0.462834437086093	-0.836238410596026	-0.259602649006623	-1.52238410596026	-0.194701986754968			
62	1440	-0.184158940397351	0.0827549668874172	-0.951523178807947	-0.806622516556291	-0.984635761589404	-0.0649006622516557				0.992953642384106	0.111788079470199	0.0131390728476822	0.993907284768212	-1.93218543046358	2.21403973509934				-0.234172185430464	-0.0972715231788079	-0.90394701986755	1.68741721854305	-1.53350993377483	-0.76026490066225				0.256529801324503	-0.0805298013245033	-0.933721854304636	3.04291390728477	1.3035761589404	3.30437086092715				0.916026490066225	0.0674966887417219	0.357933774834437	-1.7282119205298	-0.508079470198675	0.782516556291392				0.0477880794701987	-0.462834437086093	-0.836238410596026	-0.539602649006623	-2.08238410596027	0.925298013245032			
63	1460	-0.184158940397351	0.0827549668874172	-0.951523178807947	-1.08662251655629	-0.704635761589404	-0.344900662251656				0.992953642384106	0.111788079470199	0.0131390728476822	2.95390728476821	-1.93218543046358	3.33403973509934				-0.234172185430464	-0.113271523178808	-0.88794701986755	1.40741721854305	-1.25350993377483	-0.76026490066225				0.256529801324503	-0.0805298013245033	-0.933721854304636	1.92291390728477	0.1835761589404	3.58437086092715				0.916026490066225	0.0834966887417219	0.341933774834437	0.511788079470198	-0.788079470198675	1.34251655629139				0.0477880794701987	-0.446834437086093	-0.852238410596026	1.14039735099338	-1.80238410596026	0.645298013245032			
64	1480	-0.184158940397351	0.0827549668874172	-0.935523178807947	-0.246622516556291	-0.704635761589404	-0.904900662251656				1.00895364238411	0.111788079470199	0.0131390728476822	4.91390728476821	-0.812185430463576	4.73403973509934				-0.218172185430464	-0.0972715231788079	-0.88794701986755	1.96741721854305	-0.693509933774834	-1.60026490066225				0.256529801324503	-0.0965298013245033	-0.965721854304636	3.04291390728477	1.5835761589404	3.58437086092715				0.932026490066225	0.0834966887417219	0.341933774834437	-2.5682119205298	0.331920529801325	0.502516556291392				0.0317880794701987	-0.478834437086093	-0.852238410596026	3.66039735099338	-0.682384105960265	-0.194701986754968			
65	1500	-0.184158940397351	0.0827549668874172	-0.951523178807947	-0.806622516556291	-1.5446357615894	0.215099337748344				0.960953642384106	0.0797880794701987	0.0451390728476822	4.91390728476821	2.54781456953642	7.53403973509934				-0.218172185430464	-0.0972715231788079	-0.87194701986755	2.24741721854305	-0.693509933774834	-2.16026490066225				0.240529801324503	-0.0805298013245033	-0.965721854304636	3.04291390728477	2.9835761589404	3.30437086092715				0.964026490066225	0.0674966887417219	0.341933774834437	-1.4482119205298	0.891920529801325	1.34251655629139				0.0317880794701987	-0.494834437086093	-0.868238410596026	1.14039735099338	1.55761589403974	3.16529801324503			
66	1520	-0.200158940397351	0.0827549668874172	-0.951523178807947	-0.526622516556291	-1.8246357615894	-0.344900662251656				0.992953642384106	0.111788079470199	0.0131390728476822	5.47390728476821	0.0278145695364242	7.81403973509934				-0.234172185430464	-0.0972715231788079	-0.87194701986755	0.287417218543046	-1.25350993377483	-1.60026490066225				0.240529801324503	-0.0805298013245033	-0.965721854304636	4.44291390728477	2.1435761589404	3.30437086092715				0.948026490066225	0.0834966887417219	0.325933774834437	-0.608211920529802	-0.228079470198675	1.06251655629139				-0.000211920529801336	-0.478834437086093	-0.868238410596026	-0.259602649006623	2.95761589403974	5.12529801324503			
67	1540	-0.184158940397351	0.0667549668874172	-0.967523178807947	-0.806622516556291	-1.5446357615894	0.775099337748344				1.04095364238411	0.0957880794701987	-0.0508609271523178	2.67390728476821	0.587814569536424	7.53403973509934				-0.234172185430464	-0.0972715231788079	-0.90394701986755	0.287417218543046	-1.81350993377483	-2.44026490066225				0.240529801324503	-0.0965298013245033	-0.981721854304636	4.16291390728477	1.0235761589404	3.02437086092715				0.948026490066225	0.0674966887417219	0.325933774834437	0.231788079470198	0.0519205298013249	1.90251655629139				-0.000211920529801336	-0.462834437086093	-0.868238410596026	2.54039735099338	4.07761589403974	6.52529801324503			
68	1560	-0.184158940397351	0.0507549668874172	-0.951523178807947	-2.76662251655629	-0.984635761589404	1.33509933774834				1.10495364238411	0.143788079470199	-0.0828609271523179	3.79390728476821	-15.3721854304636	2.49403973509934				-0.234172185430464	-0.113271523178808	-0.90394701986755	5.88741721854305	0.146490066225167	-3.56026490066225				0.256529801324503	-0.0805298013245033	-0.965721854304636	0.802913907284768	1.3035761589404	0.784370860927152				1.01202649006623	0.0674966887417219	0.325933774834437	-0.0482119205298018	-1.06807947019868	2.18251655629139				0.0157880794701987	-0.494834437086093	-0.868238410596026	11.7803973509934	13.3176158940397	9.88529801324503			
69	1580	-0.168158940397351	0.0507549668874172	-0.919523178807947	-3.88662251655629	-1.2646357615894	0.775099337748344				1.08895364238411	0.143788079470199	-0.130860927152318	8.55390728476821	-34.9721854304636	1.93403973509934				-0.218172185430464	-0.113271523178808	-0.90394701986755	7.84741721854305	2.66649006622517	-4.96026490066225				0.240529801324503	-0.0805298013245033	-0.965721854304636	4.44291390728477	4.3835761589404	-0.335629139072848				1.02802649006623	0.0994966887417219	0.325933774834437	-3.4082119205298	-2.74807947019868	1.06251655629139				-0.0162119205298013	-0.526834437086093	-0.820238410596026	10.1003973509934	11.6376158940397	11.845298013245			
70	1600	-0.200158940397351	0.0667549668874172	-0.919523178807947	-4.72662251655629	-3.5046357615894	1.05509933774834				1.05695364238411	0.0957880794701987	-0.114860927152318	5.47390728476821	-45.0521854304636	5.29403973509934				-0.250172185430464	-0.113271523178808	-0.85594701986755	7.84741721854305	-0.133509933774833	-5.80026490066225				0.224529801324503	-0.0805298013245033	-0.997721854304636	17.6029139072848	8.0235761589404	-1.73562913907285				1.07602649006623	0.0834966887417219	0.293933774834437	-4.5282119205298	-3.02807947019868	3.02251655629139				-0.0482119205298013	-0.510834437086093	-0.964238410596026	4.78039735099338	29.8376158940397	12.405298013245			
71	1620	-0.216158940397351	0.0827549668874172	-0.935523178807947	-5.84662251655629	-5.7446357615894	2.17509933774834				1.05695364238411	0.111788079470199	-0.162860927152318	2.39390728476821	-53.7321854304636	5.85403973509934				-0.250172185430464	-0.0972715231788079	-0.87194701986755	4.48741721854305	0.426490066225167	-4.68026490066225				0.224529801324503	-0.112529801324503	-1.04572185430464	26.2829139072848	10.5435761589404	-2.01562913907285				1.06002649006623	0.0834966887417219	0.261933774834437	-3.9682119205298	-3.86807947019868	3.58251655629139				-0.0642119205298013	-0.494834437086093	-0.868238410596026	19.6203973509934	31.2376158940397	14.645298013245			
72	1640	-0.248158940397351	0.0827549668874172	-0.951523178807947	-6.96662251655629	-4.0646357615894	2.45509933774835				1.04095364238411	0.127788079470199	-0.194860927152318	0.993907284768212	-50.9321854304636	6.97403973509934				-0.266172185430464	-0.113271523178808	-0.87194701986755	8.96741721854305	-1.81350993377483	-5.52026490066225				0.224529801324503	-0.0805298013245033	-1.06172185430464	28.5229139072848	10.8235761589404	-3.97562913907285				1.07602649006623	0.0834966887417219	0.245933774834437	-2.5682119205298	-5.26807947019868	5.26251655629139				-0.0802119205298013	-0.542834437086093	-0.916238410596027	6.46039735099338	32.9176158940397	12.405298013245			
73	1660	-0.280158940397351	0.0827549668874172	-0.967523178807947	-8.64662251655629	-2.1046357615894	2.45509933774835				1.04095364238411	0.127788079470199	-0.290860927152318	1.27390728476821	-46.7321854304636	7.81403973509934				-0.282172185430464	-0.113271523178808	-0.85594701986755	9.52741721854305	-4.89350993377483	-4.68026490066225				0.208529801324503	-0.0805298013245033	-0.997721854304636	28.2429139072848	4.3835761589404	-7.89562913907285				1.09202649006623	0.0674966887417219	0.197933774834437	-2.8482119205298	-9.74807947019868	8.90251655629139				-0.0962119205298013	-0.558834437086093	-0.932238410596026	0.300397350993377	47.1976158940397	20.525298013245			
74	1680	-0.264158940397351	0.0667549668874172	-0.935523178807947	-11.1666225165563	-0.704635761589404	3.29509933774834				1.08895364238411	0.111788079470199	-0.306860927152318	2.11390728476821	-46.1721854304636	11.1740397350993				-0.266172185430464	-0.129271523178808	-0.90394701986755	15.967417218543	-4.05350993377483	-6.64026490066225				0.208529801324503	-0.112529801324503	-1.04572185430464	29.0829139072848	3.8235761589404	-13.7756291390728				1.07602649006623	0.0514966887417219	0.213933774834437	-2.0082119205298	-13.6680794701987	10.3025165562914				-0.160211920529801	-0.542834437086093	-0.916238410596027	-18.1796026490066	52.7976158940397	26.125298013245			
75	1700	-0.280158940397351	0.0827549668874172	-0.887523178807947	-17.8866225165563	-0.424635761589404	6.09509933774834				1.02495364238411	0.127788079470199	-0.290860927152318	0.713907284768212	-52.8921854304636	11.1740397350993				-0.298172185430464	-0.129271523178808	-0.88794701986755	16.5274172185431	-11.0535099337748	-7.76026490066225				0.224529801324503	-0.160529801324503	-1.02972185430464	28.2429139072848	3.8235761589404	-21.8956291390728				1.06002649006623	0.0674966887417219	0.213933774834437	-3.1282119205298	-14.5080794701987	11.4225165562914				-0.112211920529801	-0.494834437086093	-0.916238410596027	-45.3396026490066	67.0776158940397	35.085298013245			
76	1720	-0.280158940397351	0.0987549668874172	-0.919523178807947	-19.5666225165563	-1.2646357615894	6.93509933774835				0.912953642384106	0.175788079470199	-0.354860927152318	5.75390728476821	-54.8521854304636	6.69403973509934				-0.298172185430464	-0.129271523178808	-0.83994701986755	8.40741721854305	-6.29350993377483	-5.52026490066225				0.192529801324503	-0.144529801324503	-1.01372185430464	12.8429139072848	4.9435761589404	-30.5756291390729				1.09202649006623	0.0834966887417219	0.133933774834437	-10.1282119205298	-15.9080794701987	11.4225165562914				-0.128211920529801	-0.478834437086093	-0.900238410596026	-53.4596026490066	65.3976158940397	48.525298013245			
77	1740	-0.328158940397351	0.146754966887417	-0.951523178807947	-22.9266225165563	-1.2646357615894	6.37509933774834				0.832953642384106	0.175788079470199	-0.354860927152318	13.0339072847682	-31.8921854304636	9.21403973509934				-0.362172185430464	-0.145271523178808	-0.83994701986755	9.52741721854305	-2.37350993377483	-4.96026490066225				0.144529801324503	-0.128529801324503	-0.997721854304636	4.44291390728477	6.0635761589404	-38.4156291390728				1.06002649006623	0.0674966887417219	0.0859337748344371	-8.7282119205298	-21.2280794701987	11.4225165562914				-0.112211920529801	-0.398834437086093	-0.884238410596026	-52.6196026490066	68.4776158940397	51.885298013245			
78	1760	-0.312158940397351	0.178754966887417	-0.903523178807947	-26.2866225165563	0.695364238410596	8.61509933774835				0.848953642384106	0.143788079470199	-0.338860927152318	10.5139072847682	0.0278145695364242	22.0940397350993				-0.362172185430464	-0.113271523178808	-0.90394701986755	7.28741721854305	-0.693509933774834	-3.84026490066225				0.0805298013245033	-0.144529801324503	-0.949721854304636	8.36291390728477	9.1435761589404	-46.5356291390729				0.964026490066225	0.0834966887417219	0.0699337748344371	3.8717880794702	-25.1480794701987	13.6625165562914				-0.0482119205298013	-0.254834437086093	-0.852238410596026	-51.7796026490066	62.5976158940397	54.965298013245			
79	1780	-0.296158940397351	0.146754966887417	-0.935523178807947	-25.1666225165563	2.9353642384106	7.77509933774834				0.912953642384106	0.0797880794701987	-0.274860927152318	12.7539072847682	23.2678145695364	19.5740397350993				-0.298172185430464	-0.145271523178808	-0.90394701986755	14.007417218543	2.66649006622517	-3.28026490066225				0.0645298013245033	-0.160529801324503	-0.933721854304636	11.4429139072848	15.8635761589404	-51.2956291390729				0.916026490066225	0.0194966887417219	0.0699337748344371	9.1917880794702	-15.9080794701987	11.9825165562914				-0.0322119205298013	-0.222834437086093	-0.900238410596026	-20.9796026490066	47.4776158940397	56.085298013245			
80	1800	-0.280158940397351	0.130754966887417	-0.983523178807947	-19.5666225165563	6.2953642384106	7.21509933774835				0.960953642384106	0.0637880794701987	-0.194860927152318	15.2739072847682	42.0278145695364	21.2540397350993				-0.314172185430464	-0.161271523178808	-0.88794701986755	13.447417218543	-6.29350993377483	-4.12026490066225				0.0805298013245033	-0.160529801324503	-0.885721854304636	14.2429139072848	22.8635761589404	-52.6956291390729				0.932026490066225	0.00349668874172187	0.117933774834437	18.1517880794702	-13.9480794701987	11.4225165562914				-0.0322119205298013	-0.270834437086093	-0.884238410596026	3.94039735099338	41.5976158940397	54.685298013245			
81	1820	-0.328158940397351	0.162754966887417	-0.903523178807947	-28.8066225165563	0.135364238410596	7.49509933774834				0.896953642384106	-0.000211920529801304	-0.226860927152318	-1.52609271523179	53.2278145695364	15.9340397350993				-0.330172185430464	-0.113271523178808	-0.85594701986755	15.687417218543	3.50649006622517	-6.36026490066225				0.208529801324503	-0.176529801324503	-0.869721854304636	27.6829139072848	34.9035761589404	-51.0156291390729				0.964026490066225	-0.0445033112582781	0.197933774834437	20.1117880794702	-14.7880794701987	11.9825165562914				0.0317880794701987	-0.318834437086093	-0.884238410596026	10.6603973509934	45.7976158940397	49.365298013245			
82	1840	-0.280158940397351	0.178754966887417	-0.903523178807947	-22.0866225165563	10.2153642384106	4.41509933774834				0.832953642384106	0.0477880794701987	-0.0668609271523178	-2.64609271523179	75.9078145695364	19.5740397350993				-0.330172185430464	-0.129271523178808	-0.87194701986755	22.127417218543	8.26649006622517	-6.36026490066225				0.352529801324503	-0.240529801324503	-0.853721854304636	38.6029139072848	36.3035761589404	-42.6156291390729				0.932026490066225	0.00349668874172187	0.213933774834437	11.1517880794702	-22.9080794701987	10.8625165562914				0.0637880794701987	-0.286834437086093	-0.820238410596026	3.38039735099338	54.4776158940397	38.725298013245			
83	1860	-0.200158940397351	0.242754966887417	-0.983523178807947	-27.9666225165563	8.8153642384106	6.65509933774834				0.944953642384106	0.0637880794701987	-0.0988609271523179	12.7539072847682	83.4678145695364	21.2540397350993				-0.298172185430464	-0.161271523178808	-0.93594701986755	19.0474172185431	11.3464900662252	-3.56026490066225				0.432529801324503	-0.256529801324503	-0.821721854304636	38.0429139072848	36.3035761589404	-30.8556291390729				0.884026490066225	0.0194966887417219	0.213933774834437	17.5917880794702	-35.2280794701987	10.8625165562914				0.0477880794701987	-0.270834437086093	-0.772238410596026	-4.73960264900662	61.1976158940397	37.045298013245			
84	1880	-0.136158940397351	0.242754966887417	-0.983523178807947	-23.4866225165563	9.6553642384106	7.49509933774834				0.992953642384106	0.0317880794701987	-0.114860927152318	15.8339072847682	81.7878145695364	20.6940397350993				-0.250172185430464	-0.145271523178808	-0.93594701986755	26.607417218543	13.5864900662252	-5.24026490066225				0.560529801324503	-0.208529801324503	-0.805721854304636	33.0029139072848	28.7435761589404	-19.3756291390728				0.900026490066225	0.0354966887417219	0.229933774834437	21.7917880794702	-39.9880794701987	9.46251655629139				0.0477880794701987	-0.302834437086093	-0.772238410596026	-6.69960264900662	67.6376158940397	34.525298013245			
85	1900	-0.152158940397351	0.242754966887417	-0.903523178807947	-9.20662251655629	14.4153642384106	5.81509933774834				1.00895364238411	0.0797880794701987	-0.0508609271523178	5.75390728476821	81.5078145695364	19.2940397350993				-0.234172185430464	-0.145271523178808	-0.83994701986755	32.7674172185431	12.1864900662252	-6.36026490066225				0.592529801324503	-0.160529801324503	-0.933721854304636	32.1629139072848	10.2635761589404	-10.4156291390728				0.948026490066225	0.0834966887417219	0.277933774834437	29.9117880794702	-48.3880794701987	6.66251655629139				0.143788079470199	-0.350834437086093	-0.772238410596026	-4.45960264900662	66.5176158940397	30.045298013245			
86	1920	-0.184158940397351	0.194754966887417	-0.919523178807947	-11.4466225165563	13.8553642384106	5.53509933774834				0.912953642384106	0.0477880794701987	0.0131390728476822	6.87390728476821	76.4678145695364	22.0940397350993				-0.266172185430464	-0.193271523178808	-0.91994701986755	23.247417218543	10.2264900662252	-7.48026490066225				0.416529801324503	-0.144529801324503	-1.01372185430464	45.6029139072848	22.3035761589404	-10.6956291390728				0.996026490066225	0.0994966887417219	0.325933774834437	33.5517880794702	-62.6680794701987	4.70251655629139				0.191788079470199	-0.398834437086093	-0.804238410596027	-2.21960264900662	72.6776158940397	25.285298013245			
87	1940	-0.200158940397351	0.226754966887417	-0.983523178807947	-15.0866225165563	13.8553642384106	6.65509933774834				0.944953642384106	0.0477880794701987	0.0611390728476822	9.95390728476821	81.5078145695364	23.7740397350993				-0.234172185430464	-0.161271523178808	-0.93594701986755	22.967417218543	6.58649006622517	-10.0002649006623				0	0	0	0	0	0				0	0	0	0	0	0				0	0	0	0	0	0			
88	1960	-0.200158940397351	0.258754966887417	-0.903523178807947	-17.6066225165563	14.1353642384106	6.93509933774835				0.928953642384106	0.0477880794701987	0.269139072847682	6.31390728476821	90.1878145695364	19.2940397350993				-0.234172185430464	-0.177271523178808	-0.93594701986755	29.6874172185431	10.2264900662252	-12.2402649006623				0	0	0	0	0	0				0	0	0	0	0	0				0	0	0	0	0	0			
89	1980	-0.200158940397351	0.290754966887417	-1.01552317880795	-9.48662251655629	21.6953642384106	8.61509933774835				0.928953642384106	-0.000211920529801304	0.221139072847682	16.1139072847682	74.2278145695364	18.4540397350993				0	0	0	0	0	0				0	0	0	0	0	0				0	0	0	0	0	0				0	0	0	0	0	0			
90	2060	0	0	0	0	0	0				0	0	0	0	0	0				0	0	0	0	0	0				0	0	0	0	0	0				1.15602649006623	-0.0605033112582781	0.421933774834437	52.3117880794702	33.3719205298013	-7.33748344370861				0	0	0	0	0	0			
91	2080	-0.232158940397351	0.274754966887417	-1.03152317880795	-12.5666225165563	48.0153642384106	15.3350993377483				1.34495364238411	-0.240211920529801	0.621139072847682	13.5939072847682	51.2678145695364	5.85403973509934				-0.218172185430464	-0.401271523178808	-0.93594701986755	-3.35258278145695	39.0664900662252	-18.1202649006623				1.0885298013245	-0.400529801324503	-0.885721854304636	79.4829139072848	62.6235761589404	-32.8156291390729				1.18802649006623	0.195496688741722	0.677933774834437	44.4717880794702	33.3719205298013	-16.5774834437086				0.479788079470199	-0.590834437086093	-0.740238410596026	8.42039735099338	20.5976158940397	37.885298013245			
92	2100	-0.200158940397351	0.306754966887417	-1.06352317880795	0.0333774834437086	53.6153642384106	15.6150993377483				1.28095364238411	-0.0802119205298013	0.701139072847682	3.79390728476821	24.6678145695364	-0.0259602649006601				-0.170172185430464	-0.465271523178808	-0.93594701986755	-17.632582781457	42.7064900662252	-13.0802649006623				0.848529801324503	-0.496529801324503	-1.02972185430464	21.2429139072848	65.1435761589404	-33.9356291390729				1.06002649006623	0.259496688741722	0.533933774834437	31.0317880794702	15.7319205298013	-6.77748344370861				0.495788079470199	-0.702834437086093	-0.692238410596026	3.66039735099338	26.7576158940397	24.725298013245			
93	2120	-0.056158940397351	0.306754966887417	-1.03152317880795	3.95337748344371	58.0953642384106	15.6150993377483				1.28095364238411	-0.0322119205298013	0.669139072847682	3.51390728476821	17.1078145695364	-2.26596026490066				-0.0261721854304636	-0.433271523178808	-0.95194701986755	-34.432582781457	53.0664900662252	-5.52026490066225				0.384529801324503	-0.336529801324503	-1.04572185430464	-20.4770860927152	62.3435761589404	-48.2156291390729				1.17202649006623	0.0194966887417219	0.309933774834437	24.8717880794702	31.1319205298013	-10.4174834437086				0.639788079470199	-0.814834437086093	-0.644238410596026	2.82039735099338	40.4776158940397	0.365298013245032			
94	2140	0.039841059602649	0.322754966887417	-1.06352317880795	5.91337748344371	67.8953642384106	19.5350993377483				1.32895364238411	-0.0322119205298013	0.525139072847682	12.1939072847682	-1.93218543046358	-9.26596026490066				0.00582781456953642	-0.257271523178808	-0.95194701986755	-45.352582781457	57.8264900662252	1.19973509933775				0.480529801324503	-0.224529801324503	-1.01372185430464	-16.8370860927152	59.5435761589404	-49.3356291390729				1.25202649006623	-0.0125033112582781	0.437933774834437	18.1517880794702	40.6519205298013	-10.9774834437086				0.751788079470199	-0.942834437086093	-0.660238410596027	26.9003973509934	49.9976158940397	-15.594701986755			
95	2160	0.119841059602649	0.274754966887417	-1.09552317880795	9.27337748344371	72.3753642384106	15.3350993377483				1.18495364238411	-0.288211920529801	0.493139072847682	16.3939072847682	-20.6921854304636	-5.34596026490066				0.0218278145695364	-0.225271523178808	-1.03194701986755	-37.512582781457	64.2664900662252	1.47973509933775				0.480529801324503	-0.240529801324503	-0.917721854304636	4.44291390728477	57.5835761589404	-42.3356291390729				1.23602649006623	-0.0125033112582781	0.373933774834437	-16.5682119205298	30.5719205298013	-10.9774834437086				0.671788079470199	-0.942834437086093	-0.708238410596026	28.5803973509934	51.6776158940397	-21.754701986755			
96	2180	0.183841059602649	0.338754966887417	-1.07952317880795	10.3933774834437	82.1753642384106	8.05509933774835				1.13695364238411	-0.208211920529801	0.365139072847682	2.39390728476821	-13.9721854304636	-5.06596026490066				0.117827814569536	-0.241271523178808	-1.09594701986755	-26.872582781457	74.0664900662252	-6.36026490066225				0.592529801324503	-0.304529801324503	-0.917721854304636	-11.7970860927152	50.0235761589404	-36.1756291390729				1.26802649006623	0.0194966887417219	0.373933774834437	-29.7282119205298	26.3719205298013	-8.45748344370861				0.607788079470199	-0.782834437086093	-0.756238410596026	33.6203973509934	58.3976158940397	-20.074701986755			
97	2200	0.263841059602649	0.274754966887417	-1.15952317880795	10.9533774834437	90.8553642384106	5.25509933774834				1.28095364238411	-0.0482119205298013	0.413139072847682	-8.52609271523179	3.38781456953642	-1.98596026490066				0.133827814569536	-0.209271523178808	-1.04794701986755	-16.232582781457	82.7464900662252	-13.9202649006623				0.720529801324503	-0.432529801324503	-0.917721854304636	4.44291390728477	67.6635761589404	-4.25562913907285				1.31602649006623	0.115496688741722	0.373933774834437	-40.6482119205298	18.5319205298013	-5.09748344370861				0.559788079470199	-0.750834437086093	-0.740238410596026	60.7803973509934	76.8776158940397	-26.234701986755			
98	2220	0.279841059602649	0.242754966887417	-1.09552317880795	13.1933774834437	100.095364238411	4.69509933774834				1.32895364238411	0.0477880794701987	0.397139072847682	-6.28609271523179	-5.57218543046358	-1.70596026490066				0.0698278145695364	-0.209271523178808	-1.09594701986755	-6.15258278145695	94.5064900662252	-18.9602649006623				0.976529801324503	-0.304529801324503	-0.901721854304636	-29.9970860927152	78.3035761589404	-7.89562913907285				1.31602649006623	0.211496688741722	0.309933774834437	-43.4482119205298	20.2119205298013	-3.41748344370861				0.639788079470199	-0.830834437086093	-0.660238410596027	45.3803973509934	137.91761589404	-36.874701986755			
99	2240	0.183841059602649	0.274754966887417	-1.07952317880795	9.27337748344371	108.215364238411	6.65509933774834				1.45695364238411	-0.0482119205298013	0.429139072847682	10.5139072847682	-19.0121854304636	-0.86596026490066				0.0698278145695364	-0.241271523178808	-1.04794701986755	-0.272582781456954	103.466490066225	-22.3202649006623				1.0085298013245	-0.112529801324503	-0.885721854304636	-28.0370860927152	79.7035761589404	-4.53562913907285				1.30002649006623	0.227496688741722	0.341933774834437	-38.1282119205298	27.7719205298013	-1.45748344370861				0.767788079470199	-0.766834437086093	-0.692238410596026	-16.7796026490066	124.75761589404	-30.714701986755			
100	2260	0.103841059602649	0.258754966887417	-1.09552317880795	15.9933774834437	116.055364238411	6.37509933774834				1.47295364238411	-0.0162119205298013	0.445139072847682	-9.36609271523179	-14.5321854304636	8.37403973509934				0.0698278145695364	-0.337271523178808	-0.99994701986755	3.36741721854305	117.186490066225	-26.8002649006623				0.960529801324503	-0.208529801324503	-0.869721854304636	22.3629139072848	97.3435761589404	13.9443708609272				1.26802649006623	0.211496688741722	0.421933774834437	-22.7282119205298	26.0919205298013	1.34251655629139				0.815788079470199	-0.638834437086093	-0.772238410596026	9.82039735099338	118.03761589404	-28.754701986755			
101	2280	0.135841059602649	0.290754966887417	-1.01552317880795	30.8333774834437	122.215364238411	6.37509933774834				1.34495364238411	0.0957880794701987	0.381139072847682	-13.0060927152318	-29.9321854304636	6.69403973509934				0.165827814569536	-0.289271523178808	-1.01594701986755	-5.59258278145695	126.706490066225	-26.2402649006623				0.992529801324503	-0.352529801324503	-0.805721854304636	24.0429139072848	104.62357615894	17.5843708609272				1.23602649006623	0.131496688741722	0.421933774834437	-30.8482119205298	14.3319205298013	2.46251655629139				0.799788079470199	-0.702834437086093	-0.708238410596026	21.8603973509934	135.11761589404	-40.234701986755			
102	2300	0.247841059602649	0.274754966887417	-0.983523178807947	30.8333774834437	130.895364238411	7.49509933774834				1.20095364238411	0.111788079470199	0.237139072847682	6.59390728476821	-44.4921854304636	-3.94596026490066				0.197827814569536	-0.257271523178808	-0.95194701986755	-17.632582781457	130.346490066225	-20.6402649006623				0.928529801324503	-0.448529801324503	-0.821721854304636	4.16291390728477	103.78357615894	11.9843708609272				1.25202649006623	0.115496688741722	0.261933774834437	-42.3282119205298	7.61192052980133	-1.45748344370861				0.783788079470199	-0.510834437086093	-0.628238410596026	-54.5796026490066	146.87761589404	-57.314701986755			
103	2320	0.311841059602649	0.210754966887417	-0.983523178807947	32.7933774834437	134.815364238411	9.45509933774835				1.21695364238411	0.0797880794701987	0.205139072847682	12.1939072847682	-30.2121854304636	-10.1059602649007				0.213827814569536	-0.193271523178808	-0.91994701986755	-17.072582781457	134.826490066225	-14.4802649006623				0.880529801324503	-0.448529801324503	-0.789721854304636	-4.23708609271523	108.54357615894	11.4243708609272				1.18802649006623	0.0994966887417219	0.197933774834437	-41.7682119205298	3.41192052980132	-5.09748344370861				0.831788079470199	-0.254834437086093	-0.836238410596026	-57.9396026490066	162.27761589404	-62.634701986755			
104	2340	0.375841059602649	0.162754966887417	-0.887523178807947	35.3133774834437	139.295364238411	4.69509933774834				1.20095364238411	-0.0802119205298013	0.0291390728476822	7.43390728476821	-27.9721854304636	2.49403973509934				0.245827814569536	-0.0972715231788079	-0.82394701986755	-17.352582781457	138.186490066225	-13.0802649006623				0.832529801324503	-0.320529801324503	-0.709721854304636	-5.07708609271523	109.66357615894	8.90437086092715				1.12402649006623	0.0674966887417219	0.165933774834437	-35.0482119205298	5.37192052980133	-8.45748344370861				0.831788079470199	-0.206834437086093	-0.852238410596026	2.54039735099338	129.79761589404	-81.394701986755			
105	2360	0.247841059602649	0.0347549668874172	-0.871523178807947	28.0333774834437	139.295364238411	5.25509933774834				1.04095364238411	-0.0642119205298013	-0.0668609271523178	-17.4860927152318	-33.0121854304636	5.01403973509934				0.229827814569536	-0.0492715231788079	-0.79194701986755	-13.712582781457	136.786490066225	-17.2802649006623				0.768529801324503	-0.256529801324503	-0.645721854304636	13.4029139072848	109.10357615894	13.6643708609272				1.06002649006623	0.0194966887417219	0.0859337748344371	-30.5682119205298	-10.8680794701987	-3.97748344370861				0.751788079470199	-0.254834437086093	-0.820238410596026	7.02039735099338	118.59761589404	-98.474701986755			
106	2380	0.151841059602649	-0.0772450331125828	-0.823523178807947	6.47337748344371	139.855364238411	11.9750993377483				0.912953642384106	0.0957880794701987	-0.114860927152318	-24.2060927152318	-29.3721854304636	-2.54596026490066				0.213827814569536	-0.00127152317880793	-0.82394701986755	-6.15258278145695	132.866490066225	-22.0402649006623				0.768529801324503	-0.368529801324503	-0.549721854304636	29.6429139072848	100.42357615894	25.1443708609272				0.980026490066225	0.0514966887417219	0.0539337748344371	-26.0882119205298	-24.8680794701987	-0.617483443708608				0.751788079470199	-0.318834437086093	-0.868238410596026	13.1803973509934	96.7576158940397	-107.434701986755			
107	2400	0.247841059602649	-0.0612450331125828	-0.711523178807947	5.91337748344371	143.775364238411	18.1350993377483				0.832953642384106	0.159788079470199	-0.0348609271523178	13.8739072847682	-17.3321854304636	-4.50596026490066				0.197827814569536	-0.0972715231788079	-0.77594701986755	-4.47258278145695	132.306490066225	-17.5602649006623				0.736529801324503	-0.384529801324503	-0.533721854304636	22.3629139072848	77.7435761589404	24.3043708609272				0.836026490066225	0.131496688741722	0.0219337748344371	-24.9682119205298	-27.1080794701987	-2.85748344370861				0.735788079470199	-0.318834437086093	-0.884238410596026	9.26039735099338	65.9576158940397	-101.274701986755			
108	2420	0.439841059602649	0.0667549668874172	-0.663523178807947	10.9533774834437	144.335364238411	20.9350993377483				0.800953642384106	0.0637880794701987	-0.0508609271523178	24.5139072847682	-18.1721854304636	-1.14596026490066				0.293827814569536	-0.129271523178808	-0.75994701986755	-18.192582781457	137.066490066225	-12.2402649006623				0.768529801324503	-0.304529801324503	-0.533721854304636	12.2829139072848	60.6635761589404	15.9043708609272				0.740026490066225	0.163496688741722	0.0219337748344371	-11.8082119205298	-13.3880794701987	-3.13748344370861				0.671788079470199	-0.334834437086093	-0.836238410596026	-20.6996026490066	51.9576158940397	-84.754701986755			
109	2440	0.519841059602649	0.0827549668874172	-0.647523178807947	13.1933774834437	143.495364238411	24.8550993377483				0.816953642384106	-0.000211920529801304	0.0291390728476822	6.31390728476821	-5.29218543046358	-5.90596026490066				0.389827814569536	-0.0172715231788079	-0.67994701986755	-26.312582781457	139.306490066225	-10.2802649006622				0.896529801324503	-0.192529801324503	-0.469721854304636	8.36291390728477	45.8235761589404	9.74437086092715				0.820026490066225	0.0674966887417219	0.0859337748344371	14.2317880794702	-3.86807947019868	-3.41748344370861				0.559788079470199	-0.270834437086093	-0.772238410596026	-50.0996026490066	27.8776158940397	-59.274701986755			
110	2460	0.487841059602649	0.0667549668874172	-0.695523178807947	22.4333774834437	138.175364238411	34.9350993377483				0.832953642384106	0.175788079470199	0.125139072847682	-12.1660927152318	1.42781456953642	4.17403973509934				0.453827814569536	0.0947284768211921	-0.58394701986755	-15.952582781457	145.746490066225	-13.9202649006623				0.992529801324503	-0.144529801324503	-0.373721854304636	12.8429139072848	18.9435761589404	4.14437086092715				0.852026490066225	0.179496688741722	0.149933774834437	6.6717880794702	-20.6680794701987	-6.49748344370861				0.543788079470199	-0.238834437086093	-0.724238410596026	-52.8996026490066	-0.962384105960265	-36.314701986755			
111	2480	0.455841059602649	0.0187549668874172	-0.695523178807947	4.79337748344371	141.815364238411	38.8550993377483				0.752953642384106	0.367788079470199	-0.0348609271523178	-1.80609271523179	-34.1321854304636	-11.7859602649007				0.453827814569536	0.110728476821192	-0.53594701986755	8.40741721854305	141.826490066225	-19.5202649006623				0.944529801324503	-0.0965298013245033	-0.437721854304636	20.6829139072848	-18.8564238410596	-2.57562913907285				0.820026490066225	0.227496688741722	0.117933774834437	9.4717880794702	-37.1880794701987	-10.1374834437086				0.575788079470199	-0.222834437086093	-0.676238410596026	-41.6996026490066	-29.5223841059603	-21.194701986755			
112	2500	0.503841059602649	0.0507549668874172	-0.599523178807947	-3.32662251655629	149.655364238411	40.2550993377484				0.736953642384106	0.0477880794701987	-0.146860927152318	15.5539072847682	-26.5721854304636	-8.98596026490066				0.469827814569536	0.0307284768211921	-0.59994701986755	14.287417218543	141.266490066225	-21.2002649006623				0.784529801324503	-0.144529801324503	-0.437721854304636	21.2429139072848	-44.6164238410596	-10.4156291390728				0.756026490066225	0.195496688741722	0.117933774834437	27.1117880794702	-43.9080794701987	-8.73748344370861				0.591788079470199	-0.206834437086093	-0.644238410596026	-24.6196026490066	-50.8023841059603	-9.43470198675497			
113	2520	0.647841059602649	0.114754966887417	-0.519523178807947	-3.32662251655629	151.615364238411	36.3350993377484				0.768953642384106	-0.192211920529801	-0.0668609271523178	4.63390728476821	-8.37218543046358	-1.98596026490066				0.661827814569536	-0.0972715231788079	-0.58394701986755	-2.51258278145695	141.546490066225	-12.5202649006623				0.768529801324503	-0.384529801324503	-0.309721854304636	6.96291390728477	-68.9764238410596	-25.2556291390729				0.772026490066225	0.0514966887417219	0.0859337748344371	47.8317880794702	-34.6680794701987	-8.73748344370861				0.591788079470199	-0.158834437086093	-0.548238410596027	-6.69960264900662	-70.4023841059603	-0.754701986754968			
114	2540	0.759841059602649	0.114754966887417	-0.487523178807947	-1.36662251655629	156.655364238411	34.0950993377484				0.896953642384106	-0.000211920529801304	0.189139072847682	-21.4060927152318	-2.49218543046358	-3.94596026490066				0.805827814569536	-0.241271523178808	-0.61594701986755	-32.752582781457	133.986490066225	-1.32026490066225				0.640529801324503	-0.288529801324503	-0.261721854304636	-15.7170860927152	-82.4164238410596	-31.1356291390729				0.788026490066225	-0.0125033112582781	0.197933774834437	48.6717880794702	-27.3880794701987	-8.17748344370861				0.639788079470199	-0.190834437086093	-0.500238410596026	19.9003973509934	-86.6423841059603	2.60529801324503			
115	2560	0.775841059602649	0.00275496688741723	-0.375523178807947	-1.08662251655629	157.775364238411	33.8150993377484				0.880953642384106	0.223788079470199	0.173139072847682	-6.28609271523179	-31.8921854304636	-15.7059602649007				0.709827814569536	-0.225271523178808	-0.55194701986755	-38.912582781457	125.306490066225	2.03973509933775				0.464529801324503	-0.0805298013245033	-0.149721854304636	-18.5170860927152	-81.2964238410596	-25.8156291390729				0.756026490066225	0.0514966887417219	0.133933774834437	20.3917880794702	-45.0280794701987	-6.49748344370861				0.735788079470199	-0.270834437086093	-0.452238410596026	29.7003973509934	-90.2823841059603	-9.15470198675497			
116	2580	0.759841059602649	-0.0452450331125828	-0.407523178807947	-5.84662251655629	156.655364238411	29.0550993377483				0.768953642384106	0.0637880794701987	-0.0668609271523178	32.3539072847682	-59.3321854304636	-22.1459602649007				0.597827814569536	-0.0332715231788079	-0.40794701986755	-24.072582781457	133.986490066225	-3.84026490066225				0.400529801324503	0.0154701986754967	-0.213721854304636	21.2429139072848	-72.3364238410596	-20.7756291390729				0.772026490066225	0.0994966887417219	0.0379337748344371	16.7517880794702	-54.8280794701987	-2.01748344370861				0.815788079470199	-0.302834437086093	-0.452238410596026	16.8203973509934	-91.4023841059603	-24.554701986755			
117	2600	0.695841059602649	0.0507549668874172	-0.327523178807947	-5.28662251655629	154.975364238411	27.3750993377483				0.720953642384106	-0.208211920529801	0.0131390728476822	42.1539072847682	-41.9721854304636	-21.8659602649007				0.597827814569536	0.0787284768211921	-0.39194701986755	-4.75258278145695	135.666490066225	-8.60026490066225				0.416529801324503	-0.0805298013245033	-0.309721854304636	56.8029139072848	-63.6564238410596	-16.0156291390729				0.740026490066225	0.0194966887417219	0.0539337748344371	34.6717880794702	-52.0280794701987	7.78251655629139				0.751788079470199	-0.318834437086093	-0.420238410596026	12.3403973509934	-91.6823841059603	-32.114701986755			
118	2620	0.711841059602649	0.114754966887417	-0.263523178807947	-14.8066225165563	161.975364238411	29.6150993377483				0.672953642384106	-0.192211920529801	0.221139072847682	29.2739072847682	-28.5321854304636	-20.4659602649007				0.629827814569536	-0.00127152317880793	-0.42394701986755	11.767417218543	132.866490066225	-12.8002649006623				0.432529801324503	-0.192529801324503	-0.421721854304636	63.5229139072848	-70.3764238410596	-6.49562913907285				0.628026490066225	0.00349668874172187	0.165933774834437	33.8317880794702	-52.8680794701987	19.8225165562914				0.671788079470199	-0.302834437086093	-0.388238410596026	-9.77960264900662	-91.6823841059603	-26.234701986755			
119	2640	0.871841059602649	0.162754966887417	-0.199523178807947	33.9133774834437	161.135364238411	13.3750993377483				0.608953642384106	-0.0482119205298013	0.141139072847682	43.2739072847682	-23.4921854304636	-15.1459602649007				0.677827814569536	-0.113271523178808	-0.43994701986755	15.407417218543	123.346490066225	-14.7602649006622				0.480529801324503	-0.304529801324503	-0.437721854304636	51.7629139072848	-87.1764238410596	9.46437086092715				0.548026490066225	0.0354966887417219	0.181933774834437	26.8317880794702	-53.9880794701987	25.4225165562914				0.655788079470199	-0.254834437086093	-0.452238410596026	-28.5396026490066	-86.9223841059603	-17.834701986755			
120	2660	0.919841059602649	0.322754966887417	-0.391523178807947	36.4333774834437	143.775364238411	-7.34490066225166				0.592953642384106	-0.0802119205298013	0.0291390728476822	25.6339072847682	-14.5321854304636	-20.1859602649007				0.741827814569536	-0.145271523178808	-0.43994701986755	-5.03258278145695	119.146490066225	-10.5602649006623				0.480529801324503	-0.256529801324503	-0.389721854304636	27.9629139072848	-102.85642384106	20.3843708609272				0.548026490066225	0.0834966887417219	0.149933774834437	18.1517880794702	-48.3880794701987	26.5425165562914				0.687788079470199	-0.222834437086093	-0.484238410596026	-17.3396026490066	-93.3623841059603	-15.874701986755			
121	2680	0.935841059602649	0.514754966887417	-0.407523178807947	43.9933774834437	133.975364238411	-30.0249006622517				0.608953642384106	-0.0322119205298013	0.0451390728476822	2.11390728476821	-25.4521854304636	-12.0659602649007				0.725827814569536	-0.177271523178808	-0.37594701986755	-17.352582781457	113.266490066225	-8.04026490066225				0.480529801324503	-0.192529801324503	-0.373721854304636	6.40291390728477	-103.69642384106	27.9443708609272				0.564026490066225	0.0994966887417219	0.0859337748344371	17.8717880794702	-43.3480794701987	29.6225165562914				0.559788079470199	-0.190834437086093	-0.404238410596026	22.7003973509934	-111.84238410596	-7.75470198675497			
122	2700	0.663841059602649	-0.0452450331125828	-0.471523178807947	75.9133774834437	98.1353642384106	-13.5049006622517				0.592953642384106	0.175788079470199	0.205139072847682	-27.0060927152318	-17.3321854304636	-8.70596026490066				0.645827814569536	-0.193271523178808	-0.35994701986755	-24.352582781457	107.666490066225	-5.52026490066225				0.464529801324503	-0.176529801324503	-0.437721854304636	-12.6370860927152	-110.69642384106	30.1843708609272				0.644026490066225	0.0994966887417219	0.133933774834437	10.8717880794702	-34.3880794701987	26.8225165562914				0.383788079470199	-0.190834437086093	-0.372238410596026	22.7003973509934	-123.60238410596	3.44529801324503			
123	2720	0.823841059602649	-0.381245033112583	-0.263523178807947	59.6733774834437	100.095364238411	32.9750993377484				0.624953642384106	0.223788079470199	0.237139072847682	-21.6860927152318	6.18781456953642	4.45403973509934				0.757827814569536	-0.0972715231788079	-0.26394701986755	-49.832582781457	104.026490066225	5.39973509933775				0.368529801324503	-0.192529801324503	-0.469721854304636	-13.7570860927152	-102.29642384106	34.6643708609272				0.628026490066225	0.147496688741722	0.101933774834437	-1.7282119205298	-38.5880794701987	20.3825165562914				0.239788079470199	-0.158834437086093	-0.340238410596026	17.1003973509934	-133.12238410596	9.88529801324503			
124	2740	0.855841059602649	-0.493245033112583	-0.119523178807947	8.43337748344371	124.455364238411	65.1750993377484				0.752953642384106	0.239788079470199	0.173139072847682	10.2339072847682	17.9478145695364	-0.585960264900661				0.965827814569536	-0.0652715231788079	-0.21594701986755	-54.872582781457	102.906490066225	9.59973509933775				0.512529801324503	-0.240529801324503	-0.485721854304636	0.522913907284768	-77.6564238410596	37.7443708609272				0.644026490066225	0.131496688741722	0.0539337748344371	0.791788079470198	-35.5080794701987	12.2625165562914				0.127788079470199	-0.158834437086093	-0.260238410596026	-3.61960264900662	-127.52238410596	10.725298013245			
125	2760	0.951841059602649	-0.205245033112583	0.104476821192053	7.31337748344371	128.375364238411	50.6150993377484				0.496953642384106	0.0157880794701987	-0.0188609271523178	-27.5660927152318	31.1078145695364	37.7740397350993				0.997827814569536	-0.0332715231788079	-0.16794701986755	-25.472582781457	85.5464900662252	15.1997350993378				0.608529801324503	-0.272529801324503	-0.469721854304636	15.0829139072848	-59.4564238410596	34.9443708609272				0.660026490066225	0.0514966887417219	0.101933774834437	12.8317880794702	-26.8280794701987	5.82251655629139				0.111788079470199	-0.0788344370860927	-0.292238410596026	-51.4996026490066	-96.7223841059603	-3.55470198675497			
126	2780	0.855841059602649	0.194754966887417	0.504476821192053	-15.3666225165563	92.8153642384106	-1.18490066225166				0.784953642384106	-0.0322119205298013	0.333139072847682	-3.48609271523179	70.5878145695364	16.7740397350993				0.869827814569536	-0.00127152317880793	-0.21594701986755	-16.232582781457	71.2664900662252	2.87973509933775				0.640529801324503	-0.336529801324503	-0.501721854304636	12.0029139072848	-57.2164238410596	30.1843708609272				0.756026490066225	0.0514966887417219	0.0859337748344371	16.1917880794702	-21.5080794701987	1.62251655629139				0.271788079470199	0.00116556291390731	-0.436238410596026	-59.0596026490066	-65.6423841059603	-25.674701986755			
127	2800	0.855841059602649	0.0667549668874172	0.104476821192053	-3.88662251655629	50.5353642384106	-14.3449006622517				0.928953642384106	0.0317880794701987	0.365139072847682	-11.6060927152318	-1.65218543046358	28.8140397350993				0.853827814569536	-0.0492715231788079	-0.10394701986755	-8.67258278145695	49.4264900662252	0.0797350993377501				0.672529801324503	-0.304529801324503	-0.629721854304636	-12.6370860927152	-65.8964238410596	18.7043708609272				0.868026490066225	0.0834966887417219	0.0219337748344371	15.3517880794702	-19.2680794701987	-3.41748344370861				0.463788079470199	-0.0308344370860927	-0.564238410596026	-23.2196026490066	-39.6023841059603	-40.794701986755			
128	2820	1.11184105960265	0.00275496688741723	0.184476821192053	-3.04662251655629	62.5753642384106	0.775099337748344				0.832953642384106	0.0637880794701987	0.285139072847682	6.87390728476821	-25.4521854304636	27.6940397350993				1.01382781456954	0.126728476821192	0.0240529801324504	17.087417218543	64.5464900662252	-7.20026490066225				0.640529801324503	-0.224529801324503	-0.629721854304636	-28.8770860927152	-65.0564238410596	12.2643708609272				0.948026490066225	0.0994966887417219	0.00593377483443711	23.4717880794702	-20.6680794701987	-3.69748344370861				0.479788079470199	-0.206834437086093	-0.660238410596027	12.3403973509934	-22.8023841059603	-55.634701986755			
129	2840	1.06384105960265	0.0347549668874172	0.248476821192053	7.59337748344371	53.6153642384106	10.0150993377483				0.848953642384106	0.0317880794701987	0.0611390728476822	32.3539072847682	25.2278145695364	7.81403973509934				0.949827814569536	0.0947284768211921	0.0720529801324504	54.0474172185431	40.1864900662252	2.03973509933775				0.560529801324503	-0.240529801324503	-0.613721854304636	-11.2370860927152	-56.0964238410596	8.90437086092715				0.916026490066225	0.0514966887417219	0.0699337748344371	30.4717880794702	-20.3880794701987	-1.45748344370861				0.543788079470199	-0.286834437086093	-0.740238410596026	23.8203973509934	-14.9623841059603	-59.554701986755			
130	2860	0.839841059602649	0.0987549668874172	0.248476821192053	24.3933774834437	34.8553642384106	9.17509933774834				0.992953642384106	0.0477880794701987	0.589139072847682	26.7539072847682	26.9078145695364	3.61403973509934				0.949827814569536	-0.225271523178808	-0.00794701986754963	64.687417218543	17.5064900662252	0.63973509933775				0.496529801324503	-0.240529801324503	-0.645721854304636	0.522913907284768	-56.6564238410596	-1.45562913907285				0.836026490066225	0.131496688741722	0.117933774834437	25.9917880794702	-13.6680794701987	-0.617483443708608				0.607788079470199	-0.350834437086093	-0.852238410596026	33.3403973509934	-22.5223841059603	-45.274701986755			
131	2880	0.887841059602649	0.0667549668874172	0.248476821192053	52.1133774834437	25.6153642384106	8.89509933774834				0.720953642384106	0.0637880794701987	0.205139072847682	23.9539072847682	-24.0521854304636	10.8940397350993				0.917827814569536	-0.289271523178808	0.0400529801324504	64.407417218543	8.82649006622517	4.27973509933775				0.464529801324503	-0.224529801324503	-0.693721854304636	-8.15708609271523	-58.0564238410596	-6.21562913907285				0.804026490066225	0.147496688741722	0.101933774834437	24.3117880794702	-6.66807947019868	-2.01748344370861				0.591788079470199	-0.414834437086093	-0.852238410596026	42.8603973509934	-41.2823841059603	-23.434701986755			
132	2900	1.04784105960265	-0.0612450331125828	0.216476821192053	73.6733774834437	19.4553642384106	5.53509933774834				0.960953642384106	0.0157880794701987	0.285139072847682	48.3139072847682	31.1078145695364	7.25403973509934				0.997827814569536	-0.209271523178808	0.10405298013245	47.8874172185431	8.54649006622517	10.4397350993378				0.512529801324503	-0.192529801324503	-0.693721854304636	-16.5570860927152	-54.6964238410596	-3.13562913907285				0.900026490066225	0.115496688741722	0.149933774834437	23.4717880794702	5.65192052980133	-3.97748344370861				0.559788079470199	-0.414834437086093	-0.756238410596026	30.5403973509934	-57.5223841059603	-7.19470198675497			
133	2920	0.967841059602649	-0.189245033112583	0.200476821192053	57.4333774834437	7.6953642384106	-5.66490066225166				1.00895364238411	0.0317880794701987	0.317139072847682	32.9139072847682	10.3878145695364	8.37403973509934				1.01382781456954	-0.113271523178808	0.0560529801324504	37.5274172185431	12.4664900662252	6.79973509933775				0.432529801324503	-0.224529801324503	-0.693721854304636	4.16291390728477	-35.6564238410596	2.18437086092715				0.964026490066225	0.0834966887417219	0.117933774834437	19.5517880794702	2.57192052980133	-3.97748344370861				0.511788079470199	-0.350834437086093	-0.724238410596026	5.34039735099338	-58.0823841059603	0.365298013245032			
134	2940	0	0	0	0	0	0				0	0	0	0	0	0				0	0	0	0	0	0				0.368529801324503	-0.304529801324503	-0.725721854304636	9.76291390728477	-11.8564238410596	5.82437086092715				0	0	0	0	0	0				0	0	0	0	0	0			
135	3040	0	0	0	0	0	0				0	0	0	0	0	0				0	0	0	0	0	0				0	0	0	0	0	0				0.996026490066225	0.0834966887417219	0.0379337748344371	-7.8882119205298	12.0919205298013	3.58251655629139				0.479788079470199	-0.366834437086093	-0.756238410596026	34.7403973509934	-10.7623841059603	-5.51470198675497			
136	3060	0.999841059602649	-0.141245033112583	0.184476821192053	-13.1266225165563	-5.1846357615894	1.05509933774834				1.02495364238411	-0.0962119205298013	0.237139072847682	-7.96609271523179	8.98781456953643	-6.18596026490066				0.965827814569536	-0.209271523178808	0.0560529801324504	7.56741721854305	-3.77350993377483	0.0797350993377501				0.496529801324503	-0.304529801324503	-0.821721854304636	5.56291390728477	14.4635761589404	-3.13562913907285				0.980026490066225	0.0514966887417219	0.0699337748344371	-9.0082119205298	9.29192052980133	1.06251655629139				0.447788079470199	-0.254834437086093	-0.740238410596026	34.1803973509934	-5.72238410596027	-7.75470198675497			
137	3080	0.935841059602649	-0.141245033112583	0.264476821192053	-9.20662251655629	7.1353642384106	-2.02490066225166				1.00895364238411	-0.0482119205298013	0.125139072847682	-14.1260927152318	5.06781456953642	-1.70596026490066				0.997827814569536	-0.161271523178808	0.00805298013245037	-2.23258278145695	0.426490066225167	3.43973509933775				0.512529801324503	-0.336529801324503	-0.821721854304636	-1.43708609271523	3.5435761589404	3.02437086092715				0.980026490066225	0.0354966887417219	0.0859337748344371	-15.4482119205298	5.09192052980133	2.18251655629139				0.431788079470199	-0.270834437086093	-0.772238410596026	35.3003973509934	-2.64238410596027	-9.71470198675497			
138	3100	0.919841059602649	-0.0772450331125828	0.200476821192053	-15.6466225165563	12.1753642384106	-8.46490066225166				0.944953642384106	-0.0482119205298013	0.157139072847682	-28.1260927152318	5.34781456953642	-1.14596026490066				0.949827814569536	-0.161271523178808	-0.0559470198675496	-13.432582781457	6.86649006622517	2.31973509933775				0.480529801324503	-0.336529801324503	-0.789721854304636	-20.4770860927152	-6.5364238410596	3.86437086092715				0.948026490066225	0.0514966887417219	0.0539337748344371	-22.1682119205298	3.41192052980132	3.30251655629139				0.431788079470199	-0.366834437086093	-0.772238410596026	31.3803973509934	-2.64238410596027	-6.91470198675497			
139	3120	0.919841059602649	-0.0132450331125828	0.104476821192053	-27.1266225165563	6.2953642384106	-9.58490066225166				0.960953642384106	0.0157880794701987	0.205139072847682	-34.2860927152318	5.62781456953642	-0.0259602649006601				0.933827814569536	-0.129271523178808	-0.0719470198675496	-19.032582781457	10.7864900662252	0.63973509933775				0.432529801324503	-0.304529801324503	-0.757721854304636	-27.4770860927152	-8.2164238410596	8.34437086092715				0.948026490066225	0.0994966887417219	0.0219337748344371	-23.8482119205298	2.29192052980133	4.14251655629139				0.415788079470199	-0.414834437086093	-0.772238410596026	5.34039735099338	-0.962384105960265	-0.754701986754968			
140	3140	0.999841059602649	-0.0132450331125828	0.072476821192053	-32.7266225165563	3.2153642384106	-6.78490066225166				0.928953642384106	0.0317880794701987	0.189139072847682	-30.0860927152318	7.86781456953642	2.49403973509934				0.917827814569536	-0.0652715231788079	-0.10394701986755	-25.472582781457	11.9064900662252	0.63973509933775				0.448529801324503	-0.256529801324503	-0.741721854304636	-16.2770860927152	-0.0964238410596001	16.4643708609272				0.948026490066225	0.0834966887417219	0.0379337748344371	-22.4482119205298	3.69192052980133	4.98251655629139				0.383788079470199	-0.350834437086093	-0.788238410596027	-19.5796026490066	3.79761589403974	7.08529801324503			
141	3160	1.03184105960265	-0.0292450331125828	0.088476821192053	-29.3666225165563	5.1753642384106	-3.98490066225166				0.976953642384106	0.0317880794701987	0.237139072847682	-27.5660927152318	12.6278145695364	3.89403973509934				0.933827814569536	-0.0172715231788079	-0.10394701986755	-25.472582781457	16.3864900662252	1.75973509933775				0.480529801324503	-0.240529801324503	-0.757721854304636	-5.07708609271523	12.2235761589404	21.2243708609272				0.932026490066225	0.0674966887417219	0.0379337748344371	-21.6082119205298	4.25192052980133	4.42251655629139				0.367788079470199	-0.286834437086093	-0.804238410596027	-19.2996026490066	10.2376158940397	7.64529801324503			
142	3180	0.999841059602649	-0.0132450331125828	0.120476821192053	-19.2866225165563	6.8553642384106	-1.46490066225166				1.00895364238411	0.0477880794701987	0.157139072847682	-25.6060927152318	9.26781456953642	5.29403973509934				0.997827814569536	-0.0172715231788079	-0.0719470198675496	-20.992582781457	14.7064900662252	0.91973509933775				0.480529801324503	-0.272529801324503	-0.741721854304636	-3.95708609271523	14.7435761589404	20.9443708609272				0.980026490066225	0.0994966887417219	0.0379337748344371	-23.5682119205298	6.49192052980132	3.86251655629139				0.367788079470199	-0.238834437086093	-0.820238410596026	-9.49960264900662	6.03761589403974	8.48529801324503			
143	3200	0.983841059602649	0.0507549668874172	0.120476821192053	-12.2866225165563	6.0153642384106	-0.904900662251656				0.992953642384106	0.0317880794701987	0.173139072847682	-23.3660927152318	12.6278145695364	5.29403973509934				0.981827814569536	-0.0172715231788079	-0.10394701986755	-13.712582781457	6.30649006622517	-0.20026490066225				0.512529801324503	-0.320529801324503	-0.773721854304636	-10.1170860927152	7.4635761589404	20.6643708609272				0.980026490066225	0.0994966887417219	0.00593377483443711	-24.4082119205298	6.21192052980133	3.86251655629139				0.367788079470199	-0.270834437086093	-0.852238410596026	-2.21960264900662	6.59761589403974	11.565298013245			
144	3220	0.999841059602649	0.0667549668874172	0.136476821192053	-8.92662251655629	3.7753642384106	-3.42490066225166				1.00895364238411	0.0157880794701987	0.221139072847682	-27.8460927152318	7.02781456953642	1.93403973509934				0.965827814569536	-0.0492715231788079	-0.11994701986755	-7.55258278145695	10.7864900662252	-0.48026490066225				0.528529801324503	-0.320529801324503	-0.821721854304636	-16.5570860927152	5.5035761589404	21.5043708609272				0.980026490066225	0.0674966887417219	0.0219337748344371	-19.9282119205298	7.61192052980133	4.14251655629139				0.351788079470199	-0.302834437086093	-0.868238410596026	0.580397350993377	6.03761589403974	12.125298013245			
145	3240	0.983841059602649	0.0187549668874172	0.184476821192053	-10.3266225165563	1.5353642384106	-3.98490066225166				0.976953642384106	-0.000211920529801304	0.189139072847682	-21.9660927152318	1.70781456953642	0.53403973509934				0.981827814569536	-0.0652715231788079	-0.11994701986755	-6.15258278145695	9.10649006622517	-1.32026490066225				0.544529801324503	-0.336529801324503	-0.805721854304636	-17.3970860927152	6.3435761589404	23.4643708609272				0.980026490066225	0.0514966887417219	0.0219337748344371	-17.9682119205298	7.89192052980133	4.14251655629139				0.303788079470199	-0.286834437086093	-0.836238410596026	-2.21960264900662	5.75761589403974	12.685298013245			
146	3260	0.951841059602649	0.00275496688741723	0.184476821192053	-11.7266225165563	-0.424635761589404	-1.18490066225166				0.976953642384106	0.0317880794701987	0.221139072847682	-13.8460927152318	3.94781456953642	-2.26596026490066				0.997827814569536	-0.0812715231788079	-0.11994701986755	-6.71258278145695	4.06649006622517	-0.48026490066225				0.512529801324503	-0.320529801324503	-0.773721854304636	-12.9170860927152	6.0635761589404	23.4643708609272				0.964026490066225	0.0514966887417219	0.0219337748344371	-13.4882119205298	6.49192052980132	3.30251655629139				0.319788079470199	-0.286834437086093	-0.820238410596026	-8.37960264900662	9.95761589403974	16.045298013245			
147	3280	0.951841059602649	-0.0612450331125828	0.200476821192053	-7.24662251655629	0.415364238410596	-0.624900662251656				1.00895364238411	0.0477880794701987	0.205139072847682	-10.7660927152318	-6.69218543046358	-2.26596026490066				1.02982781456954	-0.129271523178808	-0.11994701986755	-7.83258278145695	1.82649006622517	-0.76026490066225				0.480529801324503	-0.304529801324503	-0.741721854304636	-11.2370860927152	7.1835761589404	17.0243708609272				0.948026490066225	0.0514966887417219	0.0219337748344371	-13.2082119205298	7.33192052980133	1.62251655629139				0.319788079470199	-0.302834437086093	-0.772238410596026	-12.8596026490066	9.39761589403974	17.445298013245			
148	3300	0.983841059602649	-0.0772450331125828	0.232476821192053	-6.96662251655629	0.415364238410596	-0.0649006622516557				0.976953642384106	0.0477880794701987	0.157139072847682	-11.3260927152318	-8.65218543046358	-3.38596026490066				1.01382781456954	-0.129271523178808	-0.0879470198675496	-6.99258278145695	-3.49350993377483	-0.48026490066225				0.480529801324503	-0.272529801324503	-0.725721854304636	-12.9170860927152	7.1835761589404	10.5843708609272				0.964026490066225	0.0514966887417219	0.0219337748344371	-12.9282119205298	8.45192052980133	-1.45748344370861				0.319788079470199	-0.286834437086093	-0.772238410596026	-17.8996026490066	12.1976158940397	15.765298013245			
149	3320	0.999841059602649	-0.0292450331125828	0.200476821192053	-9.20662251655629	-0.144635761589404	-0.344900662251656				0.992953642384106	0.0317880794701987	0.189139072847682	-11.8860927152318	-4.73218543046358	-5.62596026490066				0.997827814569536	-0.0972715231788079	-0.0879470198675496	-1.95258278145695	-7.69350993377483	0.0797350993377501				0.496529801324503	-0.272529801324503	-0.757721854304636	-12.0770860927152	10.8235761589404	8.06437086092715				0.964026490066225	0.0514966887417219	0.0539337748344371	-14.3282119205298	7.89192052980133	-2.57748344370861				0.335788079470199	-0.254834437086093	-0.804238410596027	-10.0596026490066	13.3176158940397	14.085298013245			
150	3340	0.967841059602649	0.00275496688741723	0.168476821192053	-7.24662251655629	-1.8246357615894	1.05509933774834				0.944953642384106	-0.0642119205298013	0.253139072847682	1.55390728476821	0.0278145695364242	-5.06596026490066				0.997827814569536	-0.0492715231788079	-0.0559470198675496	-5.03258278145695	-9.93350993377483	1.19973509933775				0.496529801324503	-0.304529801324503	-0.757721854304636	-12.0770860927152	12.5035761589404	7.22437086092715				0.964026490066225	0.0674966887417219	0.0539337748344371	-12.0882119205298	8.73192052980133	-2.85748344370861				0.367788079470199	-0.254834437086093	-0.836238410596026	-4.17960264900662	14.7176158940397	13.245298013245			
151	3360	0.983841059602649	-0.0132450331125828	0.136476821192053	-5.00662251655629	-2.9446357615894	0.495099337748344				0.976953642384106	0.0157880794701987	0.269139072847682	-0.686092715231788	-6.69218543046358	-7.02596026490066				0.965827814569536	-0.0492715231788079	-0.0719470198675496	-4.75258278145695	-5.73350993377484	0.0797350993377501				0.528529801324503	-0.288529801324503	-0.789721854304636	-8.99708609271523	12.7835761589404	8.62437086092715				0.964026490066225	0.0834966887417219	0.0539337748344371	-9.2882119205298	9.01192052980133	-3.69748344370861				0.367788079470199	-0.270834437086093	-0.852238410596026	-7.25960264900662	14.7176158940397	11.565298013245			
152	3380	0.983841059602649	-0.0292450331125828	0.104476821192053	0.0333774834437086	-4.6246357615894	-0.344900662251656				0.944953642384106	-0.000211920529801304	0.125139072847682	0.433907284768212	-16.7721854304636	-5.06596026490066				0.981827814569536	-0.0652715231788079	-0.0559470198675496	-1.39258278145695	-6.57350993377483	0.35973509933775				0.576529801324503	-0.304529801324503	-0.773721854304636	-4.79708609271523	11.3835761589404	11.4243708609272				0.980026490066225	0.0514966887417219	0.0539337748344371	-4.5282119205298	8.45192052980133	-2.29748344370861				0.399788079470199	-0.222834437086093	-0.852238410596026	-4.73960264900662	10.5176158940397	9.88529801324503			
153	3400	0.999841059602649	-0.0452450331125828	0.104476821192053	3.95337748344371	-6.8646357615894	-0.624900662251656				0.992953642384106	0.0157880794701987	0.157139072847682	3.23390728476821	-1.09218543046358	-6.18596026490066				0.965827814569536	-0.0972715231788079	-0.0399470198675496	8.68741721854305	-6.29350993377483	-1.04026490066225				0.592529801324503	-0.288529801324503	-0.789721854304636	-6.75708609271523	5.2235761589404	12.8243708609272				0.980026490066225	0.0514966887417219	0.0699337748344371	-1.7282119205298	5.65192052980133	-2.01748344370861				0.399788079470199	-0.238834437086093	-0.868238410596026	1.98039735099338	5.47761589403974	3.16529801324503			
154	3420	0.983841059602649	-0.0612450331125828	0.120476821192053	3.95337748344371	-6.3046357615894	1.05509933774834				0.976953642384106	-0.000211920529801304	0.0771390728476822	2.11390728476821	-3.33218543046358	-4.22596026490066				0.965827814569536	-0.0972715231788079	-0.0399470198675496	14.007417218543	-10.4935099337748	-2.44026490066225				0.560529801324503	-0.288529801324503	-0.773721854304636	-10.6770860927152	-1.2164238410596	12.5443708609272				0.996026490066225	0.0674966887417219	0.0859337748344371	0.231788079470198	5.37192052980133	-3.13748344370861				0.383788079470199	-0.302834437086093	-0.868238410596026	3.38039735099338	0.997615894039735	-0.194701986754968			
155	3440	0.951841059602649	-0.0612450331125828	0.120476821192053	-0.526622516556291	-3.7846357615894	0.775099337748344				0.992953642384106	0.0157880794701987	0.141139072847682	2.95390728476821	4.22781456953642	-3.10596026490066				0.965827814569536	-0.113271523178808	-0.0719470198675496	11.487417218543	-7.69350993377483	-0.76026490066225				0.512529801324503	-0.304529801324503	-0.757721854304636	-9.55708609271523	-2.0564238410596	11.4243708609272				0.996026490066225	0.0674966887417219	0.0539337748344371	0.231788079470198	1.45192052980132	-1.17748344370861				0.367788079470199	-0.302834437086093	-0.868238410596026	-0.819602649006623	-0.122384105960265	1.48529801324503			
156	3460	0.951841059602649	-0.0772450331125828	0.120476821192053	1.99337748344371	-1.2646357615894	0.215099337748344				0.992953642384106	-0.0162119205298013	0.189139072847682	4.07390728476821	-5.01218543046358	0.53403973509934				0.965827814569536	-0.161271523178808	-0.0879470198675496	8.40741721854305	-4.33350993377483	0.35973509933775				0.480529801324503	-0.304529801324503	-0.725721854304636	-5.63708609271523	0.1835761589404	10.8643708609272				0.964026490066225	0.0194966887417219	0.0379337748344371	3.5917880794702	1.73192052980133	-0.337483443708608				0.351788079470199	-0.270834437086093	-0.852238410596026	-5.01960264900662	0.157615894039735	2.88529801324503			
157	3480	0.983841059602649	-0.0772450331125828	0.104476821192053	2.55337748344371	-2.1046357615894	-0.624900662251656				0.976953642384106	-0.000211920529801304	0.0931390728476822	0.713907284768212	-6.69218543046358	0.81403973509934				0.949827814569536	-0.161271523178808	-0.11994701986755	4.48741721854305	-1.25350993377483	-0.48026490066225				0.448529801324503	-0.272529801324503	-0.725721854304636	-1.99708609271523	2.4235761589404	10.3043708609272				0.964026490066225	0.0194966887417219	0.0379337748344371	4.1517880794702	2.01192052980133	-0.337483443708608				0.351788079470199	-0.286834437086093	-0.820238410596026	-2.21960264900662	2.39761589403974	0.0852980132450323			
158	3500	0.999841059602649	-0.0452450331125828	0.056476821192053	-3.32662251655629	-5.1846357615894	-1.46490066225166				0.992953642384106	0.0157880794701987	0.141139072847682	1.27390728476821	4.50781456953642	1.37403973509934				0.949827814569536	-0.113271523178808	-0.11994701986755	2.80741721854305	0.146490066225167	0.63973509933775				0.464529801324503	-0.272529801324503	-0.757721854304636	0.242913907284768	-0.3764238410596	9.18437086092715				0.964026490066225	0.0194966887417219	0.0539337748344371	4.7117880794702	0.891920529801325	-0.617483443708608				0.335788079470199	-0.286834437086093	-0.804238410596027	6.18039735099338	0.437615894039735	-1.03470198675497			
159	3520	0.967841059602649	-0.0772450331125828	0.040476821192053	-3.60662251655629	-6.8646357615894	-0.904900662251656				0.976953642384106	-0.0162119205298013	0.125139072847682	4.63390728476821	6.74781456953642	1.93403973509934				0.965827814569536	-0.113271523178808	-0.10394701986755	0.287417218543046	1.26649006622517	0.63973509933775				0.480529801324503	-0.320529801324503	-0.773721854304636	0.242913907284768	-1.4964238410596	5.82437086092715				0.980026490066225	0.0194966887417219	0.0379337748344371	5.2717880794702	0.891920529801325	-0.0574834437086077				0.351788079470199	-0.318834437086093	-0.820238410596026	5.62039735099338	1.27761589403974	-1.31470198675497			
160	3540	0.967841059602649	-0.0772450331125828	0.072476821192053	-0.806622516556291	-4.0646357615894	-0.0649006622516557				0.992953642384106	-0.0322119205298013	0.141139072847682	-1.24609271523179	0.587814569536424	0.25403973509934				0.965827814569536	-0.113271523178808	-0.10394701986755	0.847417218543046	0.706490066225167	-0.48026490066225				0.480529801324503	-0.336529801324503	-0.773721854304636	1.92291390728477	-0.6564238410596	2.74437086092715				0.980026490066225	0.0194966887417219	0.0539337748344371	4.4317880794702	0.331920529801325	-1.17748344370861				0.383788079470199	-0.318834437086093	-0.836238410596026	1.98039735099338	1.27761589403974	-0.754701986754968			
161	3560	0.967841059602649	-0.0612450331125828	0.088476821192053	-0.246622516556291	-1.2646357615894	-1.18490066225166				0.992953642384106	-0.000211920529801304	0.109139072847682	-5.16609271523179	-2.77218543046358	-0.585960264900661				0.965827814569536	-0.113271523178808	-0.10394701986755	3.36741721854305	-0.693509933774834	-1.32026490066225				0.432529801324503	-0.320529801324503	-0.789721854304636	0.802913907284768	1.5835761589404	1.06437086092715				0.964026490066225	0.0194966887417219	0.0539337748344371	2.4717880794702	-1.90807947019868	0.222516556291392				0.367788079470199	-0.302834437086093	-0.852238410596026	1.70039735099338	1.27761589403974	-2.43470198675497			
162	3580	0.967841059602649	-0.0292450331125828	0.104476821192053	-0.246622516556291	-0.984635761589404	-2.30490066225166				0.992953642384106	-0.000211920529801304	0.125139072847682	-0.966092715231788	1.70781456953642	0.53403973509934				0.965827814569536	-0.129271523178808	-0.11994701986755	4.48741721854305	-1.81350993377483	-1.60026490066225				0.448529801324503	-0.304529801324503	-0.773721854304636	1.36291390728477	1.0235761589404	0.224370860927152				0.964026490066225	0.0194966887417219	0.0379337748344371	3.0317880794702	-0.788079470198675	0.502516556291392				0.383788079470199	-0.302834437086093	-0.852238410596026	0.860397350993377	2.39761589403974	-4.11470198675497			
163	3600	0.983841059602649	-0.0292450331125828	0.088476821192053	-0.246622516556291	-2.1046357615894	-3.42490066225166				0.992953642384106	-0.0322119205298013	0.141139072847682	5.47390728476821	1.70781456953642	1.09403973509934				0.965827814569536	-0.113271523178808	-0.11994701986755	-1.39258278145695	-1.53350993377483	-2.44026490066225				0.464529801324503	-0.320529801324503	-0.773721854304636	0.802913907284768	-2.3364238410596	-0.335629139072848				0.980026490066225	0.0194966887417219	0.0379337748344371	1.6317880794702	0.0519205298013249	0.782516556291392				0.383788079470199	-0.286834437086093	-0.836238410596026	1.98039735099338	0.437615894039735	-6.35470198675497			
164	3620	0.967841059602649	-0.0452450331125828	0.072476821192053	-3.88662251655629	-2.9446357615894	-3.70490066225166				0.992953642384106	-0.0162119205298013	0.109139072847682	2.39390728476821	-1.93218543046358	-0.30596026490066				0.965827814569536	-0.113271523178808	-0.13594701986755	-6.71258278145695	0.706490066225167	-1.88026490066225				0.448529801324503	-0.320529801324503	-0.773721854304636	-0.317086092715232	-4.2964238410596	0.784370860927152				0.980026490066225	0.0194966887417219	0.0219337748344371	-0.328211920529802	-1.90807947019868	1.62251655629139				0.367788079470199	-0.270834437086093	-0.820238410596026	2.54039735099338	0.717615894039735	-6.35470198675497			
165	3640	0.967841059602649	-0.0612450331125828	0.056476821192053	-5.56662251655629	-1.2646357615894	-2.86490066225166				0.976953642384106	0.0157880794701987	0.109139072847682	-4.04609271523179	-6.13218543046358	-1.70596026490066				0.965827814569536	-0.113271523178808	-0.11994701986755	-5.31258278145695	0.986490066225167	-3.56026490066225				0.464529801324503	-0.320529801324503	-0.773721854304636	0.802913907284768	-2.6164238410596	0.784370860927152				0.980026490066225	0.0354966887417219	0.0379337748344371	-0.328211920529802	-3.02807947019868	1.34251655629139				0.367788079470199	-0.286834437086093	-0.836238410596026	3.94039735099338	-1.24238410596026	-8.59470198675497			
166	3660	0.999841059602649	-0.0452450331125828	0.072476821192053	-5.56662251655629	-0.424635761589404	-3.42490066225166				0.944953642384106	0.0637880794701987	0.0931390728476822	-4.88609271523179	-1.37218543046358	-1.14596026490066				0.997827814569536	-0.0652715231788079	-0.0719470198675496	0.567417218543046	-2.37350993377483	-2.16026490066225				0.448529801324503	-0.320529801324503	-0.789721854304636	4.16291390728477	-1.2164238410596	2.46437086092715				0.964026490066225	0.0514966887417219	0.0539337748344371	-0.328211920529802	-1.62807947019868	0.502516556291392				0.367788079470199	-0.286834437086093	-0.852238410596026	3.66039735099338	-3.48238410596027	-8.59470198675497			
167	3680	0.967841059602649	-0.0292450331125828	0.120476821192053	-0.806622516556291	0.975364238410596	-3.70490066225166				0.960953642384106	0.0637880794701987	0.125139072847682	-2.36609271523179	1.70781456953642	-1.98596026490066				0.981827814569536	-0.0972715231788079	-0.10394701986755	-1.67258278145695	-4.61350993377483	-2.16026490066225				0.448529801324503	-0.320529801324503	-0.789721854304636	5.00291390728477	1.3035761589404	2.18437086092715				0.964026490066225	0.0354966887417219	0.0219337748344371	-1.7282119205298	-4.14807947019868	1.62251655629139				0.367788079470199	-0.302834437086093	-0.836238410596026	3.66039735099338	-2.08238410596027	-7.47470198675497			
168	3700	0.967841059602649	-0.0292450331125828	0.120476821192053	0.873377483443709	0.695364238410596	-3.14490066225166				0.992953642384106	0.0157880794701987	0.173139072847682	5.47390728476821	-6.13218543046358	0.25403973509934				0.981827814569536	-0.0972715231788079	-0.10394701986755	-1.95258278145695	-0.133509933774833	-1.88026490066225				0.464529801324503	-0.320529801324503	-0.789721854304636	3.60291390728477	1.0235761589404	0.784370860927152				0.964026490066225	0.0514966887417219	0.0219337748344371	0.231788079470198	-1.06807947019868	2.18251655629139				0.351788079470199	-0.286834437086093	-0.820238410596026	0.300397350993377	-0.122384105960265	-5.23470198675497			
169	3720	0.967841059602649	-0.0292450331125828	0.104476821192053	1.15337748344371	-0.424635761589404	-2.58490066225166				0.960953642384106	0.0317880794701987	0.125139072847682	4.35390728476821	-7.25218543046358	-2.26596026490066				0.981827814569536	-0.0972715231788079	-0.10394701986755	-1.67258278145695	1.26649006622517	-1.60026490066225				0.464529801324503	-0.304529801324503	-0.789721854304636	3.04291390728477	1.3035761589404	-1.45562913907285				0.964026490066225	0.0674966887417219	0.0219337748344371	-0.328211920529802	-0.508079470198675	0.502516556291392				0.335788079470199	-0.270834437086093	-0.820238410596026	-2.21960264900662	-0.122384105960265	-4.67470198675497			
170	3740	0.983841059602649	-0.0292450331125828	0.104476821192053	-1.92662251655629	-2.3846357615894	-2.86490066225166				0.976953642384106	0.0477880794701987	0.125139072847682	2.39390728476821	-5.29218543046358	-1.42596026490066				0.965827814569536	-0.0812715231788079	-0.0879470198675496	-1.95258278145695	2.94649006622517	-2.16026490066225				0.480529801324503	-0.304529801324503	-0.789721854304636	-0.877086092715232	-0.6564238410596	-2.57562913907285				0.948026490066225	0.0674966887417219	0.0219337748344371	0.231788079470198	-1.34807947019868	0.222516556291392				0.351788079470199	-0.238834437086093	-0.820238410596026	-3.33960264900662	0.717615894039735	-3.83470198675497			
171	3760	1.01584105960265	-0.0292450331125828	0.088476821192053	-0.246622516556291	-4.0646357615894	-2.02490066225166				0.960953642384106	0.0317880794701987	0.157139072847682	1.55390728476821	0.0278145695364242	-0.585960264900661				0.965827814569536	-0.0812715231788079	-0.0719470198675496	0.287417218543046	-0.133509933774833	-1.88026490066225				0.464529801324503	-0.304529801324503	-0.789721854304636	-0.317086092715232	-1.2164238410596	-3.13562913907285				0.948026490066225	0.0674966887417219	0.0379337748344371	1.3517880794702	-1.06807947019868	-0.337483443708608				0.367788079470199	-0.238834437086093	-0.836238410596026	2.26039735099338	-1.52238410596026	-4.67470198675497			
172	3780	0.983841059602649	-0.0132450331125828	0.088476821192053	1.43337748344371	-4.3446357615894	-1.18490066225166				0.976953642384106	0.0317880794701987	0.141139072847682	2.95390728476821	2.54781456953642	-0.585960264900661				0.965827814569536	-0.0652715231788079	-0.0719470198675496	2.24741721854305	-2.93350993377483	-1.04026490066225				0.464529801324503	-0.288529801324503	-0.789721854304636	-0.0370860927152318	-1.7764238410596	-3.13562913907285				0.964026490066225	0.0674966887417219	0.0379337748344371	1.3517880794702	-0.228079470198675	-1.45748344370861				0.367788079470199	-0.254834437086093	-0.836238410596026	4.50039735099338	-1.80238410596026	-6.07470198675497			
173	3800	0.951841059602649	0.00275496688741723	0.120476821192053	0.0333774834437086	-2.9446357615894	-2.58490066225166				0.976953642384106	0.0157880794701987	0.157139072847682	3.23390728476821	0.867814569536424	-0.30596026490066				0.965827814569536	-0.0652715231788079	-0.0719470198675496	3.64741721854305	-3.49350993377483	-2.72026490066225				0.480529801324503	-0.320529801324503	-0.805721854304636	-1.99708609271523	-2.8964238410596	-4.53562913907285				0.948026490066225	0.0674966887417219	0.0219337748344371	2.1917880794702	1.17192052980133	-1.17748344370861				0.367788079470199	-0.270834437086093	-0.836238410596026	2.26039735099338	-0.682384105960265	-4.95470198675497			
174	3820	0.967841059602649	-0.0292450331125828	0.152476821192053	2.55337748344371	-0.984635761589404	-2.58490066225166				0.976953642384106	0.0157880794701987	0.125139072847682	2.95390728476821	-5.01218543046358	-0.86596026490066				0.965827814569536	-0.0812715231788079	-0.0879470198675496	4.20741721854305	-0.973509933774833	-2.72026490066225				0.480529801324503	-0.304529801324503	-0.789721854304636	-5.35708609271523	-5.1364238410596	-4.81562913907285				0.964026490066225	0.0514966887417219	0.0219337748344371	4.4317880794702	2.01192052980133	-1.45748344370861				0.367788079470199	-0.254834437086093	-0.820238410596026	-1.93960264900662	0.717615894039735	-5.23470198675497			
175	3840	0.983841059602649	-0.0132450331125828	0.152476821192053	-1.08662251655629	-1.5446357615894	-2.58490066225166				0.976953642384106	0.0477880794701987	0.125139072847682	3.79390728476821	-1.37218543046358	-1.42596026490066				0.965827814569536	-0.0812715231788079	-0.0879470198675496	2.80741721854305	-1.25350993377483	-1.88026490066225				0.480529801324503	-0.288529801324503	-0.773721854304636	-2.83708609271523	-5.1364238410596	-3.41562913907285				0.964026490066225	0.0674966887417219	0.0379337748344371	5.2717880794702	1.73192052980133	-2.57748344370861				0.367788079470199	-0.238834437086093	-0.836238410596026	-0.539602649006623	0.717615894039735	-4.95470198675497			
176	3860	0.983841059602649	-0.0132450331125828	0.120476821192053	-2.20662251655629	-4.0646357615894	-2.86490066225166				0.976953642384106	0.0477880794701987	0.157139072847682	5.47390728476821	2.54781456953642	-1.42596026490066				0.981827814569536	-0.0812715231788079	-0.0719470198675496	2.24741721854305	-0.973509933774833	-1.88026490066225				0.448529801324503	-0.304529801324503	-0.789721854304636	-2.55708609271523	-3.7364238410596	-3.97562913907285				0.948026490066225	0.0674966887417219	0.0379337748344371	5.5517880794702	1.73192052980133	-1.73748344370861				0.383788079470199	-0.270834437086093	-0.820238410596026	3.10039735099338	-0.402384105960265	-6.07470198675497			
177	3880	0.967841059602649	-0.0132450331125828	0.072476821192053	-1.36662251655629	-4.3446357615894	-2.30490066225166				0.976953642384106	0.0317880794701987	0.141139072847682	8.27390728476821	3.10781456953642	-0.30596026490066				0.981827814569536	-0.0812715231788079	-0.0879470198675496	3.64741721854305	-2.65350993377483	-2.16026490066225				0.464529801324503	-0.304529801324503	-0.773721854304636	-0.597086092715232	-1.4964238410596	-3.69562913907285				0.964026490066225	0.0514966887417219	0.0539337748344371	6.1117880794702	3.69192052980133	-2.29748344370861				0.383788079470199	-0.286834437086093	-0.836238410596026	2.82039735099338	-0.402384105960265	-5.51470198675497			
178	3900	0.999841059602649	-0.0132450331125828	0.088476821192053	-0.806622516556291	-3.7846357615894	-2.30490066225166				0.976953642384106	0.0477880794701987	0.125139072847682	6.59390728476821	1.42781456953642	-1.14596026490066				0.965827814569536	-0.0652715231788079	-0.0879470198675496	5.88741721854305	-1.81350993377483	-2.16026490066225				0.464529801324503	-0.288529801324503	-0.805721854304636	-1.15708609271523	-2.6164238410596	-3.41562913907285				0.980026490066225	0.0514966887417219	0.0219337748344371	4.9917880794702	3.41192052980132	-3.69748344370861				0.383788079470199	-0.286834437086093	-0.820238410596026	1.14039735099338	-0.682384105960265	-5.51470198675497			
179	3920	0.967841059602649	0.0187549668874172	0.200476821192053	1.99337748344371	0.415364238410596	-1.74490066225166				0.960953642384106	0.0477880794701987	0.285139072847682	6.87390728476821	2.54781456953642	0.81403973509934				0.981827814569536	-0.0812715231788079	0.00805298013245037	2.80741721854305	1.54649006622517	0.35973509933775				0.640529801324503	-0.384529801324503	-0.693721854304636	1.92291390728477	2.1435761589404	-3.97562913907285				0.948026490066225	0.0674966887417219	0.181933774834437	3.8717880794702	7.05192052980133	-0.0574834437086077				0.559788079470199	-0.206834437086093	-0.740238410596026	1.42039735099338	2.95761589403974	-2.43470198675497			
