No	Time	12-AccX	12-AccY	12-AccZ	12-GyroX	12-GyroY	12-GyroZ	13-AccX	13-AccY	13-AccZ	13-GyroX	13-GyroY	13-GyroZ	14-AccX	14-AccY	14-AccZ	14-GyroX	14-GyroY	14-GyroZ	15-AccX	15-AccY	15-AccZ	15-GyroX	15-GyroY	15-GyroZ	16-AccX	16-AccY	16-AccZ	16-GyroX	16-GyroY	16-GyroZ	17-AccX	17-AccY	17-AccZ	17-GyroX	17-GyroY	17-GyroZ
0	100	-0.184158940397351	0.114754966887417	-0.951523178807947	-1.36662251655629	-0.144635761589404	0.215099337748344				0.976953642384106	0.127788079470199	0.0451390728476822	2.95390728476821	-0.532185430463576	1.65403973509934				-0.250172185430464	-0.0652715231788079	-0.87194701986755	0.287417218543046	0.706490066225167	0.0797350993377501				0	0	0	0	0	0				0	0	0	0	0	0				0	0	0	0	0	0			
1	120	-0.184158940397351	0.0987549668874172	-0.951523178807947	-0.246622516556291	0.415364238410596	-0.0649006622516557				1.00895364238411	0.127788079470199	0.0291390728476822	2.95390728476821	-2.49218543046358	1.09403973509934				-0.250172185430464	-0.0812715231788079	-0.87194701986755	0.00741721854304636	0.146490066225167	-0.20026490066225				0.368529801324503	-0.224529801324503	-0.853721854304636	0.242913907284768	-2.8964238410596	-1.17562913907285				0.948026490066225	0.0674966887417219	0.213933774834437	1.0717880794702	-2.46807947019868	1.62251655629139				0.271788079470199	-0.158834437086093	-0.932238410596026	1.42039735099338	-2.92238410596027	-2.71470198675497			
2	140	-0.200158940397351	0.114754966887417	-0.951523178807947	0.593377483443709	0.135364238410596	-0.0649006622516557				0.976953642384106	0.127788079470199	0.0131390728476822	0.433907284768212	-3.89218543046358	0.25403973509934				-0.234172185430464	-0.0812715231788079	-0.88794701986755	1.96741721854305	-0.693509933774834	-0.20026490066225				0.368529801324503	-0.240529801324503	-0.853721854304636	3.32291390728477	-2.3364238410596	0.504370860927152				0.948026490066225	0.0834966887417219	0.213933774834437	-0.608211920529802	-2.74807947019868	0.782516556291392				0.255788079470199	-0.174834437086093	-0.916238410596027	0.580397350993377	-2.64238410596027	-2.99470198675497			
3	160	-0.200158940397351	0.114754966887417	-0.951523178807947	-0.806622516556291	-0.144635761589404	-0.0649006622516557				0.976953642384106	0.127788079470199	-0.00286092715231785	-2.36609271523179	-3.89218543046358	0.81403973509934				-0.266172185430464	-0.0812715231788079	-0.87194701986755	-0.272582781456954	-0.133509933774833	-1.04026490066225				0.368529801324503	-0.256529801324503	-0.869721854304636	5.56291390728477	-0.0964238410596001	3.02437086092715				0.948026490066225	0.0834966887417219	0.197933774834437	-0.888211920529802	-4.70807947019868	1.90251655629139				0.255788079470199	-0.158834437086093	-0.916238410596027	-1.09960264900662	-2.36238410596027	-2.99470198675497			
4	180	-0.200158940397351	0.130754966887417	-0.951523178807947	-1.36662251655629	0.415364238410596	-0.344900662251656				0.992953642384106	0.143788079470199	-0.00286092715231785	-2.64609271523179	-0.812185430463576	1.37403973509934				-0.250172185430464	-0.0812715231788079	-0.87194701986755	0.567417218543046	0.986490066225167	-1.04026490066225				0.352529801324503	-0.240529801324503	-0.869721854304636	3.88291390728477	0.4635761589404	3.30437086092715				0.948026490066225	0.0834966887417219	0.213933774834437	0.231788079470198	-3.86807947019868	1.90251655629139				0.255788079470199	-0.158834437086093	-0.900238410596026	-1.65960264900662	-2.64238410596027	-1.87470198675497			
5	200	-0.200158940397351	0.130754966887417	-0.951523178807947	-1.64662251655629	-0.144635761589404	-0.624900662251656				0.992953642384106	0.143788079470199	0.0131390728476822	-0.406092715231788	-0.252185430463576	0.53403973509934				-0.266172185430464	-0.0652715231788079	-0.87194701986755	0.567417218543046	0.426490066225167	-0.20026490066225				0.368529801324503	-0.240529801324503	-0.869721854304636	2.76291390728477	0.4635761589404	3.02437086092715				0.948026490066225	0.0674966887417219	0.213933774834437	-0.0482119205298018	-3.02807947019868	1.06251655629139				0.255788079470199	-0.158834437086093	-0.900238410596026	-0.539602649006623	-2.08238410596027	-1.31470198675497			
6	220	-0.200158940397351	0.130754966887417	-0.919523178807947	-0.246622516556291	0.695364238410596	-0.0649006622516557				0.992953642384106	0.127788079470199	0.0131390728476822	-0.406092715231788	-3.33218543046358	0.53403973509934				-0.266172185430464	-0.0652715231788079	-0.88794701986755	1.12741721854305	1.54649006622517	0.35973509933775				0.352529801324503	-0.240529801324503	-0.869721854304636	3.60291390728477	-0.9364238410596	2.46437086092715				0.964026490066225	0.0674966887417219	0.197933774834437	0.511788079470198	-3.30807947019868	0.502516556291392				0.255788079470199	-0.158834437086093	-0.900238410596026	0.860397350993377	-0.962384105960265	-1.03470198675497			
7	240	-0.200158940397351	0.114754966887417	-0.935523178807947	0.313377483443709	0.415364238410596	-0.0649006622516557				0.976953642384106	0.143788079470199	-0.00286092715231785	0.153907284768212	-2.77218543046358	0.25403973509934				-0.266172185430464	-0.0812715231788079	-0.87194701986755	0.287417218543046	2.10649006622517	0.35973509933775				0.368529801324503	-0.240529801324503	-0.869721854304636	4.72291390728477	-0.6564238410596	2.18437086092715				0.948026490066225	0.0834966887417219	0.197933774834437	-0.0482119205298018	-3.30807947019868	1.34251655629139				0.255788079470199	-0.158834437086093	-0.900238410596026	-0.539602649006623	-0.962384105960265	-0.194701986754968			
8	260	-0.200158940397351	0.114754966887417	-0.935523178807947	4.23337748344371	0.695364238410596	-0.904900662251656				0.960953642384106	0.127788079470199	0.0131390728476822	1.27390728476821	1.42781456953642	1.09403973509934				-0.250172185430464	-0.0812715231788079	-0.88794701986755	0.00741721854304636	0.146490066225167	-0.20026490066225				0.368529801324503	-0.224529801324503	-0.869721854304636	1.64291390728477	-1.7764238410596	1.34437086092715				0.932026490066225	0.0834966887417219	0.197933774834437	-0.328211920529802	-2.18807947019868	1.06251655629139				0.255788079470199	-0.142834437086093	-0.900238410596026	-0.259602649006623	-2.08238410596027	-0.474701986754968			
9	280	-0.200158940397351	0.130754966887417	-0.951523178807947	-1.36662251655629	1.2553642384106	-1.74490066225166				0.976953642384106	0.143788079470199	0.0291390728476822	2.11390728476821	1.98781456953642	1.09403973509934				-0.234172185430464	-0.0652715231788079	-0.87194701986755	-0.272582781456954	-0.413509933774833	-0.20026490066225				0.352529801324503	-0.224529801324503	-0.869721854304636	-0.597086092715232	-2.6164238410596	-0.0556291390728476				0.948026490066225	0.0834966887417219	0.213933774834437	0.791788079470198	-0.508079470198675	1.34251655629139				0.255788079470199	-0.142834437086093	-0.900238410596026	0.860397350993377	-2.36238410596027	-1.03470198675497			
10	300	-0.184158940397351	0.130754966887417	-0.935523178807947	0.0333774834437086	0.975364238410596	-1.46490066225166				0.976953642384106	0.143788079470199	0.0291390728476822	2.11390728476821	0.867814569536424	-0.0259602649006601				-0.250172185430464	-0.0652715231788079	-0.88794701986755	0.00741721854304636	0.146490066225167	0.0797350993377501				0.352529801324503	-0.240529801324503	-0.885721854304636	1.36291390728477	-0.9364238410596	0.224370860927152				0.964026490066225	0.0834966887417219	0.197933774834437	1.0717880794702	0.0519205298013249	2.18251655629139				0.255788079470199	-0.158834437086093	-0.916238410596027	1.14039735099338	-1.52238410596026	-0.754701986754968			
11	320	-0.200158940397351	0.130754966887417	-0.935523178807947	0.873377483443709	0.135364238410596	-0.904900662251656				0.976953642384106	0.143788079470199	0.0131390728476822	0.153907284768212	1.14781456953642	0.53403973509934				-0.250172185430464	-0.0652715231788079	-0.87194701986755	0.567417218543046	0.426490066225167	-0.20026490066225				0.368529801324503	-0.240529801324503	-0.853721854304636	3.04291390728477	0.4635761589404	0.504370860927152				0.964026490066225	0.0834966887417219	0.181933774834437	1.0717880794702	-0.228079470198675	1.06251655629139				0.255788079470199	-0.142834437086093	-0.900238410596026	0.580397350993377	-0.962384105960265	-1.03470198675497			
12	340	-0.200158940397351	0.114754966887417	-0.935523178807947	-1.08662251655629	-0.424635761589404	-1.18490066225166				0.992953642384106	0.127788079470199	0.0131390728476822	-0.966092715231788	-0.812185430463576	0.53403973509934				-0.250172185430464	-0.0652715231788079	-0.88794701986755	-0.552582781456954	-0.133509933774833	-0.76026490066225				0.368529801324503	-0.224529801324503	-0.869721854304636	1.64291390728477	0.4635761589404	2.18437086092715				0.948026490066225	0.0674966887417219	0.197933774834437	2.1917880794702	-1.90807947019868	0.222516556291392				0.271788079470199	-0.158834437086093	-0.900238410596026	0.300397350993377	-1.24238410596026	-1.03470198675497			
13	360	-0.200158940397351	0.114754966887417	-0.951523178807947	-1.08662251655629	0.415364238410596	-1.18490066225166				0.976953642384106	0.143788079470199	0.0291390728476822	-0.406092715231788	0.0278145695364242	0.81403973509934				-0.250172185430464	-0.0652715231788079	-0.88794701986755	0.847417218543046	0.146490066225167	-0.20026490066225				0.352529801324503	-0.224529801324503	-0.869721854304636	2.20291390728477	-1.2164238410596	1.62437086092715				0.948026490066225	0.0674966887417219	0.197933774834437	1.0717880794702	-2.46807947019868	1.34251655629139				0.255788079470199	-0.142834437086093	-0.900238410596026	-0.259602649006623	-1.24238410596026	-2.15470198675497			
14	380	-0.200158940397351	0.130754966887417	-0.951523178807947	0.873377483443709	0.135364238410596	-0.904900662251656				0.976953642384106	0.143788079470199	0.0451390728476822	1.27390728476821	2.54781456953642	0.53403973509934				-0.250172185430464	-0.0652715231788079	-0.90394701986755	2.52741721854305	1.26649006622517	-0.20026490066225				0.352529801324503	-0.224529801324503	-0.885721854304636	1.92291390728477	-0.9364238410596	-0.0556291390728476				0.932026490066225	0.0834966887417219	0.197933774834437	0.791788079470198	0.0519205298013249	0.222516556291392				0.239788079470199	-0.142834437086093	-0.916238410596027	-0.259602649006623	-1.24238410596026	-2.71470198675497			
15	400	-0.200158940397351	0.114754966887417	-0.951523178807947	0.0333774834437086	0.415364238410596	-0.344900662251656				0.976953642384106	0.143788079470199	0.0451390728476822	0.433907284768212	1.14781456953642	0.81403973509934				-0.250172185430464	-0.0652715231788079	-0.88794701986755	2.24741721854305	1.82649006622517	-0.76026490066225				0.352529801324503	-0.240529801324503	-0.885721854304636	1.36291390728477	-0.0964238410596001	-0.615629139072848				0.948026490066225	0.0834966887417219	0.181933774834437	1.0717880794702	-0.788079470198675	0.502516556291392				0.239788079470199	-0.142834437086093	-0.900238410596026	1.14039735099338	-1.80238410596026	-3.27470198675497			
16	420	-0.200158940397351	0.114754966887417	-0.951523178807947	0.593377483443709	0.695364238410596	-1.18490066225166				0.960953642384106	0.127788079470199	0.0291390728476822	-2.08609271523179	0.587814569536424	1.09403973509934				-0.250172185430464	-0.0812715231788079	-0.88794701986755	1.68741721854305	1.54649006622517	-0.76026490066225				0.352529801324503	-0.240529801324503	-0.869721854304636	0.242913907284768	-0.9364238410596	-1.45562913907285				0.948026490066225	0.0674966887417219	0.213933774834437	0.511788079470198	1.73192052980133	-0.337483443708608				0.255788079470199	-0.142834437086093	-0.900238410596026	1.98039735099338	-1.80238410596026	-2.43470198675497			
17	440	-0.200158940397351	0.114754966887417	-0.935523178807947	0.313377483443709	0.415364238410596	-0.904900662251656				0.976953642384106	0.127788079470199	0.0451390728476822	-1.24609271523179	1.42781456953642	0.53403973509934				-0.250172185430464	-0.0812715231788079	-0.88794701986755	0.847417218543046	-0.413509933774833	0.0797350993377501				0.352529801324503	-0.224529801324503	-0.869721854304636	-2.27708609271523	-0.9364238410596	-2.01562913907285				0.948026490066225	0.0834966887417219	0.197933774834437	-1.1682119205298	3.41192052980132	-2.01748344370861				0.255788079470199	-0.158834437086093	-0.900238410596026	1.14039735099338	-2.36238410596027	-2.15470198675497			
18	460	-0.200158940397351	0.114754966887417	-0.951523178807947	-0.246622516556291	-0.704635761589404	-0.624900662251656				0.992953642384106	0.143788079470199	0.0291390728476822	1.83390728476821	-3.05218543046358	0.53403973509934				-0.250172185430464	-0.0812715231788079	-0.88794701986755	-1.95258278145695	-0.693509933774834	-0.48026490066225				0.352529801324503	-0.224529801324503	-0.869721854304636	-2.27708609271523	-0.6564238410596	-1.45562913907285				0.964026490066225	0.0674966887417219	0.197933774834437	0.791788079470198	2.01192052980133	-0.897483443708608				0.255788079470199	-0.142834437086093	-0.900238410596026	-0.259602649006623	-1.80238410596026	-2.71470198675497			
19	480	-0.200158940397351	0.130754966887417	-0.935523178807947	0.0333774834437086	0.695364238410596	-0.624900662251656				0.976953642384106	0.143788079470199	0.0131390728476822	2.95390728476821	-2.49218543046358	-0.0259602649006601				-0.250172185430464	-0.0652715231788079	-0.88794701986755	0.00741721854304636	-0.133509933774833	0.0797350993377501				0.368529801324503	-0.224529801324503	-0.853721854304636	0.242913907284768	-0.3764238410596	-0.335629139072848				0.948026490066225	0.0834966887417219	0.213933774834437	1.6317880794702	2.01192052980133	0.782516556291392				0.271788079470199	-0.158834437086093	-0.916238410596027	0.860397350993377	-1.52238410596026	-2.71470198675497			
20	500	-0.200158940397351	0.130754966887417	-0.951523178807947	1.43337748344371	0.415364238410596	-0.904900662251656				0.976953642384106	0.127788079470199	0.0131390728476822	2.39390728476821	-3.33218543046358	0.53403973509934				-0.250172185430464	-0.0652715231788079	-0.88794701986755	1.12741721854305	1.26649006622517	0.35973509933775				0.368529801324503	-0.224529801324503	-0.853721854304636	0.802913907284768	-0.0964238410596001	-0.0556291390728476				0.964026490066225	0.0994966887417219	0.197933774834437	0.511788079470198	1.17192052980133	-0.337483443708608				0.255788079470199	-0.158834437086093	-0.916238410596027	1.42039735099338	0.157615894039735	-2.43470198675497			
21	520	-0.200158940397351	0.114754966887417	-0.935523178807947	0.313377483443709	0.415364238410596	-1.18490066225166				0.976953642384106	0.143788079470199	0.0131390728476822	0.433907284768212	-3.05218543046358	1.09403973509934				-0.250172185430464	-0.0812715231788079	-0.87194701986755	3.08741721854305	2.10649006622517	0.0797350993377501				0.352529801324503	-0.240529801324503	-0.869721854304636	1.64291390728477	0.7435761589404	0.504370860927152				0.948026490066225	0.0834966887417219	0.213933774834437	0.791788079470198	0.611920529801325	-0.617483443708608				0.271788079470199	-0.142834437086093	-0.916238410596027	1.42039735099338	-0.962384105960265	-2.43470198675497			
22	540	-0.184158940397351	0.114754966887417	-0.951523178807947	-0.526622516556291	0.135364238410596	-1.18490066225166				0.976953642384106	0.127788079470199	0.0291390728476822	-0.406092715231788	-3.05218543046358	0.81403973509934				-0.250172185430464	-0.0812715231788079	-0.88794701986755	3.36741721854305	0.986490066225167	0.0797350993377501				0.352529801324503	-0.224529801324503	-0.869721854304636	1.08291390728477	0.4635761589404	0.224370860927152				0.948026490066225	0.0834966887417219	0.213933774834437	-0.888211920529802	0.891920529801325	0.502516556291392				0.271788079470199	-0.158834437086093	-0.916238410596027	0.580397350993377	-1.80238410596026	-1.31470198675497			
23	560	-0.200158940397351	0.130754966887417	-0.951523178807947	-0.246622516556291	0.695364238410596	-1.18490066225166				0.976953642384106	0.143788079470199	0.0131390728476822	1.27390728476821	-5.01218543046358	0.81403973509934				-0.250172185430464	-0.0652715231788079	-0.87194701986755	1.68741721854305	0.426490066225167	0.0797350993377501				0.368529801324503	-0.224529801324503	-0.869721854304636	0.802913907284768	0.1835761589404	-0.335629139072848				0.948026490066225	0.0834966887417219	0.213933774834437	0.231788079470198	0.891920529801325	0.502516556291392				0.271788079470199	-0.158834437086093	-0.916238410596027	2.54039735099338	-2.08238410596027	-0.754701986754968			
24	580	-0.184158940397351	0.114754966887417	-0.951523178807947	1.43337748344371	0.135364238410596	-0.624900662251656				0.976953642384106	0.143788079470199	-0.00286092715231785	2.67390728476821	-3.61218543046358	0.81403973509934				-0.250172185430464	-0.0652715231788079	-0.88794701986755	1.40741721854305	1.54649006622517	0.0797350993377501				0.352529801324503	-0.224529801324503	-0.853721854304636	1.92291390728477	-0.0964238410596001	-0.615629139072848				0.948026490066225	0.0834966887417219	0.197933774834437	-0.0482119205298018	0.891920529801325	0.222516556291392				0.255788079470199	-0.158834437086093	-0.900238410596026	2.26039735099338	-1.24238410596026	-1.03470198675497			
25	600	-0.200158940397351	0.114754966887417	-0.935523178807947	0.313377483443709	0.415364238410596	-1.18490066225166				0.976953642384106	0.127788079470199	0.0131390728476822	0.433907284768212	-1.37218543046358	0.25403973509934				-0.250172185430464	-0.0652715231788079	-0.88794701986755	1.12741721854305	1.82649006622517	-0.48026490066225				0.368529801324503	-0.224529801324503	-0.853721854304636	1.08291390728477	-0.3764238410596	-0.615629139072848				0.948026490066225	0.0674966887417219	0.213933774834437	-1.4482119205298	0.611920529801325	0.222516556291392				0.271788079470199	-0.158834437086093	-0.900238410596026	0.860397350993377	-1.80238410596026	-0.754701986754968			
26	620	-0.184158940397351	0.114754966887417	-0.935523178807947	0.0333774834437086	0.135364238410596	-0.624900662251656				0.976953642384106	0.143788079470199	0.0291390728476822	-0.126092715231788	-1.93218543046358	0.81403973509934				-0.250172185430464	-0.0812715231788079	-0.88794701986755	1.96741721854305	0.146490066225167	-0.76026490066225				0.368529801324503	-0.224529801324503	-0.853721854304636	0.522913907284768	0.1835761589404	-0.335629139072848				0.948026490066225	0.0834966887417219	0.213933774834437	-1.4482119205298	0.331920529801325	-0.617483443708608				0.255788079470199	-0.142834437086093	-0.900238410596026	2.26039735099338	-3.76238410596027	-1.03470198675497			
27	640	-0.184158940397351	0.114754966887417	-0.951523178807947	0.313377483443709	-0.144635761589404	-1.46490066225166				0.992953642384106	0.127788079470199	0.0131390728476822	0.713907284768212	-3.05218543046358	1.65403973509934				-0.234172185430464	-0.0812715231788079	-0.87194701986755	0.567417218543046	0.146490066225167	-0.48026490066225				0.368529801324503	-0.240529801324503	-0.853721854304636	1.92291390728477	0.4635761589404	-0.0556291390728476				0.948026490066225	0.0674966887417219	0.197933774834437	-1.7282119205298	-1.62807947019868	0.782516556291392				0.271788079470199	-0.158834437086093	-0.884238410596026	1.98039735099338	-3.48238410596027	-1.59470198675497			
28	660	-0.200158940397351	0.114754966887417	-0.935523178807947	0.313377483443709	-0.144635761589404	-1.46490066225166				0.960953642384106	0.143788079470199	0.0131390728476822	2.11390728476821	-1.93218543046358	1.09403973509934				-0.250172185430464	-0.0812715231788079	-0.87194701986755	-1.39258278145695	-0.133509933774833	-1.32026490066225				0.368529801324503	-0.224529801324503	-0.869721854304636	2.20291390728477	0.7435761589404	1.34437086092715				0.932026490066225	0.0834966887417219	0.213933774834437	-1.1682119205298	0.891920529801325	1.34251655629139				0.255788079470199	-0.158834437086093	-0.900238410596026	2.54039735099338	-2.36238410596027	-1.31470198675497			
29	680	-0.216158940397351	0.114754966887417	-0.951523178807947	0.0333774834437086	0.135364238410596	-1.18490066225166				0.976953642384106	0.127788079470199	0.0131390728476822	0.433907284768212	-1.65218543046358	1.09403973509934				-0.250172185430464	-0.0812715231788079	-0.87194701986755	-1.11258278145695	-0.413509933774833	-0.48026490066225				0.368529801324503	-0.224529801324503	-0.869721854304636	1.36291390728477	1.5835761589404	0.784370860927152				0.948026490066225	0.0834966887417219	0.213933774834437	-2.0082119205298	0.0519205298013249	0.502516556291392				0.255788079470199	-0.158834437086093	-0.900238410596026	1.14039735099338	-2.08238410596027	0.645298013245032			
30	700	-0.200158940397351	0.114754966887417	-0.951523178807947	0.313377483443709	0.135364238410596	-1.18490066225166				0.992953642384106	0.127788079470199	0.0131390728476822	0.153907284768212	-1.37218543046358	1.09403973509934				-0.250172185430464	-0.0812715231788079	-0.88794701986755	1.40741721854305	0.146490066225167	-0.20026490066225				0.368529801324503	-0.224529801324503	-0.853721854304636	2.20291390728477	2.1435761589404	1.06437086092715				0.948026490066225	0.0834966887417219	0.197933774834437	0.511788079470198	-0.228079470198675	1.06251655629139				0.255788079470199	-0.142834437086093	-0.900238410596026	1.42039735099338	-1.52238410596026	-0.194701986754968			
31	720	-0.184158940397351	0.114754966887417	-0.951523178807947	0.0333774834437086	0.415364238410596	-0.904900662251656				0.976953642384106	0.127788079470199	0.0131390728476822	0.153907284768212	0.0278145695364242	0.53403973509934				-0.234172185430464	-0.0812715231788079	-0.88794701986755	1.68741721854305	0.986490066225167	0.0797350993377501				0.368529801324503	-0.240529801324503	-0.837721854304636	1.64291390728477	0.7435761589404	0.504370860927152				0.948026490066225	0.0674966887417219	0.213933774834437	-1.1682119205298	0.891920529801325	1.62251655629139				0.255788079470199	-0.158834437086093	-0.900238410596026	1.70039735099338	-0.962384105960265	-1.59470198675497			
32	740	-0.184158940397351	0.114754966887417	-0.951523178807947	0.313377483443709	0.415364238410596	-0.344900662251656				0.976953642384106	0.127788079470199	0.0131390728476822	-0.686092715231788	2.26781456953642	1.37403973509934				-0.234172185430464	-0.0812715231788079	-0.87194701986755	1.96741721854305	0.146490066225167	-0.48026490066225				0.368529801324503	-0.240529801324503	-0.853721854304636	2.48291390728477	0.4635761589404	1.06437086092715				0.948026490066225	0.0834966887417219	0.213933774834437	-0.328211920529802	-0.508079470198675	0.782516556291392				0.255788079470199	-0.158834437086093	-0.884238410596026	2.26039735099338	-0.962384105960265	-0.754701986754968			
33	760	-0.200158940397351	0.114754966887417	-0.951523178807947	0.873377483443709	-0.424635761589404	-1.46490066225166				0.976953642384106	0.143788079470199	0.0131390728476822	-0.686092715231788	2.26781456953642	1.65403973509934				-0.250172185430464	-0.0812715231788079	-0.87194701986755	-0.272582781456954	-0.133509933774833	0.0797350993377501				0.368529801324503	-0.240529801324503	-0.869721854304636	3.32291390728477	1.8635761589404	1.34437086092715				0.948026490066225	0.0674966887417219	0.213933774834437	-0.0482119205298018	-1.34807947019868	0.502516556291392				0.255788079470199	-0.158834437086093	-0.900238410596026	0.580397350993377	0.437615894039735	-0.194701986754968			
34	780	-0.200158940397351	0.130754966887417	-0.951523178807947	-0.246622516556291	0.135364238410596	-1.46490066225166				0.992953642384106	0.127788079470199	0.0131390728476822	-0.966092715231788	1.42781456953642	1.37403973509934				-0.250172185430464	-0.0652715231788079	-0.88794701986755	-1.95258278145695	-0.133509933774833	0.0797350993377501				0.368529801324503	-0.256529801324503	-0.869721854304636	1.64291390728477	1.3035761589404	1.34437086092715				0.948026490066225	0.0834966887417219	0.213933774834437	0.231788079470198	-0.788079470198675	1.34251655629139				0.255788079470199	-0.158834437086093	-0.900238410596026	-0.539602649006623	0.437615894039735	0.925298013245032			
35	800	-0.200158940397351	0.114754966887417	-0.935523178807947	-0.526622516556291	0.695364238410596	-1.18490066225166				0.992953642384106	0.127788079470199	0.0131390728476822	-1.52609271523179	1.42781456953642	1.09403973509934				-0.234172185430464	-0.0652715231788079	-0.88794701986755	1.12741721854305	1.26649006622517	-0.20026490066225				0.368529801324503	-0.240529801324503	-0.853721854304636	-1.15708609271523	0.7435761589404	1.06437086092715				0.948026490066225	0.0674966887417219	0.213933774834437	-0.0482119205298018	-0.508079470198675	0.502516556291392				0.255788079470199	-0.158834437086093	-0.900238410596026	1.98039735099338	-1.24238410596026	0.645298013245032			
36	820	-0.200158940397351	0.130754966887417	-0.935523178807947	0.593377483443709	-0.144635761589404	-1.18490066225166				0.992953642384106	0.127788079470199	-0.00286092715231785	-0.406092715231788	-0.812185430463576	1.65403973509934				-0.250172185430464	-0.0652715231788079	-0.88794701986755	2.52741721854305	0.426490066225167	-0.20026490066225				0.368529801324503	-0.224529801324503	-0.853721854304636	1.08291390728477	-0.0964238410596001	1.62437086092715				0.948026490066225	0.0834966887417219	0.213933774834437	-1.4482119205298	-1.06807947019868	1.06251655629139				0.271788079470199	-0.158834437086093	-0.900238410596026	1.42039735099338	-1.80238410596026	1.76529801324503			
37	840	-0.200158940397351	0.114754966887417	-0.935523178807947	-0.806622516556291	-0.144635761589404	-0.904900662251656				0.976953642384106	0.127788079470199	-0.00286092715231785	-0.126092715231788	-1.09218543046358	0.81403973509934				-0.250172185430464	-0.0812715231788079	-0.87194701986755	2.24741721854305	-0.133509933774833	-0.48026490066225				0.368529801324503	-0.224529801324503	-0.853721854304636	2.76291390728477	-0.0964238410596001	2.74437086092715				0.948026490066225	0.0834966887417219	0.213933774834437	-0.608211920529802	-0.788079470198675	1.34251655629139				0.255788079470199	-0.174834437086093	-0.900238410596026	0.860397350993377	-2.08238410596027	1.76529801324503			
38	860	-0.200158940397351	0.114754966887417	-0.951523178807947	-0.806622516556291	-0.144635761589404	-1.46490066225166				0.976953642384106	0.127788079470199	-0.00286092715231785	-0.686092715231788	1.42781456953642	0.81403973509934				-0.250172185430464	-0.0812715231788079	-0.87194701986755	0.847417218543046	0.426490066225167	-0.48026490066225				0.368529801324503	-0.240529801324503	-0.869721854304636	3.32291390728477	1.0235761589404	3.30437086092715				0.948026490066225	0.0674966887417219	0.213933774834437	-0.0482119205298018	-1.62807947019868	1.34251655629139				0.255788079470199	-0.174834437086093	-0.900238410596026	1.14039735099338	-2.08238410596027	2.32529801324503			
39	880	-0.200158940397351	0.114754966887417	-0.951523178807947	0.313377483443709	-0.704635761589404	-1.46490066225166				0.992953642384106	0.127788079470199	0.0291390728476822	-0.406092715231788	0.307814569536424	0.81403973509934				-0.250172185430464	-0.0652715231788079	-0.88794701986755	0.287417218543046	0.986490066225167	0.0797350993377501				0.352529801324503	-0.256529801324503	-0.853721854304636	1.36291390728477	1.3035761589404	3.86437086092715				0.948026490066225	0.0834966887417219	0.197933774834437	-1.7282119205298	-0.788079470198675	0.782516556291392				0.255788079470199	-0.158834437086093	-0.916238410596027	0.580397350993377	-2.08238410596027	2.60529801324503			
40	900	-0.200158940397351	0.114754966887417	-0.967523178807947	0.0333774834437086	0.415364238410596	-0.904900662251656				0.976953642384106	0.127788079470199	0.0291390728476822	-0.406092715231788	-1.09218543046358	0.81403973509934				-0.250172185430464	-0.0652715231788079	-0.88794701986755	0.847417218543046	0.706490066225167	-0.48026490066225				0.368529801324503	-0.240529801324503	-0.853721854304636	0.242913907284768	1.0235761589404	4.14437086092715				0.948026490066225	0.0674966887417219	0.197933774834437	-2.0082119205298	0.331920529801325	1.06251655629139				0.255788079470199	-0.158834437086093	-0.916238410596027	1.70039735099338	-3.48238410596027	1.76529801324503			
41	920	-0.200158940397351	0.130754966887417	-0.951523178807947	-0.246622516556291	0.975364238410596	-1.18490066225166				0.976953642384106	0.143788079470199	0.0131390728476822	0.713907284768212	-2.77218543046358	0.81403973509934				-0.250172185430464	-0.0812715231788079	-0.88794701986755	1.96741721854305	0.986490066225167	-0.76026490066225				0.368529801324503	-0.256529801324503	-0.853721854304636	1.92291390728477	0.7435761589404	4.70437086092715				0.948026490066225	0.0674966887417219	0.213933774834437	-2.0082119205298	-0.228079470198675	0.782516556291392				0.239788079470199	-0.158834437086093	-0.916238410596027	2.82039735099338	-3.20238410596026	1.76529801324503			
42	940	0	0	0	0	0	0				0	0	0	0	0	0				0	0	0	0	0	0				0.368529801324503	-0.240529801324503	-0.869721854304636	2.20291390728477	0.1835761589404	3.86437086092715				0	0	0	0	0	0				0	0	0	0	0	0			
43	1040	0	0	0	0	0	0				0.976953642384106	0.127788079470199	-0.0188609271523178	1.55390728476821	-5.57218543046358	1.37403973509934				-0.250172185430464	-0.0652715231788079	-0.88794701986755	0.00741721854304636	0.426490066225167	-0.20026490066225				0	0	0	0	0	0				0	0	0	0	0	0				0	0	0	0	0	0			
44	1060	-0.200158940397351	0.114754966887417	-0.951523178807947	-0.526622516556291	0.695364238410596	-0.624900662251656				0.992953642384106	0.127788079470199	-0.00286092715231785	0.713907284768212	-1.93218543046358	0.25403973509934				-0.250172185430464	-0.0812715231788079	-0.88794701986755	1.96741721854305	0.706490066225167	0.63973509933775				0.368529801324503	-0.240529801324503	-0.853721854304636	-1.71708609271523	-0.6564238410596	3.02437086092715				0.948026490066225	0.0674966887417219	0.197933774834437	1.0717880794702	0.611920529801325	0.502516556291392				0.239788079470199	-0.174834437086093	-0.916238410596027	2.82039735099338	-3.76238410596027	-2.43470198675497			
45	1080	-0.200158940397351	0.114754966887417	-0.935523178807947	0.313377483443709	0.975364238410596	-0.344900662251656				0.976953642384106	0.143788079470199	0.0131390728476822	2.39390728476821	-2.77218543046358	1.09403973509934				-0.250172185430464	-0.0812715231788079	-0.88794701986755	2.24741721854305	1.82649006622517	0.0797350993377501				0.384529801324503	-0.256529801324503	-0.869721854304636	-3.11708609271523	-2.3364238410596	1.90437086092715				0.964026490066225	0.0834966887417219	0.197933774834437	-0.608211920529802	1.17192052980133	0.782516556291392				0.239788079470199	-0.174834437086093	-0.916238410596027	4.22039735099338	-4.32238410596027	-2.15470198675497			
46	1100	-0.216158940397351	0.114754966887417	-0.951523178807947	0.0333774834437086	0.135364238410596	-1.18490066225166				0.976953642384106	0.143788079470199	-0.00286092715231785	1.83390728476821	-1.37218543046358	2.49403973509934				-0.266172185430464	-0.0812715231788079	-0.88794701986755	-0.272582781456954	0.146490066225167	0.35973509933775				0.352529801324503	-0.256529801324503	-0.885721854304636	-0.597086092715232	-1.2164238410596	2.46437086092715				0.948026490066225	0.0674966887417219	0.213933774834437	-0.608211920529802	0.611920529801325	-0.0574834437086077				0.239788079470199	-0.174834437086093	-0.916238410596027	3.10039735099338	-4.88238410596027	-1.31470198675497			
47	1120	-0.200158940397351	0.114754966887417	-0.951523178807947	0.313377483443709	0.415364238410596	-0.904900662251656				0.976953642384106	0.127788079470199	0.0291390728476822	2.39390728476821	1.42781456953642	4.17403973509934				-0.250172185430464	-0.0812715231788079	-0.87194701986755	-0.272582781456954	0.426490066225167	0.0797350993377501				0.352529801324503	-0.272529801324503	-0.901721854304636	0.242913907284768	-0.3764238410596	2.18437086092715				0.964026490066225	0.0674966887417219	0.197933774834437	-0.0482119205298018	-0.788079470198675	-0.337483443708608				0.239788079470199	-0.158834437086093	-0.916238410596027	1.70039735099338	-5.72238410596027	-0.474701986754968			
48	1140	-0.200158940397351	0.114754966887417	-0.951523178807947	0.313377483443709	0.975364238410596	-0.624900662251656				0.992953642384106	0.127788079470199	0.0611390728476822	6.87390728476821	-2.21218543046358	6.69403973509934				-0.234172185430464	-0.0812715231788079	-0.88794701986755	-0.552582781456954	0.706490066225167	0.63973509933775				0.352529801324503	-0.272529801324503	-0.885721854304636	-1.71708609271523	0.1835761589404	1.62437086092715				0.964026490066225	0.0834966887417219	0.181933774834437	-0.888211920529802	-1.34807947019868	-1.17748344370861				0.239788079470199	-0.158834437086093	-0.916238410596027	3.66039735099338	-6.84238410596027	0.0852980132450323			
49	1160	-0.200158940397351	0.114754966887417	-0.935523178807947	-1.08662251655629	1.2553642384106	-0.904900662251656				1.00895364238411	0.111788079470199	-0.0188609271523178	9.11390728476821	-4.17218543046358	8.37403973509934				-0.234172185430464	-0.0812715231788079	-0.87194701986755	-0.552582781456954	0.146490066225167	-0.20026490066225				0.352529801324503	-0.240529801324503	-0.869721854304636	-5.07708609271523	-2.3364238410596	0.784370860927152				0.948026490066225	0.0674966887417219	0.197933774834437	-3.9682119205298	1.17192052980133	-3.69748344370861				0.239788079470199	-0.174834437086093	-0.900238410596026	3.94039735099338	-6.28238410596027	1.20529801324503			
50	1180	-0.200158940397351	0.114754966887417	-0.935523178807947	-1.08662251655629	0.695364238410596	-1.46490066225166				0.992953642384106	0.127788079470199	-0.0348609271523178	9.67390728476821	-1.09218543046358	7.25403973509934				-0.234172185430464	-0.0812715231788079	-0.88794701986755	-0.832582781456954	0.146490066225167	-1.32026490066225				0.336529801324503	-0.224529801324503	-0.853721854304636	-8.15708609271523	-4.8564238410596	0.224370860927152				0.932026490066225	0.0674966887417219	0.229933774834437	-5.6482119205298	2.57192052980133	-3.41748344370861				0.223788079470199	-0.174834437086093	-0.900238410596026	2.26039735099338	-4.04238410596027	2.32529801324503			
51	1200	-0.200158940397351	0.130754966887417	-0.951523178807947	0.0333774834437086	0.695364238410596	-1.46490066225166				0.976953642384106	0.127788079470199	-0.0508609271523178	6.87390728476821	1.98781456953642	5.85403973509934				-0.250172185430464	-0.0652715231788079	-0.90394701986755	0.847417218543046	0.706490066225167	-1.04026490066225				0.336529801324503	-0.224529801324503	-0.853721854304636	-6.47708609271523	-4.2964238410596	0.224370860927152				0.932026490066225	0.0674966887417219	0.229933774834437	-4.5282119205298	3.13192052980133	-2.29748344370861				0.223788079470199	-0.174834437086093	-0.884238410596026	0.300397350993377	-3.20238410596026	1.76529801324503			
52	1220	-0.200158940397351	0.130754966887417	-0.951523178807947	-0.246622516556291	0.975364238410596	-0.904900662251656				0.976953642384106	0.127788079470199	-0.0348609271523178	4.91390728476821	5.90781456953642	5.01403973509934				-0.234172185430464	-0.0652715231788079	-0.88794701986755	0.567417218543046	2.38649006622517	-0.48026490066225				0.352529801324503	-0.240529801324503	-0.853721854304636	-5.35708609271523	-2.8964238410596	-0.0556291390728476				0.964026490066225	0.0674966887417219	0.181933774834437	-4.5282119205298	1.45192052980132	-2.57748344370861				0.223788079470199	-0.174834437086093	-0.900238410596026	0.580397350993377	-2.36238410596027	2.32529801324503			
53	1240	-0.200158940397351	0.114754966887417	-0.951523178807947	0.0333774834437086	0.975364238410596	0.215099337748344				0.960953642384106	0.111788079470199	-0.0188609271523178	2.11390728476821	6.46781456953642	2.77403973509934				-0.234172185430464	-0.0652715231788079	-0.85594701986755	-0.272582781456954	1.26649006622517	-0.48026490066225				0.336529801324503	-0.224529801324503	-0.837721854304636	-5.07708609271523	-2.3364238410596	-0.335629139072848				0.932026490066225	0.0834966887417219	0.213933774834437	-2.8482119205298	2.29192052980133	-2.29748344370861				0.223788079470199	-0.174834437086093	-0.900238410596026	3.10039735099338	-2.36238410596027	1.20529801324503			
54	1260	-0.200158940397351	0.114754966887417	-0.935523178807947	0.873377483443709	0.415364238410596	-0.0649006622516557				0.992953642384106	0.127788079470199	-0.00286092715231785	1.55390728476821	3.38781456953642	1.93403973509934				-0.250172185430464	-0.0812715231788079	-0.88794701986755	2.52741721854305	-0.413509933774833	0.35973509933775				0.336529801324503	-0.224529801324503	-0.837721854304636	-3.67708609271523	-0.6564238410596	0.784370860927152				0.932026490066225	0.0674966887417219	0.213933774834437	-3.6882119205298	2.85192052980133	-2.01748344370861				0.223788079470199	-0.190834437086093	-0.884238410596026	2.54039735099338	-1.24238410596026	2.32529801324503			
55	1280	-0.200158940397351	0.114754966887417	-0.951523178807947	0.313377483443709	0.415364238410596	-0.624900662251656				0.976953642384106	0.111788079470199	-0.00286092715231785	-1.24609271523179	3.94781456953642	-0.30596026490066				-0.250172185430464	-0.0812715231788079	-0.88794701986755	1.12741721854305	0.706490066225167	0.35973509933775				0.336529801324503	-0.224529801324503	-0.837721854304636	-0.317086092715232	1.3035761589404	1.62437086092715				0.932026490066225	0.0674966887417219	0.229933774834437	-1.1682119205298	2.29192052980133	-1.17748344370861				0.223788079470199	-0.174834437086093	-0.884238410596026	1.14039735099338	0.717615894039735	2.32529801324503			
56	1300	-0.184158940397351	0.114754966887417	-0.951523178807947	-0.246622516556291	0.135364238410596	-0.904900662251656				0.960953642384106	0.111788079470199	-0.00286092715231785	-0.966092715231788	7.02781456953642	-0.30596026490066				-0.250172185430464	-0.0812715231788079	-0.87194701986755	0.287417218543046	0.706490066225167	-0.20026490066225				0.336529801324503	-0.240529801324503	-0.869721854304636	0.242913907284768	2.4235761589404	1.34437086092715				0.948026490066225	0.0514966887417219	0.213933774834437	-1.1682119205298	2.85192052980133	-0.337483443708608				0.223788079470199	-0.174834437086093	-0.900238410596026	0.860397350993377	1.83761589403974	1.76529801324503			
57	1320	-0.184158940397351	0.130754966887417	-0.951523178807947	0.873377483443709	0.135364238410596	-0.904900662251656				0.992953642384106	0.111788079470199	-0.00286092715231785	-0.126092715231788	7.86781456953642	0.53403973509934				-0.250172185430464	-0.0812715231788079	-0.87194701986755	-1.67258278145695	-0.133509933774833	0.0797350993377501				0.368529801324503	-0.240529801324503	-0.853721854304636	-1.71708609271523	3.5435761589404	0.504370860927152				0.948026490066225	0.0674966887417219	0.213933774834437	-0.0482119205298018	3.97192052980133	-0.0574834437086077				0.223788079470199	-0.174834437086093	-0.900238410596026	0.580397350993377	2.39761589403974	1.48529801324503			
58	1340	-0.200158940397351	0.114754966887417	-0.951523178807947	0.873377483443709	0.135364238410596	-1.18490066225166				0.976953642384106	0.0957880794701987	0.0131390728476822	-0.966092715231788	6.74781456953642	-0.0259602649006601				-0.234172185430464	-0.0812715231788079	-0.88794701986755	-1.39258278145695	-0.973509933774833	-0.20026490066225				0.368529801324503	-0.224529801324503	-0.853721854304636	-2.55708609271523	1.3035761589404	-0.615629139072848				0.948026490066225	0.0834966887417219	0.229933774834437	-0.608211920529802	3.97192052980133	-1.45748344370861				0.239788079470199	-0.190834437086093	-0.900238410596026	-0.259602649006623	2.95761589403974	1.20529801324503			
59	1360	-0.200158940397351	0.114754966887417	-0.935523178807947	0.0333774834437086	0.415364238410596	-1.46490066225166				0.976953642384106	0.111788079470199	0.0291390728476822	-1.80609271523179	7.58781456953643	-1.14596026490066				-0.234172185430464	-0.0812715231788079	-0.88794701986755	0.567417218543046	0.426490066225167	0.35973509933775				0.368529801324503	-0.208529801324503	-0.853721854304636	-1.43708609271523	2.1435761589404	-1.17562913907285				0.948026490066225	0.0674966887417219	0.229933774834437	-0.328211920529802	2.01192052980133	-0.337483443708608				0.239788079470199	-0.174834437086093	-0.900238410596026	0.300397350993377	3.23761589403974	0.645298013245032			
60	1380	-0.184158940397351	0.114754966887417	-0.951523178807947	-0.246622516556291	0.135364238410596	-1.18490066225166				0.976953642384106	0.111788079470199	0.0291390728476822	-1.24609271523179	9.82781456953643	-0.585960264900661				-0.250172185430464	-0.0812715231788079	-0.88794701986755	0.847417218543046	1.54649006622517	0.0797350993377501				0.368529801324503	-0.224529801324503	-0.853721854304636	1.64291390728477	2.4235761589404	-0.335629139072848				0.948026490066225	0.0834966887417219	0.229933774834437	1.9117880794702	0.611920529801325	1.06251655629139				0.239788079470199	-0.174834437086093	-0.916238410596027	0.580397350993377	4.07761589403974	0.645298013245032			
61	1400	-0.184158940397351	0.114754966887417	-0.951523178807947	0.313377483443709	0.135364238410596	-1.46490066225166				0.976953642384106	0.111788079470199	0.0291390728476822	-1.80609271523179	12.3478145695364	-0.86596026490066				-0.250172185430464	-0.0812715231788079	-0.87194701986755	-0.552582781456954	0.146490066225167	-0.76026490066225				0.368529801324503	-0.224529801324503	-0.853721854304636	0.242913907284768	2.7035761589404	-0.615629139072848				0.948026490066225	0.0834966887417219	0.213933774834437	1.3517880794702	0.891920529801325	0.502516556291392				0.223788079470199	-0.190834437086093	-0.916238410596027	0.0203973509933773	4.07761589403974	0.0852980132450323			
62	1420	-0.200158940397351	0.114754966887417	-0.935523178807947	0.313377483443709	0.135364238410596	-1.46490066225166				0.992953642384106	0.127788079470199	0.0451390728476822	-2.08609271523179	11.5078145695364	-1.70596026490066				-0.250172185430464	-0.0652715231788079	-0.88794701986755	1.12741721854305	0.986490066225167	-0.48026490066225				0.368529801324503	-0.240529801324503	-0.853721854304636	-1.43708609271523	3.2635761589404	-0.615629139072848				0.932026490066225	0.0834966887417219	0.229933774834437	1.0717880794702	3.13192052980133	1.06251655629139				0.239788079470199	-0.190834437086093	-0.884238410596026	-1.09960264900662	4.07761589403974	1.20529801324503			
63	1440	-0.200158940397351	0.130754966887417	-0.951523178807947	1.15337748344371	0.135364238410596	-0.344900662251656				0.976953642384106	0.127788079470199	0.0611390728476822	-3.48609271523179	7.58781456953643	-0.585960264900661				-0.234172185430464	-0.0652715231788079	-0.87194701986755	0.287417218543046	0.146490066225167	-0.76026490066225				0.368529801324503	-0.240529801324503	-0.853721854304636	-0.317086092715232	3.8235761589404	0.784370860927152				0.932026490066225	0.0674966887417219	0.245933774834437	1.3517880794702	3.41192052980132	0.782516556291392				0.255788079470199	-0.190834437086093	-0.900238410596026	-1.65960264900662	2.67761589403974	2.04529801324503			
64	1460	-0.184158940397351	0.114754966887417	-0.935523178807947	-0.526622516556291	-0.424635761589404	-0.344900662251656				0.992953642384106	0.127788079470199	0.0451390728476822	-4.32609271523179	7.86781456953642	-1.14596026490066				-0.250172185430464	-0.0812715231788079	-0.87194701986755	-0.832582781456954	-0.973509933774833	-0.76026490066225				0.352529801324503	-0.240529801324503	-0.869721854304636	0.242913907284768	4.9435761589404	3.02437086092715				0.948026490066225	0.0674966887417219	0.229933774834437	-0.0482119205298018	2.57192052980133	-0.897483443708608				0.255788079470199	-0.174834437086093	-0.900238410596026	-1.37960264900662	1.83761589403974	1.76529801324503			
65	1480	-0.184158940397351	0.114754966887417	-0.951523178807947	-0.526622516556291	-0.704635761589404	-2.02490066225166				0.976953642384106	0.127788079470199	0.0291390728476822	-5.16609271523179	9.26781456953642	-0.585960264900661				-0.250172185430464	-0.0812715231788079	-0.88794701986755	0.567417218543046	-0.413509933774833	-1.04026490066225				0.368529801324503	-0.256529801324503	-0.869721854304636	-0.317086092715232	5.5035761589404	5.26437086092715				0.948026490066225	0.0674966887417219	0.229933774834437	0.511788079470198	1.45192052980132	-0.337483443708608				0.271788079470199	-0.174834437086093	-0.900238410596026	0.580397350993377	1.83761589403974	1.20529801324503			
66	1500	-0.200158940397351	0.114754966887417	-0.951523178807947	0.873377483443709	-0.704635761589404	-1.46490066225166				0.992953642384106	0.111788079470199	0.0291390728476822	-7.96609271523179	5.90781456953642	-1.14596026490066				-0.250172185430464	-0.0652715231788079	-0.88794701986755	-0.272582781456954	-0.413509933774833	-1.04026490066225				0.368529801324503	-0.240529801324503	-0.853721854304636	-2.55708609271523	4.1035761589404	5.54437086092715				0.948026490066225	0.0674966887417219	0.229933774834437	-1.4482119205298	3.13192052980133	-0.337483443708608				0.255788079470199	-0.190834437086093	-0.900238410596026	0.300397350993377	-0.122384105960265	2.32529801324503			
67	1520	-0.200158940397351	0.130754966887417	-0.951523178807947	0.313377483443709	-0.984635761589404	-1.18490066225166				0.992953642384106	0.111788079470199	0.0131390728476822	-11.8860927152318	1.14781456953642	-1.70596026490066				-0.250172185430464	-0.0652715231788079	-0.88794701986755	0.287417218543046	-0.133509933774833	-0.48026490066225				0.352529801324503	-0.224529801324503	-0.869721854304636	-3.67708609271523	2.9835761589404	6.38437086092715				0.932026490066225	0.0674966887417219	0.229933774834437	-2.5682119205298	2.01192052980133	-1.17748344370861				0.239788079470199	-0.190834437086093	-0.900238410596026	-1.37960264900662	-0.962384105960265	3.44529801324503			
68	1540	-0.200158940397351	0.114754966887417	-0.951523178807947	-1.64662251655629	-0.984635761589404	-1.46490066225166				0.992953642384106	0.111788079470199	0.0291390728476822	-14.6860927152318	8.14781456953643	-3.10596026490066				-0.234172185430464	-0.0652715231788079	-0.88794701986755	1.12741721854305	-0.133509933774833	-1.04026490066225				0.352529801324503	-0.224529801324503	-0.869721854304636	-2.83708609271523	1.8635761589404	8.62437086092715				0.948026490066225	0.0674966887417219	0.229933774834437	-4.5282119205298	3.69192052980133	-0.897483443708608				0.239788079470199	-0.190834437086093	-0.900238410596026	-4.17960264900662	-1.80238410596026	4.00529801324503			
69	1560	-0.200158940397351	0.114754966887417	-0.951523178807947	-1.08662251655629	-0.144635761589404	-1.18490066225166				0.992953642384106	0.127788079470199	0.0611390728476822	-11.0460927152318	11.7878145695364	-3.10596026490066				-0.250172185430464	-0.0972715231788079	-0.87194701986755	-0.272582781456954	-0.133509933774833	-0.20026490066225				0.352529801324503	-0.256529801324503	-0.869721854304636	-0.597086092715232	2.7035761589404	10.5843708609272				0.948026490066225	0.0674966887417219	0.213933774834437	-4.5282119205298	2.01192052980133	-2.01748344370861				0.239788079470199	-0.174834437086093	-0.916238410596027	-3.05960264900662	-2.08238410596027	3.72529801324503			
70	1580	-0.200158940397351	0.114754966887417	-0.951523178807947	0.593377483443709	-0.144635761589404	-0.624900662251656				1.00895364238411	0.111788079470199	0.0611390728476822	-7.40609271523179	7.30781456953642	-1.98596026490066				-0.250172185430464	-0.0812715231788079	-0.88794701986755	0.567417218543046	-0.693509933774834	-0.48026490066225				0.352529801324503	-0.272529801324503	-0.885721854304636	-4.23708609271523	-0.3764238410596	12.2643708609272				0.948026490066225	0.0674966887417219	0.245933774834437	-4.8082119205298	3.97192052980133	-1.73748344370861				0.239788079470199	-0.174834437086093	-0.932238410596026	-0.259602649006623	-4.32238410596027	4.84529801324503			
71	1600	-0.200158940397351	0.114754966887417	-0.951523178807947	-0.526622516556291	-0.704635761589404	-0.624900662251656				1.02495364238411	0.0957880794701987	0.0451390728476822	-7.96609271523179	3.10781456953642	-3.94596026490066				-0.250172185430464	-0.0812715231788079	-0.88794701986755	-0.272582781456954	-1.81350993377483	-0.20026490066225				0.336529801324503	-0.272529801324503	-0.885721854304636	-8.43708609271523	-2.0564238410596	12.8243708609272				0.948026490066225	0.0674966887417219	0.213933774834437	-7.6082119205298	7.33192052980133	-2.01748344370861				0.207788079470199	-0.206834437086093	-0.932238410596026	-1.37960264900662	-7.68238410596027	5.68529801324503			
72	1620	-0.168158940397351	0.0987549668874172	-0.951523178807947	-4.44662251655629	-0.704635761589404	0.495099337748344				1.04095364238411	0.127788079470199	0.0291390728476822	-12.1660927152318	-8.65218543046358	-4.78596026490066				-0.218172185430464	-0.0812715231788079	-0.88794701986755	1.12741721854305	-0.413509933774833	-1.32026490066225				0.320529801324503	-0.272529801324503	-0.917721854304636	-4.23708609271523	-1.2164238410596	14.5043708609272				0.964026490066225	0.0674966887417219	0.213933774834437	-6.7682119205298	7.33192052980133	-2.29748344370861				0.175788079470199	-0.190834437086093	-0.964238410596026	-11.4596026490066	-10.4823841059603	6.52529801324503			
73	1640	-0.168158940397351	0.0987549668874172	-0.951523178807947	-6.96662251655629	0.415364238410596	3.01509933774834				1.00895364238411	0.127788079470199	0.0131390728476822	-11.3260927152318	-13.9721854304636	-1.42596026490066				-0.218172185430464	-0.0812715231788079	-0.85594701986755	0.847417218543046	-0.133509933774833	-3.84026490066225				0.336529801324503	-0.272529801324503	-0.933721854304636	5.00291390728477	-0.9364238410596	16.1843708609272				1.01202649006623	0.0514966887417219	0.197933774834437	-5.0882119205298	6.21192052980133	-1.17748344370861				0.143788079470199	-0.190834437086093	-0.964238410596026	-13.1396026490066	-7.96238410596027	9.32529801324503			
74	1660	-0.168158940397351	0.0987549668874172	-0.967523178807947	-5.84662251655629	0.415364238410596	3.85509933774834				0.960953642384106	0.0957880794701987	-0.0188609271523178	-14.1260927152318	-5.01218543046358	2.21403973509934				-0.234172185430464	-0.0652715231788079	-0.85594701986755	-0.552582781456954	-4.61350993377483	-4.96026490066225				0.288529801324503	-0.272529801324503	-0.965721854304636	11.7229139072848	-5.1364238410596	16.4643708609272				1.02802649006623	0.0514966887417219	0.133933774834437	-7.3282119205298	5.65192052980133	-0.617483443708608				0.127788079470199	-0.174834437086093	-1.01223841059603	-18.7396026490066	-1.24238410596026	10.725298013245			
75	1680	-0.184158940397351	0.114754966887417	-0.951523178807947	-6.40662251655629	-3.5046357615894	4.41509933774834				1.00895364238411	0.143788079470199	-0.0188609271523178	-13.8460927152318	12.3478145695364	4.17403973509934				-0.234172185430464	-0.0652715231788079	-0.90394701986755	-0.552582781456954	-3.77350993377483	-5.24026490066225				0.240529801324503	-0.288529801324503	-0.981721854304636	6.40291390728477	-12.4164238410596	13.6643708609272				0.996026490066225	0.0674966887417219	0.117933774834437	-6.2082119205298	7.61192052980133	-1.45748344370861				0.0797880794701987	-0.158834437086093	-1.06023841059603	-11.7396026490066	-5.16238410596027	15.765298013245			
76	1700	-0.216158940397351	0.114754966887417	-1.01552317880795	-6.12662251655629	-1.2646357615894	4.97509933774835				0.992953642384106	0.0957880794701987	0.0291390728476822	-6.56609271523179	19.9078145695364	10.3340397350993				-0.250172185430464	-0.0812715231788079	-0.93594701986755	0.287417218543046	-1.53350993377483	-4.96026490066225				0.192529801324503	-0.352529801324503	-1.01372185430464	-7.03708609271523	-14.6564238410596	10.0243708609272				0.980026490066225	0.0674966887417219	0.133933774834437	-7.3282119205298	12.0919205298013	-1.17748344370861				0.0477880794701987	-0.0948344370860927	-1.01223841059603	-13.6996026490066	0.997615894039735	21.645298013245			
77	1720	-0.184158940397351	0.130754966887417	-1.01552317880795	-3.60662251655629	3.7753642384106	6.65509933774834				1.07295364238411	0.111788079470199	-0.0348609271523178	-10.2060927152318	22.7078145695364	7.25403973509934				-0.218172185430464	-0.0972715231788079	-0.93594701986755	0.847417218543046	2.66649006622517	-6.64026490066225				0.224529801324503	-0.320529801324503	-0.997721854304636	-12.9170860927152	-19.9764238410596	2.46437086092715				1.01202649006623	0.0514966887417219	0.0859337748344371	-7.8882119205298	18.8119205298013	-0.617483443708608				0.0477880794701987	-0.110834437086093	-1.06023841059603	-5.01960264900662	0.717615894039735	24.165298013245			
78	1740	-0.184158940397351	0.146754966887417	-0.919523178807947	-12.8466225165563	3.2153642384106	6.09509933774834				0.896953642384106	0.191788079470199	0.0451390728476822	-6.56609271523179	19.6278145695364	6.13403973509934				-0.218172185430464	-0.0652715231788079	-0.88794701986755	3.08741721854305	-1.81350993377483	-8.60026490066225				0.192529801324503	-0.240529801324503	-0.997721854304636	-25.2370860927152	-17.7364238410596	-5.09562913907285				1.07602649006623	0.0194966887417219	0.101933774834437	-3.9682119205298	24.1319205298013	0.222516556291392				0.0317880794701987	-0.158834437086093	-1.02823841059603	5.34039735099338	-3.48238410596027	28.085298013245			
79	1760	-0.216158940397351	0.146754966887417	-0.855523178807947	-9.48662251655629	-1.5446357615894	4.13509933774834				1.00895364238411	0.175788079470199	-0.130860927152318	8.55390728476821	-10.3321854304636	5.29403973509934				-0.266172185430464	-0.0332715231788079	-0.87194701986755	-1.67258278145695	-4.33350993377483	-7.20026490066225				0.128529801324503	-0.208529801324503	-0.949721854304636	-23.2770860927152	-10.4564238410596	-12.3756291390728				1.07602649006623	0.0674966887417219	0.0539337748344371	-5.3682119205298	23.2919205298013	-0.337483443708608				-0.0482119205298013	-0.174834437086093	-0.996238410596026	8.42039735099338	5.75761589403974	33.125298013245			
80	1780	-0.264158940397351	0.146754966887417	-0.903523178807947	-5.56662251655629	-2.9446357615894	1.61509933774834				0.976953642384106	0.207788079470199	-0.226860927152318	4.07390728476821	-17.3321854304636	5.01403973509934				-0.330172185430464	-0.0332715231788079	-0.85594701986755	-5.87258278145695	-1.25350993377483	-5.52026490066225				0.128529801324503	-0.240529801324503	-0.949721854304636	-17.9570860927152	-1.2164238410596	-12.3756291390728				1.07602649006623	0.0834966887417219	0.0379337748344371	-2.0082119205298	23.0119205298013	1.34251655629139				-0.0322119205298013	-0.0948344370860927	-0.948238410596026	0.300397350993377	18.9176158940397	34.245298013245			
81	1800	-0.328158940397351	0.146754966887417	-0.951523178807947	-6.68662251655629	-0.984635761589404	0.495099337748344				1.07295364238411	0.239788079470199	-0.226860927152318	0.153907284768212	-2.77218543046358	9.77403973509934				-0.362172185430464	-0.0332715231788079	-0.87194701986755	-2.79258278145695	1.26649006622517	-4.12026490066225				0.144529801324503	-0.256529801324503	-0.949721854304636	-18.2370860927152	4.6635761589404	-11.8156291390728				1.06002649006623	0.0674966887417219	0.0219337748344371	-3.9682119205298	19.0919205298013	-0.0574834437086077				-0.000211920529801336	-0.0788344370860927	-0.980238410596026	3.38039735099338	22.5576158940397	37.325298013245			
82	1820	-0.360158940397351	0.162754966887417	-0.951523178807947	-6.96662251655629	2.6553642384106	1.89509933774834				1.04095364238411	0.207788079470199	-0.274860927152318	12.7539072847682	0.867814569536424	10.8940397350993				-0.410172185430464	-0.0652715231788079	-0.87194701986755	6.72741721854305	0.706490066225167	-2.72026490066225				0.128529801324503	-0.224529801324503	-0.933721854304636	-16.8370860927152	7.7435761589404	-14.0556291390728				1.04402649006623	0.0674966887417219	0.0379337748344371	-4.8082119205298	16.2919205298013	-0.337483443708608				-0.000211920529801336	-0.0788344370860927	-0.948238410596026	14.5803973509934	29.5576158940397	39.285298013245			
83	1840	-0.344158940397351	0.146754966887417	-0.871523178807947	-22.3666225165563	4.8953642384106	3.01509933774834				1.00895364238411	0.143788079470199	-0.210860927152318	11.0739072847682	9.54781456953642	10.0540397350993				-0.410172185430464	-0.0492715231788079	-0.87194701986755	8.40741721854305	0.706490066225167	-2.72026490066225				0.144529801324503	-0.240529801324503	-0.965721854304636	-7.87708609271523	12.5035761589404	-14.6156291390728				1.04402649006623	0.0514966887417219	0.0699337748344371	-7.8882119205298	14.8919205298013	-0.337483443708608				-0.0322119205298013	-0.0788344370860927	-0.980238410596026	19.0603973509934	30.3976158940397	34.525298013245			
84	1860	-0.296158940397351	0.114754966887417	-0.919523178807947	-15.3666225165563	4.0553642384106	-0.624900662251656				1.00895364238411	0.143788079470199	-0.114860927152318	-0.966092715231788	12.3478145695364	10.3340397350993				-0.346172185430464	-0.0492715231788079	-0.87194701986755	13.167417218543	6.30649006622517	-2.16026490066225				0.240529801324503	-0.240529801324503	-0.965721854304636	-5.35708609271523	17.5435761589404	-12.3756291390728				1.02802649006623	0.0834966887417219	0.0539337748344371	-4.2482119205298	9.01192052980133	-0.897483443708608				0.0157880794701987	-0.126834437086093	-0.964238410596026	21.5803973509934	34.0376158940397	33.965298013245			
85	1880	-0.296158940397351	0.114754966887417	-0.983523178807947	-22.6466225165563	-1.2646357615894	-5.66490066225166				1.02495364238411	0.111788079470199	-0.146860927152318	-4.60609271523179	17.6678145695364	7.53403973509934				-0.330172185430464	-0.0652715231788079	-0.85594701986755	15.127417218543	7.14649006622517	-4.12026490066225				0.304529801324503	-0.256529801324503	-0.949721854304636	-5.07708609271523	19.2235761589404	-9.85562913907285				1.07602649006623	0.0674966887417219	0.0859337748344371	4.9917880794702	5.65192052980133	1.34251655629139				0.0317880794701987	-0.190834437086093	-0.964238410596026	16.8203973509934	37.6776158940397	40.405298013245			
86	1900	-0.344158940397351	0.130754966887417	-0.919523178807947	-17.3266225165563	-0.424635761589404	-5.38490066225166				0.928953642384106	0.0317880794701987	-0.0508609271523178	-17.4860927152318	37.5478145695364	17.8940397350993				-0.330172185430464	-0.0652715231788079	-0.87194701986755	18.487417218543	5.74649006622517	-5.80026490066225				0.400529801324503	-0.304529801324503	-0.981721854304636	6.68291390728477	20.3435761589404	-2.01562913907285				1.07602649006623	0.0674966887417219	0.165933774834437	8.9117880794702	-1.62807947019868	2.46251655629139				0.127788079470199	-0.206834437086093	-1.01223841059603	-2.77960264900662	46.6376158940397	40.965298013245			
87	1920	-0.280158940397351	0.210754966887417	-0.951523178807947	-27.6866225165563	10.2153642384106	-3.70490066225166				0.896953642384106	0.207788079470199	-0.0348609271523178	-20.8460927152318	43.1478145695364	16.7740397350993				-0.314172185430464	-0.0812715231788079	-0.91994701986755	17.3674172185431	0.426490066225167	-6.36026490066225				0.512529801324503	-0.400529801324503	-1.02972185430464	11.7229139072848	16.1435761589404	10.3043708609272				1.06002649006623	0.0674966887417219	0.165933774834437	14.7917880794702	-11.4280794701987	4.42251655629139				0.271788079470199	-0.190834437086093	-1.12423841059603	-1.09960264900662	30.1176158940397	42.085298013245			
88	1940	-0.216158940397351	0.194754966887417	-0.983523178807947	-22.0866225165563	9.9353642384106	2.45509933774835				1.00895364238411	0.207788079470199	-0.194860927152318	1.83390728476821	48.4678145695364	16.4940397350993				-0.266172185430464	-0.0332715231788079	-0.93594701986755	16.247417218543	2.94649006622517	-4.68026490066225				0.512529801324503	-0.400529801324503	-1.06172185430464	-1.43708609271523	-0.3764238410596	13.9443708609272				1.02802649006623	0.0834966887417219	0.117933774834437	20.1117880794702	-25.4280794701987	7.22251655629139				0.335788079470199	-0.286834437086093	-1.14023841059603	19.6203973509934	14.4376158940397	53.005298013245			
89	1960	-0.200158940397351	0.194754966887417	-0.951523178807947	-20.1266225165563	8.2553642384106	7.21509933774835				0.912953642384106	0.0317880794701987	0.0451390728476822	-5.72609271523179	83.7478145695364	21.2540397350993				-0.298172185430464	-0.0812715231788079	-0.93594701986755	20.727417218543	9.94649006622517	-6.36026490066225				0.400529801324503	-0.272529801324503	-1.07772185430464	-21.0370860927152	-25.5764238410596	5.54437086092715				1.01202649006623	0.0834966887417219	0.165933774834437	28.5117880794702	-28.2280794701987	10.0225165562914				0.207788079470199	-0.270834437086093	-1.02823841059603	19.9003973509934	6.03761589403974	66.165298013245			
90	1980	-0.216158940397351	0.194754966887417	-0.983523178807947	-19.2866225165563	14.1353642384106	10.0150993377483				0	0	0	0	0	0				0	0	0	0	0	0				0.256529801324503	-0.288529801324503	-1.15772185430464	-25.5170860927152	-37.0564238410596	1.34437086092715				0	0	0	0	0	0				0	0	0	0	0	0			
91	2020	0	0	0	0	0	0				0	0	0	0	0	0				-0.266172185430464	-0.241271523178808	-0.99994701986755	23.807417218543	15.5464900662252	-11.1202649006623				0	0	0	0	0	0				0	0	0	0	0	0				0	0	0	0	0	0			
92	2040	-0.200158940397351	0.242754966887417	-1.06352317880795	-21.8066225165563	35.4153642384106	17.5750993377483				0.768953642384106	-0.144211920529801	0.557139072847682	18.6339072847682	104.187814569536	19.2940397350993				-0.234172185430464	-0.177271523178808	-0.95194701986755	11.207417218543	21.9864900662252	-11.1202649006623				0.0325298013245033	-0.256529801324503	-0.853721854304636	-68.6370860927152	-27.8164238410596	-34.2156291390729				0.836026490066225	-0.0285033112582781	0.117933774834437	28.2317880794702	17.4119205298013	-10.9774834437086				0.0957880794701987	-0.0628344370860927	-0.980238410596026	26.3403973509934	-9.08238410596027	38.165298013245			
93	2060	-0.120158940397351	0.178754966887417	-0.951523178807947	-16.2066225165563	38.4953642384106	20.0950993377483				1.04095364238411	0.0957880794701987	0.237139072847682	7.15390728476821	94.6678145695364	14.5340397350993				-0.170172185430464	-0.113271523178808	-0.96794701986755	17.647417218543	23.9464900662252	-14.2002649006623				0.112529801324503	-0.128529801324503	-0.725721854304636	-76.1970860927152	-36.2164238410596	-33.9356291390729				0.884026490066225	-0.108503311258278	0.117933774834437	17.5917880794702	26.0919205298013	-16.5774834437086				0.223788079470199	-0.286834437086093	-0.996238410596026	41.1803973509934	-25.0423841059603	27.805298013245			
94	2080	-0.200158940397351	0.178754966887417	-1.11152317880795	-18.1666225165563	36.5353642384106	25.1350993377483				1.08895364238411	-0.0962119205298013	0.525139072847682	-41.5660927152318	126.587814569536	17.3340397350993				-0.314172185430464	-0.161271523178808	-0.96794701986755	20.1674172185431	28.7064900662252	-17.5602649006623				-0.0154701986754967	0.111470198675497	-0.741721854304636	-49.3170860927152	-26.6964238410596	-29.7356291390729				0.932026490066225	-0.0605033112582781	0.309933774834437	6.1117880794702	34.7719205298013	-23.0174834437086				0.223788079470199	-0.494834437086093	-0.948238410596026	31.6603973509934	-21.1223841059603	32.005298013245			
95	2100	-0.264158940397351	0.210754966887417	-0.999523178807947	-24.3266225165563	48.0153642384106	29.0550993377483				1.02495364238411	-0.128211920529801	0.973139072847682	-16.6460927152318	140.587814569536	11.4540397350993				-0.362172185430464	-0.241271523178808	-0.98394701986755	21.8474172185431	42.4264900662252	-17.8402649006623				0.112529801324503	-0.0165298013245033	-0.789721854304636	0.802913907284768	6.6235761589404	-17.6956291390729				0.852026490066225	0.211496688741722	0.549933774834437	25.1517880794702	44.0119205298013	-14.0574834437086				0.303788079470199	-0.366834437086093	-0.996238410596026	-11.7396026490066	-6.00238410596027	26.965298013245			
96	2120	-0.264158940397351	0.226754966887417	-1.01552317880795	-34.1266225165563	56.4153642384106	31.5750993377483				1.15295364238411	-0.0162119205298013	0.509139072847682	32.0739072847682	92.9878145695364	-1.14596026490066				-0.330172185430464	-0.225271523178808	-1.03194701986755	11.487417218543	46.3464900662252	-19.2402649006623				0.368529801324503	-0.0485298013245033	-0.837721854304636	39.4429139072848	44.1435761589404	7.50437086092715				0.964026490066225	0.147496688741722	0.373933774834437	11.9917880794702	58.5719205298013	-7.33748344370861				0.351788079470199	-0.142834437086093	-1.02823841059603	1.42039735099338	-16.3623841059603	17.725298013245			
97	2140	-0.232158940397351	0.290754966887417	-1.01552317880795	-22.3666225165563	59.2153642384106	33.5350993377483				1.16895364238411	0.0957880794701987	0.493139072847682	-11.0460927152318	98.0278145695364	-2.82596026490066				-0.346172185430464	-0.209271523178808	-0.98394701986755	2.24741721854305	51.6664900662252	-20.0802649006623				0.560529801324503	-0.0645298013245033	-0.981721854304636	45.3229139072848	46.3835761589404	20.3843708609272				1.02802649006623	0.179496688741722	0.485933774834437	39.9917880794702	54.9319205298013	-4.81748344370861				0.319788079470199	-0.206834437086093	-1.01223841059603	47.9003973509934	-25.8823841059603	16.885298013245			
98	2160	-0.168158940397351	0.290754966887417	-1.01552317880795	-23.4866225165563	67.6153642384106	37.7350993377484				1.21695364238411	0.175788079470199	0.941139072847682	-27.0060927152318	92.4278145695364	-3.10596026490066				-0.266172185430464	-0.209271523178808	-0.98394701986755	8.68741721854305	59.7864900662252	-22.6002649006623				0.384529801324503	-0.176529801324503	-1.14172185430464	20.1229139072848	48.3435761589404	10.5843708609272				0.980026490066225	0.259496688741722	0.805933774834437	24.8717880794702	65.5719205298013	-10.9774834437086				0.431788079470199	-0.430834437086093	-0.916238410596027	68.9003973509934	-28.1223841059603	1.20529801324503			
99	2180	-0.088158940397351	0.370754966887417	-1.06352317880795	-25.1666225165563	75.7353642384106	42.7750993377484				1.26495364238411	0.0477880794701987	0.877139072847682	-6.56609271523179	70.8678145695364	2.77403973509934				-0.218172185430464	-0.129271523178808	-1.07994701986755	-12.032582781457	66.7864900662252	-19.8002649006623				0.512529801324503	-0.0805298013245033	-1.17372185430464	15.6429139072848	75.7835761589404	4.98437086092715				1.23602649006623	0.163496688741722	0.661933774834437	-0.0482119205298018	63.8919205298013	-22.7374834437086				0.607788079470199	-0.606834437086093	-0.836238410596026	60.5003973509934	-28.4023841059603	-13.914701986755			
100	2200	-0.056158940397351	0.386754966887417	-1.04752317880795	-10.6066225165563	79.0953642384106	44.1750993377484				1.34495364238411	-0.0322119205298013	0.749139072847682	22.5539072847682	48.4678145695364	1.65403973509934				-0.170172185430464	-0.113271523178808	-1.06394701986755	-3.91258278145695	77.7064900662252	-22.6002649006623				0.736529801324503	0.0314701986754967	-1.02972185430464	24.8829139072848	76.9035761589404	8.62437086092715				1.30002649006623	0.227496688741722	0.661933774834437	9.1917880794702	58.0119205298013	-20.2174834437086				0.543788079470199	-0.718834437086093	-0.900238410596026	32.7803973509934	-9.64238410596027	-12.234701986755			
101	2220	-0.024158940397351	0.386754966887417	-1.04752317880795	-2.76662251655629	84.4153642384106	42.4950993377484				1.23295364238411	0.0477880794701987	0.701139072847682	9.95390728476821	28.8678145695364	-0.86596026490066				-0.122172185430464	-0.193271523178808	-1.14394701986755	10.647417218543	87.2264900662252	-27.9202649006623				0.688529801324503	0.0154701986754967	-1.07772185430464	32.1629139072848	62.6235761589404	16.4643708609272				1.22002649006623	0.243496688741722	0.725933774834437	-0.888211920529802	41.7719205298013	-12.9374834437086				0.351788079470199	-0.654834437086093	-0.964238410596026	9.26039735099338	16.6776158940397	-20.914701986755			
102	2240	0.071841059602649	0.402754966887417	-1.06352317880795	5.35337748344371	96.7353642384106	42.4950993377484				1.12095364238411	0.111788079470199	0.781139072847682	-13.5660927152318	40.0678145695364	-0.86596026490066				-0.0421721854304636	-0.241271523178808	-1.03194701986755	2.80741721854305	98.4264900662252	-29.6002649006623				0.416529801324503	-0.0645298013245033	-1.18972185430464	33.5629139072848	60.3835761589404	-8.17562913907285				1.15602649006623	0.243496688741722	0.597933774834437	-22.1682119205298	36.1719205298013	-12.0974834437086				0.287788079470199	-0.414834437086093	-0.980238410596026	12.0603973509934	46.6376158940397	-35.754701986755			
103	2260	0.199841059602649	0.322754966887417	-0.983523178807947	2.55337748344371	110.175364238411	42.7750993377484				1.13695364238411	0.207788079470199	0.733139072847682	5.19390728476821	34.7478145695364	-3.66596026490066				0.0858278145695364	-0.209271523178808	-1.03194701986755	0.287417218543046	105.706490066225	-28.2002649006623				0.528529801324503	-0.304529801324503	-1.12572185430464	22.3629139072848	78.3035761589404	-8.17562913907285				1.12402649006623	0.227496688741722	0.517933774834437	-16.0082119205298	42.0519205298013	-13.4974834437086				0.303788079470199	-0.430834437086093	-1.02823841059603	23.5403973509934	64.2776158940397	-37.434701986755			
104	2280	0.311841059602649	0.306754966887417	-1.03152317880795	-8.36662251655629	120.255364238411	41.3750993377484				1.26495364238411	0.207788079470199	0.893139072847682	15.2739072847682	42.3078145695364	-0.86596026490066				0.0698278145695364	-0.161271523178808	-1.07994701986755	6.16741721854305	113.826490066225	-30.4402649006623				0.768529801324503	-0.160529801324503	-1.07772185430464	17.6029139072848	87.5435761589404	9.74437086092715				1.20402649006623	0.291496688741722	0.581933774834437	-21.3282119205298	54.3719205298013	-19.9374834437086				0.303788079470199	-0.574834437086093	-1.04423841059603	33.3403973509934	59.2376158940397	-22.874701986755			
105	2300	0.231841059602649	0.402754966887417	-0.999523178807947	-6.40662251655629	126.695364238411	42.4950993377484				1.29695364238411	0.0477880794701987	0.749139072847682	26.7539072847682	18.2278145695364	6.97403973509934				0.0538278145695364	-0.161271523178808	-1.01594701986755	15.127417218543	119.706490066225	-30.4402649006623				0.864529801324503	-0.0165298013245033	-1.02972185430464	35.8029139072848	91.1835761589404	1.34437086092715				1.25202649006623	0.339496688741722	0.645933774834437	-20.4882119205298	48.2119205298013	-20.2174834437086				0.335788079470199	-0.542834437086093	-0.964238410596026	8.42039735099338	63.7176158940397	-10.834701986755			
106	2320	0.151841059602649	0.434754966887417	-0.967523178807947	10.9533774834437	128.375364238411	41.6550993377484				0.992953642384106	0.0157880794701987	0.637139072847682	3.79390728476821	17.3878145695364	5.57403973509934				0.0858278145695364	-0.257271523178808	-0.95194701986755	9.24741721854305	125.586490066225	-28.2002649006623				0.752529801324503	-0.0805298013245033	-0.965721854304636	55.4029139072848	93.1435761589404	-18.5356291390728				1.23602649006623	0.291496688741722	0.549933774834437	-13.2082119205298	31.1319205298013	-12.3774834437086				0.383788079470199	-0.462834437086093	-0.916238410596027	-20.6996026490066	95.0776158940397	-9.71470198675497			
107	2340	0.279841059602649	0.354754966887417	-0.887523178807947	24.3933774834437	136.495364238411	39.6950993377484				0.864953642384106	0.159788079470199	0.557139072847682	-8.52609271523179	20.4678145695364	-0.585960264900661				0.197827814569536	-0.225271523178808	-0.93594701986755	-5.59258278145695	133.146490066225	-25.1202649006623				0.752529801324503	-0.304529801324503	-0.965721854304636	42.5229139072848	91.4635761589404	-21.0556291390728				0.980026490066225	0.227496688741722	0.549933774834437	-9.8482119205298	17.9719205298013	-8.17748344370861				0.479788079470199	-0.414834437086093	-0.948238410596026	-11.4596026490066	114.11761589404	-10.554701986755			
108	2360	0.471841059602649	0.274754966887417	-0.791523178807947	19.9133774834437	143.775364238411	38.0150993377484				1.10495364238411	0.223788079470199	0.781139072847682	-9.36609271523179	41.1878145695364	1.09403973509934				0.309827814569536	-0.0652715231788079	-0.88794701986755	-13.992582781457	138.186490066225	-28.4802649006623				0.832529801324503	-0.272529801324503	-0.933721854304636	14.5229139072848	84.4635761589404	-17.6956291390729				0.900026490066225	0.259496688741722	0.661933774834437	-17.6882119205298	24.1319205298013	-12.0974834437086				0.479788079470199	-0.462834437086093	-0.916238410596027	8.42039735099338	96.1976158940397	-9.43470198675497			
109	2380	0.519841059602649	0.258754966887417	-0.791523178807947	13.7533774834437	144.335364238411	38.2950993377484				1.28095364238411	0.0637880794701987	0.813139072847682	26.7539072847682	14.5878145695364	9.49403973509934				0.261827814569536	0.0627284768211921	-0.91994701986755	-1.11258278145695	138.466490066225	-32.4002649006623				0.768529801324503	-0.0805298013245033	-0.837721854304636	24.6029139072848	89.2235761589404	-17.6956291390729				1.01202649006623	0.307496688741722	0.677933774834437	-9.0082119205298	35.6119205298013	-14.8974834437086				0.431788079470199	-0.462834437086093	-0.756238410596026	-10.3396026490066	100.67761589404	-4.67470198675497			
110	2400	0.359841059602649	0.274754966887417	-0.791523178807947	11.2333774834437	145.455364238411	38.8550993377483				1.00895364238411	0.0957880794701987	0.493139072847682	29.2739072847682	-19.5721854304636	13.1340397350993				0.197827814569536	-0.0652715231788079	-0.75994701986755	19.0474172185431	143.226490066225	-34.3602649006623				0.784529801324503	-0.0645298013245033	-0.741721854304636	48.4029139072848	96.2235761589404	-26.6556291390729				1.06002649006623	0.227496688741722	0.517933774834437	-8.4482119205298	25.5319205298013	-11.5374834437086				0.543788079470199	-0.446834437086093	-0.708238410596026	-36.0996026490066	131.47761589404	-3.83470198675497			
111	2420	0.295841059602649	0.258754966887417	-0.727523178807947	15.4333774834437	149.935364238411	36.3350993377484				0.752953642384106	0.0957880794701987	0.333139072847682	11.3539072847682	-25.4521854304636	5.85403973509934				0.213827814569536	-0.193271523178808	-0.75994701986755	11.487417218543	147.426490066225	-30.1602649006623				0.848529801324503	-0.160529801324503	-0.693721854304636	49.5229139072848	90.3435761589404	-28.0556291390728				0.980026490066225	0.179496688741722	0.469933774834437	-1.7282119205298	9.57192052980133	-6.21748344370861				0.687788079470199	-0.430834437086093	-0.756238410596026	-27.9796026490066	137.07761589404	-0.194701986754968			
112	2440	0.375841059602649	0.258754966887417	-0.663523178807947	13.4733774834437	152.455364238411	34.6550993377484				0.752953642384106	0.111788079470199	0.413139072847682	7.15390728476821	-1.09218543046358	2.77403973509934				0.357827814569536	-0.161271523178808	-0.72794701986755	-10.352582781457	153.866490066225	-27.6402649006623				0.784529801324503	-0.192529801324503	-0.629721854304636	40.8429139072848	81.1035761589404	-27.4956291390729				0.852026490066225	0.179496688741722	0.533933774834437	-3.1282119205298	-0.788079470198675	-3.13748344370861				0.735788079470199	-0.478834437086093	-0.756238410596026	-5.01960264900662	123.35761589404	10.725298013245			
113	2460	0.503841059602649	0.258754966887417	-0.599523178807947	16.2733774834437	159.455364238411	35.7750993377484				0.944953642384106	0.111788079470199	0.669139072847682	15.5539072847682	-10.3321854304636	14.5340397350993				0.421827814569536	-0.0812715231788079	-0.63194701986755	-20.432582781457	157.786490066225	-24.5602649006623				0.704529801324503	-0.144529801324503	-0.597721854304636	44.4829139072848	74.3835761589404	-26.9356291390729				0.788026490066225	0.243496688741722	0.549933774834437	-6.4882119205298	-11.9880794701987	-3.41748344370861				0.671788079470199	-0.494834437086093	-0.644238410596026	-13.6996026490066	114.11761589404	19.405298013245			
114	2480	0.551841059602649	0.242754966887417	-0.631523178807947	36.1533774834437	158.055364238411	35.2150993377483				0.880953642384106	0.0957880794701987	0.477139072847682	21.1539072847682	-28.5321854304636	17.6140397350993				0.405827814569536	-0.0492715231788079	-0.59994701986755	-19.312582781457	156.106490066225	-21.7602649006623				0.736529801324503	-0.128529801324503	-0.533721854304636	52.8829139072848	69.0635761589404	-23.2956291390729				0.836026490066225	0.211496688741722	0.469933774834437	-2.5682119205298	-15.9080794701987	1.06251655629139				0.575788079470199	-0.350834437086093	-0.596238410596026	-27.9796026490066	113.55761589404	21.925298013245			
115	2500	0.519841059602649	0.130754966887417	-0.567523178807947	39.7933774834437	161.975364238411	36.3350993377484				0.768953642384106	0.0477880794701987	0.349139072847682	29.5539072847682	-35.8121854304636	10.3340397350993				0.421827814569536	-0.0652715231788079	-0.53594701986755	-15.952582781457	158.906490066225	-18.9602649006623				0.864529801324503	-0.0805298013245033	-0.405721854304636	48.4029139072848	59.8235761589404	-9.29562913907285				0.852026490066225	0.147496688741722	0.485933774834437	-0.608211920529802	-26.5480794701987	6.10251655629139				0.639788079470199	-0.334834437086093	-0.580238410596026	-20.6996026490066	108.79761589404	22.485298013245			
116	2520	0.519841059602649	0.0827549668874172	-0.551523178807947	36.1533774834437	160.015364238411	37.7350993377484				0.720953642384106	0.0797880794701987	0.413139072847682	7.15390728476821	-21.2521854304636	4.45403973509934				0.533827814569536	-0.0652715231788079	-0.50394701986755	-15.952582781457	155.546490066225	-9.72026490066225				0.896529801324503	-0.144529801324503	-0.341721854304636	57.9229139072848	54.5035761589404	2.18437086092715				0.756026490066225	0.179496688741722	0.565933774834437	-0.328211920529802	-42.7880794701987	6.94251655629139				0.751788079470199	-0.462834437086093	-0.548238410596027	-34.1396026490066	107.95761589404	21.645298013245			
117	2540	0.647841059602649	0.0347549668874172	-0.391523178807947	27.4733774834437	169.255364238411	37.7350993377484				0.656953642384106	0.0637880794701987	0.381139072847682	11.0739072847682	-47.8521854304636	13.6940397350993				0.629827814569536	-0.0812715231788079	-0.48794701986755	-12.592582781457	156.386490066225	-3.28026490066225				0.720529801324503	-0.192529801324503	-0.421721854304636	56.8029139072848	39.6635761589404	-3.69562913907285				0.708026490066225	0.243496688741722	0.533933774834437	-10.6882119205298	-61.8280794701987	7.50251655629139				0.735788079470199	-0.398834437086093	-0.484238410596026	-54.0196026490066	93.9576158940397	18.845298013245			
118	2560	0.775841059602649	-0.0132450331125828	-0.407523178807947	22.7133774834437	169.535364238411	35.7750993377484				0.704953642384106	0.0157880794701987	0.333139072847682	12.7539072847682	-52.8921854304636	19.2940397350993				0.677827814569536	-0.177271523178808	-0.42394701986755	-30.512582781457	155.266490066225	1.19973509933775				0.512529801324503	-0.320529801324503	-0.405721854304636	40.8429139072848	29.8635761589404	-17.1356291390729				0.644026490066225	0.115496688741722	0.357933774834437	-10.4082119205298	-73.8680794701987	11.1425165562914				0.607788079470199	-0.270834437086093	-0.452238410596026	-41.6996026490066	80.7976158940397	13.805298013245			
119	2580	0.855841059602649	0.00275496688741723	-0.279523178807947	21.5933774834437	170.375364238411	28.2150993377483				0.816953642384106	-0.0802119205298013	0.509139072847682	-3.76609271523179	-60.1721854304636	8.37403973509934				0.677827814569536	-0.145271523178808	-0.39194701986755	-36.672582781457	154.426490066225	1.75973509933775				0.528529801324503	-0.0485298013245033	-0.549721854304636	-9.27708609271523	0.7435761589404	-3.13562913907285				0.580026490066225	0.0194966887417219	0.373933774834437	-2.8482119205298	-62.1080794701987	12.2625165562914				0.575788079470199	-0.270834437086093	-0.340238410596026	-38.6196026490066	69.3176158940397	14.645298013245			
120	2600	0.727841059602649	0.114754966887417	-0.359523178807947	12.0733774834437	162.815364238411	27.3750993377483				0.480953642384106	-0.0802119205298013	0.589139072847682	-12.7260927152318	-89.8521854304636	3.89403973509934				0.677827814569536	-0.0812715231788079	-0.37594701986755	-42.552582781457	147.706490066225	5.11973509933775				0.608529801324503	-0.256529801324503	-0.373721854304636	22.9229139072848	-12.4164238410596	18.1443708609272				0.580026490066225	0.0514966887417219	0.453933774834437	-7.6082119205298	-57.0680794701987	11.7025165562914				0.527788079470199	-0.334834437086093	-0.436238410596026	-55.1396026490066	71.2776158940397	18.285298013245			
121	2620	0.663841059602649	0.130754966887417	-0.231523178807947	21.5933774834437	175.695364238411	24.5750993377483				0.288953642384106	-0.0642119205298013	0.253139072847682	-23.3660927152318	-67.4521854304636	4.17403973509934				0.741827814569536	-0.0332715231788079	-0.39194701986755	-22.112582781457	143.786490066225	3.99973509933775				0.608529801324503	-0.208529801324503	-0.389721854304636	20.1229139072848	-26.6964238410596	13.9443708609272				0.532026490066225	0.0514966887417219	0.405933774834437	-29.7282119205298	-65.4680794701987	12.2625165562914				0.575788079470199	-0.334834437086093	-0.436238410596026	-41.6996026490066	57.5576158940397	24.725298013245			
122	2640	0.775841059602649	0.0507549668874172	-0.119523178807947	44.2733774834437	170.375364238411	14.7750993377483				0.480953642384106	0.0637880794701987	0.237139072847682	-23.3660927152318	-66.3321854304636	-7.02596026490066				0.821827814569536	-0.0172715231788079	-0.24794701986755	-28.272582781457	146.866490066225	-0.48026490066225				0.528529801324503	-0.176529801324503	-0.309721854304636	8.36291390728477	-37.8964238410596	11.7043708609272				0.516026490066225	0.0194966887417219	0.277933774834437	-19.6482119205298	-67.7080794701987	11.4225165562914				0.575788079470199	-0.366834437086093	-0.404238410596026	-40.2996026490066	35.9976158940397	34.245298013245			
123	2660	0.903841059602649	0.00275496688741723	-0.135523178807947	41.1933774834437	160.855364238411	8.05509933774835				0.608953642384106	0.0317880794701987	0.269139072847682	-17.7660927152318	-59.6121854304636	-4.50596026490066				0.789827814569536	-0.00127152317880793	-0.26394701986755	-30.232582781457	145.746490066225	1.75973509933775				0.432529801324503	-0.224529801324503	-0.309721854304636	-5.07708609271523	-52.4564238410596	16.1843708609272				0.500026490066225	0.0354966887417219	0.245933774834437	-18.2482119205298	-65.7480794701987	9.74251655629139				0.559788079470199	-0.318834437086093	-0.340238410596026	-53.7396026490066	23.3976158940397	32.565298013245			
124	2680	0.919841059602649	-0.0452450331125828	-0.199523178807947	30.8333774834437	147.695364238411	12.2550993377483				0.480953642384106	0.0477880794701987	0.349139072847682	-14.9660927152318	-52.8921854304636	-7.86596026490066				0.725827814569536	-0.0332715231788079	-0.23194701986755	-25.472582781457	129.786490066225	7.63973509933775				0.272529801324503	-0.256529801324503	-0.325721854304636	-16.8370860927152	-56.0964238410596	16.1843708609272				0.500026490066225	0.00349668874172187	0.229933774834437	-16.2882119205298	-58.1880794701987	9.46251655629139				0.479788079470199	-0.238834437086093	-0.324238410596026	-69.6996026490066	11.6376158940397	23.885298013245			
125	2700	0.839841059602649	0.0187549668874172	-0.231523178807947	23.5533774834437	130.335364238411	22.8950993377483				0.352953642384106	0.0317880794701987	0.365139072847682	-12.4460927152318	-44.2121854304636	-12.0659602649007				0.677827814569536	-0.0652715231788079	-0.21594701986755	-17.072582781457	119.426490066225	1.75973509933775				0.320529801324503	-0.112529801324503	-0.277721854304636	-28.0370860927152	-58.3364238410596	17.3043708609272				0.468026490066225	0.0354966887417219	0.261933774834437	-26.6482119205298	-57.3480794701987	8.62251655629139				0.431788079470199	-0.190834437086093	-0.340238410596026	-69.6996026490066	-5.44238410596027	12.125298013245			
126	2720	0.775841059602649	-0.0132450331125828	-0.199523178807947	24.3933774834437	119.135364238411	24.2950993377483				0.592953642384106	0.0157880794701987	0.285139072847682	-17.7660927152318	-42.5321854304636	-17.3859602649007				0.725827814569536	-0.00127152317880793	-0.13594701986755	-8.67258278145695	113.546490066225	-0.48026490066225				0.432529801324503	-0.0325298013245033	-0.309721854304636	-16.5570860927152	-57.4964238410596	20.9443708609272				0.468026490066225	0.0834966887417219	0.261933774834437	-35.6082119205298	-56.2280794701987	7.22251655629139				0.431788079470199	-0.190834437086093	-0.340238410596026	-54.2996026490066	-21.9623841059603	7.08529801324503			
127	2740	0.791841059602649	-0.0932450331125828	-0.071523178807947	24.6733774834437	110.175364238411	27.3750993377483				0.576953642384106	-0.0162119205298013	0.445139072847682	-10.7660927152318	-60.7321854304636	-15.4259602649007				0.757827814569536	-0.0492715231788079	-0.0719470198675496	-10.352582781457	100.106490066225	0.0797350993377501				0.480529801324503	-0.0965298013245033	-0.341721854304636	-7.31708609271523	-53.8564238410596	21.7843708609272				0.484026490066225	0.0994966887417219	0.213933774834437	-30.8482119205298	-56.2280794701987	7.50251655629139				0.335788079470199	-0.110834437086093	-0.372238410596026	-58.7796026490066	-32.6023841059603	13.805298013245			
128	2760	0.807841059602649	-0.125245033112583	0.00847682119205304	19.6333774834437	112.695364238411	29.8950993377483				0.736953642384106	0.111788079470199	0.333139072847682	-10.7660927152318	-61.2921854304636	-20.1859602649007				0.837827814569536	-0.0652715231788079	-0.0399470198675496	-19.312582781457	91.9864900662252	4.55973509933775				0.512529801324503	-0.160529801324503	-0.341721854304636	-10.3970860927152	-52.1764238410596	17.0243708609272				0.564026490066225	0.0834966887417219	0.213933774834437	-20.4882119205298	-48.6680794701987	6.94251655629139				0.351788079470199	-0.0948344370860927	-0.436238410596026	-60.7396026490066	-32.6023841059603	21.925298013245			
129	2780	0.839841059602649	0.0187549668874172	0.072476821192053	8.15337748344371	107.095364238411	24.5750993377483				0.608953642384106	-0.000211920529801304	0.477139072847682	-18.6060927152318	-26.2921854304636	-5.34596026490066				0.917827814569536	-0.0812715231788079	-0.0559470198675496	-14.552582781457	83.8664900662252	5.67973509933775				0.464529801324503	-0.176529801324503	-0.405721854304636	-7.31708609271523	-46.5764238410596	14.2243708609272				0.644026490066225	0.0834966887417219	0.181933774834437	-22.4482119205298	-41.1080794701987	6.10251655629139				0.431788079470199	-0.126834437086093	-0.468238410596026	-50.3796026490066	-35.9623841059603	20.245298013245			
130	2800	0.919841059602649	0.0987549668874172	0.184476821192053	-1.92662251655629	102.335364238411	13.9350993377483				0.688953642384106	0.0157880794701987	0.445139072847682	-10.2060927152318	-30.2121854304636	-3.38596026490066				0.965827814569536	-0.129271523178808	-0.0719470198675496	-18.472582781457	79.1064900662252	0.35973509933775				0.592529801324503	-0.224529801324503	-0.453721854304636	-0.877086092715232	-44.0564238410596	18.1443708609272				0.740026490066225	0.0994966887417219	0.277933774834437	-17.1282119205298	-34.3880794701987	4.98251655629139				0.527788079470199	-0.110834437086093	-0.532238410596027	-41.9796026490066	-35.6823841059603	9.32529801324503			
131	2820	1.09584105960265	0.0827549668874172	0.232476821192053	3.67337748344371	89.4553642384106	0.775099337748344				0.800953642384106	-0.0162119205298013	0.477139072847682	-2.64609271523179	-33.5721854304636	-10.3859602649007				0.981827814569536	-0.129271523178808	-0.0239470198675496	-14.832582781457	65.3864900662252	0.35973509933775				0.768529801324503	-0.288529801324503	-0.533721854304636	-8.15708609271523	-44.3364238410596	25.7043708609272				0.788026490066225	0.0834966887417219	0.309933774834437	-6.4882119205298	-33.5480794701987	7.50251655629139				0.607788079470199	-0.142834437086093	-0.596238410596026	-31.3396026490066	-29.8023841059603	0.365298013245032			
132	2840	1.11184105960265	0.0667549668874172	0.264476821192053	10.9533774834437	70.1353642384106	-4.54490066225166				0.928953642384106	-0.0322119205298013	0.525139072847682	-4.32609271523179	-6.41218543046358	-7.86596026490066				0.981827814569536	-0.209271523178808	0.00805298013245037	-10.632582781457	57.5464900662252	5.39973509933775				0.784529801324503	-0.336529801324503	-0.597721854304636	-13.7570860927152	-42.0964238410596	29.3443708609272				0.884026490066225	0.0834966887417219	0.277933774834437	-4.8082119205298	-29.0680794701987	6.94251655629139				0.639788079470199	-0.206834437086093	-0.660238410596027	-20.6996026490066	-24.2023841059603	-3.55470198675497			
133	2860	1.01584105960265	0.0507549668874172	0.312476821192053	14.0333774834437	63.4153642384106	3.57509933774835				0.976953642384106	-0.000211920529801304	0.589139072847682	-5.72609271523179	-11.7321854304636	-5.34596026490066				1.02982781456954	-0.209271523178808	0.0400529801324504	-18.472582781457	49.4264900662252	9.31973509933775				0.640529801324503	-0.320529801324503	-0.645721854304636	-5.91708609271523	-34.5364238410596	29.9043708609272				0.916026490066225	0.115496688741722	0.325933774834437	3.3117880794702	-22.3480794701987	4.70251655629139				0.607788079470199	-0.238834437086093	-0.660238410596027	-11.7396026490066	-25.3223841059603	-7.47470198675497			
134	2880	0.919841059602649	-0.0132450331125828	0.440476821192053	0.593377483443709	68.4553642384106	17.0150993377483				0.880953642384106	0.0157880794701987	0.461139072847682	-5.16609271523179	-40.5721854304636	-3.10596026490066				1.07782781456954	-0.161271523178808	0.0720529801324504	-27.152582781457	47.1864900662252	9.59973509933775				0.480529801324503	-0.288529801324503	-0.693721854304636	7.24291390728477	-22.4964238410596	35.5043708609272				0.884026490066225	0.0514966887417219	0.277933774834437	6.6717880794702	-19.5480794701987	4.42251655629139				0.607788079470199	-0.286834437086093	-0.708238410596026	-10.0596026490066	-22.2423841059603	-14.754701986755			
135	2900	1.03184105960265	-0.0932450331125828	0.440476821192053	5.91337748344371	69.8553642384106	13.0950993377483				0.848953642384106	0.0317880794701987	0.285139072847682	1.27390728476821	-13.1321854304636	2.49403973509934				1.10982781456954	-0.0812715231788079	0.0720529801324504	-27.152582781457	42.9864900662252	8.47973509933775				0.544529801324503	-0.320529801324503	-0.677721854304636	3.04291390728477	-7.9364238410596	35.7843708609272				0.884026490066225	0.0514966887417219	0.245933774834437	-3.6882119205298	-12.5480794701987	2.74251655629139				0.639788079470199	-0.318834437086093	-0.676238410596026	-2.77960264900662	-29.8023841059603	-16.154701986755			
136	2920	1.04784105960265	-0.157245033112583	0.360476821192053	5.35337748344371	55.0153642384106	6.37509933774834				0.976953642384106	0.0157880794701987	0.525139072847682	2.95390728476821	17.9478145695364	2.21403973509934				1.02982781456954	-0.0652715231788079	0.0880529801324504	-20.152582781457	39.9064900662252	6.79973509933775				0.576529801324503	-0.336529801324503	-0.677721854304636	-8.71708609271523	-2.6164238410596	31.8643708609272				0.884026490066225	0.0674966887417219	0.197933774834437	-8.7282119205298	-10.3080794701987	1.62251655629139				0.623788079470199	-0.302834437086093	-0.628238410596026	-15.3796026490066	-28.9623841059603	-8.87470198675497			
137	2940	0.983841059602649	-0.157245033112583	0.264476821192053	7.03337748344371	42.1353642384106	3.29509933774834				0.864953642384106	0.0157880794701987	0.541139072847682	-0.686092715231788	-6.69218543046358	3.89403973509934				0.965827814569536	-0.113271523178808	0.0880529801324504	-6.15258278145695	36.2664900662252	6.51973509933775				0.544529801324503	-0.272529801324503	-0.645721854304636	-16.8370860927152	1.5835761589404	22.0643708609272				0.852026490066225	0.0834966887417219	0.197933774834437	-8.1682119205298	-2.46807947019868	-0.337483443708608				0.543788079470199	-0.222834437086093	-0.612238410596026	-20.1396026490066	-23.6423841059603	0.0852980132450323			
138	2960	0.935841059602649	-0.125245033112583	0.296476821192053	1.15337748344371	33.4553642384106	1.33509933774834				0.720953642384106	0.0157880794701987	0.397139072847682	-3.76609271523179	-5.57218543046358	6.13403973509934				0.949827814569536	-0.145271523178808	0.10405298013245	2.80741721854305	29.5464900662252	8.47973509933775				0.496529801324503	-0.224529801324503	-0.629721854304636	-15.1570860927152	7.1835761589404	8.90437086092715				0.820026490066225	0.0834966887417219	0.197933774834437	-7.3282119205298	2.01192052980133	-1.45748344370861				0	0	0	0	0	0			
139	3080	0	0	0	0	0	0				0	0	0	0	0	0				0.949827814569536	-0.113271523178808	0.0400529801324504	35.287417218543	-29.5335099337748	2.59973509933775				0.752529801324503	-0.304529801324503	-0.645721854304636	4.16291390728477	8.8635761589404	-4.81562913907285				0.932026490066225	0.0834966887417219	0.357933774834437	10.3117880794702	19.3719205298013	0.222516556291392				0.767788079470199	-0.350834437086093	-0.740238410596026	31.3803973509934	-18.3223841059603	7.92529801324503			
140	3100	0.983841059602649	-0.0292450331125828	0.520476821192053	8.43337748344371	0.695364238410596	-5.66490066225166				1.00895364238411	-0.000211920529801304	0.413139072847682	-2.92609271523179	24.9478145695364	10.3340397350993				0.981827814569536	-0.129271523178808	0.00805298013245037	28.8474172185431	-28.1335099337748	4.83973509933775				0.672529801324503	-0.304529801324503	-0.629721854304636	6.40291390728477	6.6235761589404	3.30437086092715				0.916026490066225	0.0994966887417219	0.405933774834437	14.5117880794702	20.4919205298013	2.74251655629139				0.751788079470199	-0.398834437086093	-0.724238410596026	43.7003973509934	-23.0823841059603	4.84529801324503			
141	3120	0.967841059602649	-0.0452450331125828	0.440476821192053	2.83337748344371	3.2153642384106	-8.18490066225166				0.992953642384106	-0.0162119205298013	0.509139072847682	-0.406092715231788	19.0678145695364	11.1740397350993				0.949827814569536	-0.161271523178808	0.0560529801324504	18.2074172185431	-22.5335099337748	4.83973509933775				0.624529801324503	-0.272529801324503	-0.613721854304636	-0.317086092715232	4.6635761589404	13.9443708609272				0.948026490066225	0.0514966887417219	0.373933774834437	12.2717880794702	19.9319205298013	4.14251655629139				0.687788079470199	-0.478834437086093	-0.708238410596026	39.7803973509934	-31.2023841059603	4.00529801324503			
142	3140	0.951841059602649	-0.0452450331125828	0.312476821192053	3.39337748344371	2.6553642384106	-5.94490066225166				0.912953642384106	-0.0322119205298013	0.461139072847682	3.51390728476821	8.14781456953643	10.3340397350993				0.933827814569536	-0.113271523178808	0.0720529801324504	11.207417218543	-11.6135099337748	2.03973509933775				0.640529801324503	-0.256529801324503	-0.597721854304636	1.92291390728477	13.0635761589404	21.2243708609272				0.948026490066225	0.0514966887417219	0.389933774834437	8.0717880794702	18.8119205298013	3.58251655629139				0.607788079470199	-0.526834437086093	-0.644238410596026	27.1803973509934	-37.0823841059603	12.685298013245			
143	3160	0.983841059602649	-0.0612450331125828	0.216476821192053	5.07337748344371	-3.2246357615894	-3.14490066225166				0.896953642384106	0.0477880794701987	0.381139072847682	4.35390728476821	8.42781456953642	10.0540397350993				0.949827814569536	-0.0652715231788079	0.12005298013245	10.647417218543	-6.01350993377483	1.47973509933775				0.656529801324503	-0.320529801324503	-0.629721854304636	3.88291390728477	22.0235761589404	18.4243708609272				0.948026490066225	0.0674966887417219	0.325933774834437	0.231788079470198	17.9719205298013	3.58251655629139				0.591788079470199	-0.510834437086093	-0.564238410596026	-0.259602649006623	-31.4823841059603	20.525298013245			
144	3180	0.999841059602649	-0.0612450331125828	0.168476821192053	5.91337748344371	-7.1446357615894	-0.0649006622516557				0.960953642384106	-0.0162119205298013	0.397139072847682	2.95390728476821	13.1878145695364	9.77403973509934				0.997827814569536	-0.0492715231788079	0.12005298013245	18.2074172185431	-8.25350993377483	1.19973509933775				0.688529801324503	-0.304529801324503	-0.645721854304636	-5.91708609271523	19.2235761589404	9.74437086092715				0.948026490066225	0.0834966887417219	0.293933774834437	-1.1682119205298	16.8519205298013	3.86251655629139				0.607788079470199	-0.382834437086093	-0.580238410596026	-13.1396026490066	-20.5623841059603	23.885298013245			
145	3200	0.999841059602649	-0.0932450331125828	0.184476821192053	6.19337748344371	-7.1446357615894	1.61509933774834				0.976953642384106	-0.0482119205298013	0.429139072847682	-2.92609271523179	12.0678145695364	10.3340397350993				0.965827814569536	-0.113271523178808	0.10405298013245	26.8874172185431	-8.25350993377483	0.63973509933775				0.704529801324503	-0.272529801324503	-0.629721854304636	-12.9170860927152	11.3835761589404	3.30437086092715				0.948026490066225	0.0674966887417219	0.325933774834437	-2.0082119205298	16.8519205298013	3.30251655629139				0.559788079470199	-0.318834437086093	-0.628238410596026	1.70039735099338	-13.5623841059603	21.365298013245			
146	3220	0.951841059602649	-0.0772450331125828	0.232476821192053	2.55337748344371	-4.6246357615894	0.215099337748344				0.928953642384106	-0.0322119205298013	0.429139072847682	-6.56609271523179	10.1078145695364	9.21403973509934				0.933827814569536	-0.145271523178808	0.0560529801324504	19.327417218543	-5.73350993377484	1.19973509933775				0.704529801324503	-0.256529801324503	-0.645721854304636	-3.67708609271523	4.3835761589404	3.30437086092715				0.964026490066225	0.0674966887417219	0.341933774834437	-2.8482119205298	13.2119205298013	4.42251655629139				0.559788079470199	-0.302834437086093	-0.676238410596026	21.3003973509934	-10.4823841059603	13.805298013245			
147	3240	0.919841059602649	-0.0452450331125828	0.216476821192053	-0.246622516556291	-2.3846357615894	-2.58490066225166				0.912953642384106	-0.0162119205298013	0.429139072847682	-5.72609271523179	9.54781456953642	8.37403973509934				0.933827814569536	-0.145271523178808	0.0560529801324504	6.16741721854305	1.26649006622517	0.35973509933775				0.704529801324503	-0.304529801324503	-0.629721854304636	1.08291390728477	1.5835761589404	6.38437086092715				0.948026490066225	0.0834966887417219	0.341933774834437	-4.8082119205298	10.4119205298013	4.70251655629139				0.591788079470199	-0.318834437086093	-0.724238410596026	24.9403973509934	-8.24238410596027	7.64529801324503			
148	3260	0.935841059602649	-0.0292450331125828	0.248476821192053	0.593377483443709	-2.3846357615894	-3.42490066225166				0.976953642384106	-0.000211920529801304	0.397139072847682	-6.00609271523179	8.98781456953643	10.3340397350993				0.965827814569536	-0.129271523178808	0.0400529801324504	-2.51258278145695	5.74649006622517	-0.76026490066225				0.704529801324503	-0.336529801324503	-0.645721854304636	3.60291390728477	0.7435761589404	11.7043708609272				0.932026490066225	0.0834966887417219	0.341933774834437	-3.6882119205298	11.2519205298013	6.94251655629139				0.575788079470199	-0.366834437086093	-0.708238410596026	29.7003973509934	-11.0423841059603	4.28529801324503			
149	3280	0.999841059602649	-0.0452450331125828	0.280476821192053	-2.76662251655629	-2.3846357615894	-5.10490066225166				0.976953642384106	-0.000211920529801304	0.381139072847682	-7.40609271523179	6.46781456953642	10.8940397350993				0.981827814569536	-0.129271523178808	0.00805298013245037	-7.27258278145696	9.94649006622517	-0.76026490066225				0.688529801324503	-0.368529801324503	-0.629721854304636	2.48291390728477	-0.0964238410596001	14.7843708609272				0.948026490066225	0.0514966887417219	0.341933774834437	-0.608211920529802	10.1319205298013	7.50251655629139				0.559788079470199	-0.398834437086093	-0.692238410596026	19.3403973509934	-4.60238410596027	2.32529801324503			
150	3300	0.983841059602649	-0.0452450331125828	0.296476821192053	-9.76662251655629	-0.704635761589404	-3.98490066225166				0.960953642384106	-0.0322119205298013	0.397139072847682	-9.36609271523179	7.86781456953642	7.81403973509934				0.981827814569536	-0.0972715231788079	-0.00794701986754963	-10.072582781457	10.7864900662252	-0.20026490066225				0.672529801324503	-0.320529801324503	-0.645721854304636	-8.43708609271523	-3.7364238410596	13.6643708609272				0.964026490066225	0.0194966887417219	0.325933774834437	-0.608211920529802	8.17192052980133	6.94251655629139				0.511788079470199	-0.414834437086093	-0.692238410596026	12.9003973509934	-3.48238410596027	0.0852980132450323			
151	3320	0.967841059602649	0.00275496688741723	0.296476821192053	-17.6066225165563	1.8153642384106	-1.46490066225166				0.960953642384106	-0.000211920529801304	0.413139072847682	-10.4860927152318	5.90781456953642	4.17403973509934				0.981827814569536	-0.0812715231788079	-0.0239470198675496	-9.79258278145695	9.94649006622517	-0.48026490066225				0.656529801324503	-0.336529801324503	-0.677721854304636	-10.6770860927152	-5.6964238410596	11.4243708609272				0.980026490066225	0.0194966887417219	0.325933774834437	-5.6482119205298	3.97192052980133	7.22251655629139				0.511788079470199	-0.414834437086093	-0.708238410596026	5.34039735099338	-4.60238410596027	-1.87470198675497			
152	3340	0.967841059602649	0.00275496688741723	0.264476821192053	-11.1666225165563	2.9353642384106	-1.46490066225166				0.960953642384106	0.0317880794701987	0.429139072847682	-7.12609271523179	3.10781456953642	4.17403973509934				0.997827814569536	-0.0492715231788079	-0.0559470198675496	-7.27258278145696	8.82649006622517	0.35973509933775				0.592529801324503	-0.384529801324503	-0.661721854304636	-8.71708609271523	-6.2564238410596	6.38437086092715				0.964026490066225	0.0354966887417219	0.293933774834437	-5.0882119205298	2.01192052980133	5.82251655629139				0.511788079470199	-0.414834437086093	-0.724238410596026	0.860397350993377	-0.682384105960265	-2.43470198675497			
153	3360	0.983841059602649	0.00275496688741723	0.248476821192053	-9.20662251655629	0.695364238410596	-2.30490066225166				0.912953642384106	0.0317880794701987	0.365139072847682	-2.08609271523179	-1.37218543046358	3.61403973509934				0.981827814569536	-0.0492715231788079	-0.0559470198675496	-2.51258278145695	6.30649006622517	-0.20026490066225				0.560529801324503	-0.368529801324503	-0.645721854304636	-1.15708609271523	-4.8564238410596	6.10437086092715				0.932026490066225	0.0354966887417219	0.261933774834437	-4.8082119205298	2.85192052980133	4.14251655629139				0.527788079470199	-0.414834437086093	-0.724238410596026	3.66039735099338	-2.64238410596027	-1.59470198675497			
154	3380	0.967841059602649	0.0187549668874172	0.232476821192053	-4.16662251655629	-3.2246357615894	-2.58490066225166				0.912953642384106	0.0157880794701987	0.349139072847682	-1.24609271523179	3.94781456953642	3.05403973509934				0.949827814569536	-0.0492715231788079	-0.0719470198675496	0.567417218543046	6.30649006622517	0.35973509933775				0.576529801324503	-0.368529801324503	-0.645721854304636	-0.877086092715232	-2.6164238410596	9.18437086092715				0.900026490066225	0.0354966887417219	0.293933774834437	-5.3682119205298	5.93192052980133	3.58251655629139				0.495788079470199	-0.398834437086093	-0.692238410596026	7.02039735099338	-7.68238410596027	-0.194701986754968			
155	3400	0.967841059602649	0.0187549668874172	0.200476821192053	0.0333774834437086	-5.1846357615894	-0.624900662251656				0.928953642384106	0.0157880794701987	0.413139072847682	-3.48609271523179	4.22781456953642	0.81403973509934				0.949827814569536	-0.0652715231788079	-0.0719470198675496	1.96741721854305	5.74649006622517	0.0797350993377501				0.608529801324503	-0.368529801324503	-0.661721854304636	-5.63708609271523	1.5835761589404	12.2643708609272				0.916026490066225	0.0354966887417219	0.277933774834437	-7.3282119205298	2.85192052980133	1.06251655629139				0.463788079470199	-0.350834437086093	-0.692238410596026	3.10039735099338	-6.28238410596027	0.925298013245032			
156	3420	0.935841059602649	0.00275496688741723	0.216476821192053	1.43337748344371	-2.3846357615894	1.05509933774834				0.928953642384106	-0.000211920529801304	0.413139072847682	-1.24609271523179	-1.09218543046358	1.37403973509934				0.965827814569536	-0.0652715231788079	-0.0559470198675496	3.92741721854305	5.18649006622517	-0.48026490066225				0.624529801324503	-0.368529801324503	-0.661721854304636	-7.03708609271523	3.5435761589404	12.5443708609272				0.932026490066225	0.0354966887417219	0.293933774834437	-7.0482119205298	4.81192052980133	-0.337483443708608				0.447788079470199	-0.350834437086093	-0.692238410596026	4.22039735099338	-3.76238410596027	2.04529801324503			
157	3440	0.935841059602649	-0.0452450331125828	0.248476821192053	2.83337748344371	0.415364238410596	1.89509933774834				0.928953642384106	-0.0162119205298013	0.397139072847682	0.713907284768212	-0.532185430463576	0.25403973509934				0.981827814569536	-0.0972715231788079	-0.0559470198675496	2.52741721854305	3.22649006622517	-0.48026490066225				0.640529801324503	-0.368529801324503	-0.693721854304636	-7.87708609271523	4.3835761589404	10.3043708609272				0.932026490066225	0.0514966887417219	0.309933774834437	-6.4882119205298	5.65192052980133	-0.897483443708608				0.495788079470199	-0.366834437086093	-0.708238410596026	1.14039735099338	0.437615894039735	1.48529801324503			
158	3460	0.983841059602649	-0.0452450331125828	0.280476821192053	5.91337748344371	1.2553642384106	0.775099337748344				0.960953642384106	0.0157880794701987	0.397139072847682	1.27390728476821	-1.37218543046358	0.25403973509934				1.01382781456954	-0.113271523178808	-0.0399470198675496	1.68741721854305	1.26649006622517	-0.76026490066225				0.624529801324503	-0.368529801324503	-0.693721854304636	-5.63708609271523	6.0635761589404	8.34437086092715				0.948026490066225	0.0354966887417219	0.293933774834437	-2.8482119205298	2.85192052980133	-1.73748344370861				0.511788079470199	-0.382834437086093	-0.740238410596026	1.98039735099338	0.157615894039735	-0.754701986754968			
159	3480	0.983841059602649	-0.0452450331125828	0.312476821192053	4.79337748344371	1.5353642384106	-1.46490066225166				0.944953642384106	-0.000211920529801304	0.365139072847682	2.67390728476821	0.307814569536424	0.81403973509934				1.01382781456954	-0.129271523178808	-0.0239470198675496	3.92741721854305	-0.413509933774833	-1.32026490066225				0.608529801324503	-0.352529801324503	-0.645721854304636	-7.31708609271523	4.6635761589404	7.50437086092715				0.948026490066225	0.0194966887417219	0.309933774834437	-1.7282119205298	3.41192052980132	-1.17748344370861				0.511788079470199	-0.398834437086093	-0.724238410596026	1.70039735099338	-0.682384105960265	-0.754701986754968			
160	3500	0.935841059602649	-0.0132450331125828	0.280476821192053	0.873377483443709	-1.2646357615894	-1.74490066225166				0.928953642384106	-0.0162119205298013	0.413139072847682	3.79390728476821	0.307814569536424	-0.585960264900661				0.981827814569536	-0.113271523178808	-0.00794701986754963	2.52741721854305	-2.37350993377483	-1.60026490066225				0.608529801324503	-0.320529801324503	-0.677721854304636	-3.95708609271523	3.2635761589404	8.34437086092715				0.964026490066225	0.0354966887417219	0.309933774834437	-4.8082119205298	3.41192052980132	-1.45748344370861				0.511788079470199	-0.382834437086093	-0.740238410596026	-4.45960264900662	-0.402384105960265	0.365298013245032			
161	3520	0.951841059602649	-0.0452450331125828	0.232476821192053	0.593377483443709	-2.3846357615894	-0.344900662251656				0.928953642384106	-0.0162119205298013	0.365139072847682	5.19390728476821	-2.49218543046358	-0.0259602649006601				0.997827814569536	-0.129271523178808	-0.00794701986754963	1.96741721854305	-2.09350993377483	-0.48026490066225				0.624529801324503	-0.336529801324503	-0.677721854304636	-1.15708609271523	3.5435761589404	8.34437086092715				0.932026490066225	0.0354966887417219	0.309933774834437	-4.2482119205298	2.57192052980133	-2.01748344370861				0.511788079470199	-0.366834437086093	-0.740238410596026	2.26039735099338	-3.20238410596026	1.20529801324503			
162	3540	0.967841059602649	-0.0452450331125828	0.232476821192053	-0.806622516556291	-1.2646357615894	0.215099337748344				0.928953642384106	0.0157880794701987	0.381139072847682	2.95390728476821	1.42781456953642	-0.585960264900661				0.965827814569536	-0.113271523178808	0.00805298013245037	3.64741721854305	-3.49350993377483	0.63973509933775				0.608529801324503	-0.368529801324503	-0.677721854304636	-5.63708609271523	1.3035761589404	6.38437086092715				0.932026490066225	0.0354966887417219	0.293933774834437	-3.1282119205298	1.17192052980133	-2.01748344370861				0.511788079470199	-0.350834437086093	-0.724238410596026	5.90039735099338	-1.80238410596026	-0.754701986754968			
163	3560	0.951841059602649	-0.0612450331125828	0.248476821192053	0.593377483443709	0.135364238410596	0.215099337748344				0.928953642384106	-0.0322119205298013	0.397139072847682	4.07390728476821	-0.532185430463576	-1.42596026490066				0	0	0	0	0	0				0.576529801324503	-0.352529801324503	-0.693721854304636	-5.91708609271523	-0.9364238410596	5.82437086092715				0.916026490066225	0.0354966887417219	0.293933774834437	-3.1282119205298	1.45192052980132	-2.01748344370861				0.511788079470199	-0.366834437086093	-0.724238410596026	6.74039735099338	-2.64238410596027	-1.87470198675497			
