No	Time	12-AccX	12-AccY	12-AccZ	12-GyroX	12-GyroY	12-GyroZ	13-AccX	13-AccY	13-AccZ	13-GyroX	13-GyroY	13-GyroZ	14-AccX	14-AccY	14-AccZ	14-GyroX	14-GyroY	14-GyroZ	15-AccX	15-AccY	15-AccZ	15-GyroX	15-GyroY	15-GyroZ	16-AccX	16-AccY	16-AccZ	16-GyroX	16-GyroY	16-GyroZ	17-AccX	17-AccY	17-AccZ	17-GyroX	17-GyroY	17-GyroZ
0	100	0	0	0	0	0	0				0	0	0	0	0	0				0	0	0	0	0	0				0	0	0	0	0	0				0	0	0	0	0	0				0.287788079470199	-0.222834437086093	-0.884238410596026	0.860397350993377	1.55761589403974	-0.754701986754968			
1	120	-0.216158940397351	0.0987549668874172	-0.935523178807947	-0.806622516556291	0.135364238410596	-0.624900662251656				0.992953642384106	0.111788079470199	0.0771390728476822	1.27390728476821	0.307814569536424	0.25403973509934				-0.250172185430464	-0.0652715231788079	-0.88794701986755	-0.552582781456954	0.426490066225167	-0.20026490066225				0.256529801324503	-0.144529801324503	-0.917721854304636	-0.597086092715232	0.1835761589404	-0.0556291390728476				0.964026490066225	0.0834966887417219	0.117933774834437	0.231788079470198	1.17192052980133	-1.17748344370861				0.287788079470199	-0.222834437086093	-0.884238410596026	0.580397350993377	0.157615894039735	0.365298013245032			
2	140	-0.200158940397351	0.0987549668874172	-0.935523178807947	-0.526622516556291	0.695364238410596	-1.74490066225166				0.992953642384106	0.111788079470199	0.0771390728476822	1.27390728476821	0.307814569536424	1.09403973509934				-0.250172185430464	-0.0652715231788079	-0.88794701986755	0.00741721854304636	0.986490066225167	-0.48026490066225				0.256529801324503	-0.144529801324503	-0.933721854304636	-0.0370860927152318	-0.0964238410596001	-0.0556291390728476				0.964026490066225	0.0834966887417219	0.117933774834437	1.0717880794702	2.01192052980133	-0.617483443708608				0.287788079470199	-0.222834437086093	-0.884238410596026	-0.819602649006623	0.437615894039735	0.0852980132450323			
3	160	-0.216158940397351	0.0987549668874172	-0.951523178807947	-1.08662251655629	0.135364238410596	-0.904900662251656				0.976953642384106	0.111788079470199	0.0771390728476822	-0.126092715231788	-0.532185430463576	0.81403973509934				-0.250172185430464	-0.0652715231788079	-0.88794701986755	0.00741721854304636	1.26649006622517	0.35973509933775				0.240529801324503	-0.144529801324503	-0.933721854304636	-1.15708609271523	0.1835761589404	1.62437086092715				0.964026490066225	0.0834966887417219	0.117933774834437	1.0717880794702	1.45192052980132	-0.897483443708608				0.287788079470199	-0.206834437086093	-0.884238410596026	-0.259602649006623	0.717615894039735	0.365298013245032			
4	180	-0.216158940397351	0.0987549668874172	-0.935523178807947	-0.246622516556291	0.415364238410596	-1.74490066225166				0.992953642384106	0.127788079470199	0.0771390728476822	-1.52609271523179	-0.252185430463576	0.81403973509934				-0.250172185430464	-0.0652715231788079	-0.88794701986755	0.567417218543046	0.986490066225167	0.35973509933775				0.240529801324503	-0.144529801324503	-0.933721854304636	-1.15708609271523	0.4635761589404	1.62437086092715				0.964026490066225	0.0834966887417219	0.101933774834437	1.3517880794702	0.0519205298013249	-0.617483443708608				0.287788079470199	-0.222834437086093	-0.884238410596026	1.14039735099338	1.55761589403974	-4.95470198675497			
5	200	-0.216158940397351	0.0987549668874172	-0.951523178807947	-0.806622516556291	0.695364238410596	-1.46490066225166				0.992953642384106	0.111788079470199	0.0771390728476822	-0.686092715231788	-0.252185430463576	0.81403973509934				-0.234172185430464	-0.0652715231788079	-0.88794701986755	0.567417218543046	0.146490066225167	0.35973509933775				0.240529801324503	-0.128529801324503	-0.933721854304636	-0.877086092715232	0.4635761589404	-0.335629139072848				0.964026490066225	0.0834966887417219	0.117933774834437	1.0717880794702	0.611920529801325	-0.0574834437086077				0.287788079470199	-0.222834437086093	-0.868238410596026	0.580397350993377	0.157615894039735	-0.474701986754968			
6	220	-0.216158940397351	0.0827549668874172	-0.951523178807947	-0.806622516556291	0.975364238410596	-1.18490066225166				0.992953642384106	0.111788079470199	0.0931390728476822	0.153907284768212	0.307814569536424	1.09403973509934				-0.250172185430464	-0.0652715231788079	-0.87194701986755	0.287417218543046	0.146490066225167	-0.48026490066225				0.224529801324503	-0.128529801324503	-0.917721854304636	-0.877086092715232	-0.3764238410596	-0.615629139072848				0.948026490066225	0.0834966887417219	0.133933774834437	3.8717880794702	3.69192052980133	-0.337483443708608				0.287788079470199	-0.222834437086093	-0.884238410596026	0.0203973509933773	0.437615894039735	-0.754701986754968			
7	240	-0.216158940397351	0.0987549668874172	-0.935523178807947	0.0333774834437086	0.415364238410596	-0.904900662251656				0.992953642384106	0.111788079470199	0.0771390728476822	-0.966092715231788	1.70781456953642	1.09403973509934				-0.250172185430464	-0.0652715231788079	-0.88794701986755	0.567417218543046	0.706490066225167	0.0797350993377501				0.240529801324503	-0.144529801324503	-0.933721854304636	-1.43708609271523	-1.4964238410596	-0.335629139072848				0.964026490066225	0.0674966887417219	0.101933774834437	0.231788079470198	-1.90807947019868	-1.17748344370861				0.303788079470199	-0.222834437086093	-0.868238410596026	0.300397350993377	-0.682384105960265	-1.03470198675497			
8	260	-0.200158940397351	0.0987549668874172	-0.935523178807947	0.0333774834437086	1.2553642384106	-0.624900662251656				0.976953642384106	0.111788079470199	0.0931390728476822	-1.52609271523179	2.26781456953642	1.09403973509934				-0.234172185430464	-0.0652715231788079	-0.88794701986755	-0.272582781456954	0.986490066225167	0.0797350993377501				0.240529801324503	-0.144529801324503	-0.917721854304636	-0.877086092715232	-0.9364238410596	-0.895629139072848				0.948026490066225	0.0674966887417219	0.133933774834437	-2.8482119205298	2.29192052980133	-2.57748344370861				0.287788079470199	-0.238834437086093	-0.868238410596026	1.42039735099338	-0.402384105960265	-2.71470198675497			
9	280	-0.216158940397351	0.0987549668874172	-0.935523178807947	-0.246622516556291	0.695364238410596	-0.344900662251656				0.976953642384106	0.127788079470199	0.0931390728476822	-0.966092715231788	1.70781456953642	1.37403973509934				-0.250172185430464	-0.0652715231788079	-0.88794701986755	0.567417218543046	0.986490066225167	-0.20026490066225				0.240529801324503	-0.144529801324503	-0.933721854304636	-0.597086092715232	-0.3764238410596	-1.17562913907285				0.948026490066225	0.0674966887417219	0.133933774834437	-2.2882119205298	2.29192052980133	-2.57748344370861				0.287788079470199	-0.222834437086093	-0.868238410596026	0.300397350993377	-0.682384105960265	-2.15470198675497			
10	300	-0.216158940397351	0.0987549668874172	-0.951523178807947	0.313377483443709	0.135364238410596	-0.344900662251656				0.976953642384106	0.0957880794701987	0.0931390728476822	-3.76609271523179	1.98781456953642	-0.0259602649006601				-0.250172185430464	-0.0492715231788079	-0.88794701986755	1.12741721854305	-0.133509933774833	0.35973509933775				0.256529801324503	-0.128529801324503	-0.933721854304636	-0.317086092715232	0.7435761589404	-0.335629139072848				0.964026490066225	0.0834966887417219	0.117933774834437	-0.328211920529802	1.17192052980133	-1.17748344370861				0.271788079470199	-0.222834437086093	-0.884238410596026	0.300397350993377	0.157615894039735	-2.43470198675497			
11	320	-0.200158940397351	0.0987549668874172	-0.967523178807947	0.0333774834437086	0.695364238410596	-1.18490066225166				0.992953642384106	0.111788079470199	0.109139072847682	-1.80609271523179	-0.812185430463576	-1.42596026490066				-0.250172185430464	-0.0492715231788079	-0.88794701986755	0.287417218543046	0.146490066225167	0.35973509933775				0.256529801324503	-0.128529801324503	-0.917721854304636	-0.597086092715232	-0.0964238410596001	-0.335629139072848				0.964026490066225	0.0834966887417219	0.117933774834437	2.4717880794702	1.73192052980133	-0.617483443708608				0.287788079470199	-0.222834437086093	-0.900238410596026	0.580397350993377	-0.682384105960265	-1.59470198675497			
12	340	-0.216158940397351	0.0987549668874172	-0.951523178807947	0.0333774834437086	0.415364238410596	-1.18490066225166				0.992953642384106	0.111788079470199	0.0931390728476822	2.67390728476821	-1.37218543046358	-1.14596026490066				-0.250172185430464	-0.0652715231788079	-0.88794701986755	0.00741721854304636	0.146490066225167	-0.20026490066225				0.256529801324503	-0.144529801324503	-0.933721854304636	0.242913907284768	0.7435761589404	-0.335629139072848				0.964026490066225	0.0994966887417219	0.133933774834437	1.9117880794702	1.45192052980132	-0.897483443708608				0.287788079470199	-0.222834437086093	-0.900238410596026	1.42039735099338	-0.682384105960265	-1.59470198675497			
13	360	-0.216158940397351	0.0987549668874172	-0.951523178807947	0.313377483443709	0.135364238410596	-1.46490066225166				0.976953642384106	0.111788079470199	0.0771390728476822	2.11390728476821	-1.09218543046358	-0.30596026490066				-0.250172185430464	-0.0652715231788079	-0.88794701986755	-0.272582781456954	0.706490066225167	0.0797350993377501				0.256529801324503	-0.128529801324503	-0.933721854304636	-0.317086092715232	1.0235761589404	-1.17562913907285				0.964026490066225	0.0994966887417219	0.117933774834437	1.9117880794702	1.17192052980133	-1.45748344370861				0.287788079470199	-0.222834437086093	-0.884238410596026	1.98039735099338	-1.24238410596026	-2.15470198675497			
14	380	-0.216158940397351	0.0987549668874172	-0.951523178807947	-0.526622516556291	0.695364238410596	-1.46490066225166				0.976953642384106	0.111788079470199	0.0931390728476822	0.713907284768212	1.98781456953642	-0.30596026490066				-0.250172185430464	-0.0652715231788079	-0.88794701986755	-0.552582781456954	-0.133509933774833	-0.20026490066225				0.240529801324503	-0.144529801324503	-0.949721854304636	1.36291390728477	1.8635761589404	-2.57562913907285				0.964026490066225	0.0674966887417219	0.133933774834437	3.5917880794702	1.45192052980132	-0.617483443708608				0.287788079470199	-0.222834437086093	-0.868238410596026	1.14039735099338	-0.682384105960265	-2.43470198675497			
15	400	-0.200158940397351	0.0987549668874172	-0.951523178807947	0.873377483443709	0.695364238410596	-1.46490066225166				0.992953642384106	0.111788079470199	0.0931390728476822	-0.126092715231788	1.14781456953642	1.65403973509934				-0.250172185430464	-0.0652715231788079	-0.88794701986755	-1.11258278145695	1.26649006622517	-0.48026490066225				0.256529801324503	-0.160529801324503	-0.933721854304636	1.08291390728477	1.0235761589404	-4.53562913907285				0.964026490066225	0.0514966887417219	0.117933774834437	3.3117880794702	1.73192052980133	-1.73748344370861				0.287788079470199	-0.238834437086093	-0.852238410596026	1.42039735099338	-2.08238410596027	-3.27470198675497			
16	420	-0.216158940397351	0.0987549668874172	-0.935523178807947	-0.246622516556291	0.975364238410596	-0.904900662251656				0.976953642384106	0.111788079470199	0.0771390728476822	0.153907284768212	1.98781456953642	-0.585960264900661				-0.250172185430464	-0.0492715231788079	-0.88794701986755	-1.67258278145695	0.426490066225167	0.0797350993377501				0.256529801324503	-0.176529801324503	-0.933721854304636	0.242913907284768	-1.7764238410596	-5.93562913907285				0.964026490066225	0.0514966887417219	0.133933774834437	2.4717880794702	0.611920529801325	-3.13748344370861				0.287788079470199	-0.238834437086093	-0.836238410596026	0.300397350993377	-2.36238410596027	-4.67470198675497			
17	440	-0.216158940397351	0.0987549668874172	-0.935523178807947	0.593377483443709	0.695364238410596	-1.74490066225166				0.960953642384106	0.127788079470199	0.0611390728476822	0.713907284768212	5.62781456953642	-1.98596026490066				-0.250172185430464	-0.0652715231788079	-0.88794701986755	0.287417218543046	0.426490066225167	-0.76026490066225				0.272529801324503	-0.192529801324503	-0.933721854304636	0.242913907284768	-1.7764238410596	-7.05562913907285				0.964026490066225	0.0514966887417219	0.149933774834437	-0.888211920529802	0.891920529801325	-4.81748344370861				0.287788079470199	-0.270834437086093	-0.836238410596026	-1.65960264900662	-4.88238410596027	-7.75470198675497			
18	460	-0.216158940397351	0.0987549668874172	-0.951523178807947	0.313377483443709	0.415364238410596	-0.904900662251656				0.976953642384106	0.111788079470199	0.0931390728476822	0.153907284768212	7.02781456953642	-1.70596026490066				-0.250172185430464	-0.0652715231788079	-0.88794701986755	0.567417218543046	-0.693509933774834	0.35973509933775				0.288529801324503	-0.192529801324503	-0.933721854304636	0.522913907284768	-1.7764238410596	-9.29562913907285				0.964026490066225	0.0514966887417219	0.149933774834437	-1.1682119205298	-0.788079470198675	-7.33748344370861				0.287788079470199	-0.270834437086093	-0.852238410596026	-3.61960264900662	-5.44238410596027	-9.43470198675497			
19	480	-0.216158940397351	0.0987549668874172	-0.951523178807947	0.593377483443709	-0.144635761589404	-0.0649006622516557				0.992953642384106	0.111788079470199	0.125139072847682	0.153907284768212	4.50781456953642	-3.10596026490066				-0.250172185430464	-0.0492715231788079	-0.87194701986755	0.567417218543046	0.146490066225167	0.0797350993377501				0.304529801324503	-0.160529801324503	-0.917721854304636	1.08291390728477	-1.4964238410596	-10.1356291390728				0.964026490066225	0.0834966887417219	0.165933774834437	1.3517880794702	-2.18807947019868	-7.89748344370861				0.271788079470199	-0.238834437086093	-0.868238410596026	-5.29960264900662	-4.32238410596027	-11.114701986755			
20	500	-0.216158940397351	0.0987549668874172	-0.935523178807947	0.873377483443709	-0.144635761589404	-0.344900662251656				0.976953642384106	0.111788079470199	0.0931390728476822	-0.686092715231788	3.10781456953642	-3.94596026490066				-0.250172185430464	-0.0652715231788079	-0.87194701986755	0.00741721854304636	-0.413509933774833	0.35973509933775				0.304529801324503	-0.128529801324503	-0.901721854304636	-0.0370860927152318	-1.2164238410596	-8.73562913907285				0.932026490066225	0.115496688741722	0.133933774834437	3.3117880794702	-5.82807947019868	-6.49748344370861				0.255788079470199	-0.190834437086093	-0.916238410596027	-4.45960264900662	-2.64238410596027	-10.834701986755			
21	520	-0.216158940397351	0.0987549668874172	-0.935523178807947	0.313377483443709	0.695364238410596	-0.624900662251656				0.976953642384106	0.0957880794701987	0.0931390728476822	-0.126092715231788	6.46781456953642	-5.34596026490066				-0.250172185430464	-0.0652715231788079	-0.88794701986755	-0.552582781456954	0.146490066225167	-0.20026490066225				0.256529801324503	-0.112529801324503	-0.901721854304636	-3.39708609271523	-4.5764238410596	-5.93562913907285				0.932026490066225	0.147496688741722	0.101933774834437	6.1117880794702	-4.70807947019868	-4.53748344370861				0.239788079470199	-0.158834437086093	-0.932238410596026	-0.259602649006623	-2.92238410596027	-7.47470198675497			
22	540	-0.200158940397351	0.0827549668874172	-0.951523178807947	-0.806622516556291	0.695364238410596	-0.904900662251656				0.976953642384106	0.0957880794701987	0.109139072847682	0.433907284768212	7.58781456953643	-5.34596026490066				-0.266172185430464	-0.0652715231788079	-0.88794701986755	1.40741721854305	0.426490066225167	0.0797350993377501				0.224529801324503	-0.0965298013245033	-0.917721854304636	-3.67708609271523	-6.5364238410596	-4.25562913907285				0.948026490066225	0.147496688741722	0.101933774834437	11.1517880794702	-3.30807947019868	-0.0574834437086077				0.255788079470199	-0.174834437086093	-0.932238410596026	4.78039735099338	-4.60238410596027	-6.07470198675497			
23	560	-0.200158940397351	0.0827549668874172	-0.935523178807947	-1.36662251655629	0.695364238410596	-1.18490066225166				0.976953642384106	0.0957880794701987	0.125139072847682	3.23390728476821	5.06781456953642	-4.22596026490066				-0.250172185430464	-0.0652715231788079	-0.87194701986755	0.00741721854304636	-0.133509933774833	-1.04026490066225				0.208529801324503	-0.112529801324503	-0.917721854304636	-2.83708609271523	-4.0164238410596	-4.53562913907285				0.964026490066225	0.115496688741722	0.0859337748344371	13.9517880794702	0.611920529801325	1.90251655629139				0.271788079470199	-0.206834437086093	-0.916238410596027	5.90039735099338	-3.76238410596027	-5.23470198675497			
24	580	-0.200158940397351	0.0987549668874172	-0.935523178807947	-1.36662251655629	0.135364238410596	-2.58490066225166				0.976953642384106	0.111788079470199	0.109139072847682	3.79390728476821	3.38781456953642	-3.94596026490066				-0.250172185430464	-0.0652715231788079	-0.87194701986755	-0.552582781456954	-0.693509933774834	-0.76026490066225				0.192529801324503	-0.112529801324503	-0.917721854304636	-2.27708609271523	-1.4964238410596	-4.25562913907285				0.964026490066225	0.0994966887417219	0.0859337748344371	13.1117880794702	0.331920529801325	1.90251655629139				0.287788079470199	-0.206834437086093	-0.884238410596026	2.82039735099338	-2.08238410596027	-3.27470198675497			
25	600	-0.216158940397351	0.0827549668874172	-0.935523178807947	-1.08662251655629	0.135364238410596	-2.02490066225166				0.976953642384106	0.127788079470199	0.0771390728476822	3.79390728476821	3.94781456953642	-2.26596026490066				-0.266172185430464	-0.0812715231788079	-0.87194701986755	-1.67258278145695	0.146490066225167	-0.76026490066225				0.176529801324503	-0.0965298013245033	-0.917721854304636	-0.317086092715232	-0.6564238410596	-3.97562913907285				0.964026490066225	0.0994966887417219	0.101933774834437	11.4317880794702	-1.06807947019868	2.46251655629139				0.287788079470199	-0.190834437086093	-0.900238410596026	1.70039735099338	-0.962384105960265	-2.71470198675497			
26	620	-0.200158940397351	0.0987549668874172	-0.951523178807947	-0.246622516556291	0.415364238410596	-1.74490066225166				0.976953642384106	0.143788079470199	0.0771390728476822	2.95390728476821	6.74781456953642	-1.98596026490066				-0.250172185430464	-0.0652715231788079	-0.88794701986755	-1.67258278145695	0.426490066225167	-1.04026490066225				0.176529801324503	-0.0805298013245033	-0.917721854304636	1.36291390728477	-0.0964238410596001	-3.41562913907285				0.948026490066225	0.131496688741722	0.101933774834437	10.3117880794702	-3.86807947019868	3.86251655629139				0.287788079470199	-0.174834437086093	-0.916238410596027	2.82039735099338	0.157615894039735	-1.59470198675497			
27	640	-0.200158940397351	0.0987549668874172	-0.951523178807947	-1.36662251655629	0.695364238410596	-1.46490066225166				0.976953642384106	0.143788079470199	0.109139072847682	1.83390728476821	9.82781456953643	-1.98596026490066				-0.250172185430464	-0.0652715231788079	-0.88794701986755	-2.51258278145695	-0.133509933774833	-1.04026490066225				0.176529801324503	-0.0805298013245033	-0.933721854304636	3.88291390728477	1.3035761589404	-1.45562913907285				0.964026490066225	0.131496688741722	0.0859337748344371	10.3117880794702	-2.74807947019868	4.98251655629139				0.303788079470199	-0.190834437086093	-0.900238410596026	5.90039735099338	0.437615894039735	0.645298013245032			
28	660	-0.216158940397351	0.0987549668874172	-0.935523178807947	-0.806622516556291	0.135364238410596	-1.74490066225166				0.992953642384106	0.143788079470199	0.125139072847682	0.993907284768212	10.9478145695364	-1.70596026490066				-0.266172185430464	-0.0492715231788079	-0.88794701986755	-1.67258278145695	-0.693509933774834	-0.76026490066225				0.208529801324503	-0.0965298013245033	-0.933721854304636	5.56291390728477	1.5835761589404	0.224370860927152				0.964026490066225	0.131496688741722	0.101933774834437	9.7517880794702	-1.62807947019868	5.26251655629139				0.303788079470199	-0.206834437086093	-0.868238410596026	6.18039735099338	0.717615894039735	1.76529801324503			
29	680	-0.216158940397351	0.114754966887417	-0.935523178807947	1.15337748344371	-0.704635761589404	-1.18490066225166				0.992953642384106	0.159788079470199	0.125139072847682	1.55390728476821	8.70781456953642	-0.585960264900661				-0.266172185430464	-0.0492715231788079	-0.88794701986755	-1.11258278145695	0.706490066225167	-0.20026490066225				0.224529801324503	-0.128529801324503	-0.949721854304636	5.28291390728477	1.8635761589404	0.504370860927152				0.964026490066225	0.115496688741722	0.101933774834437	5.8317880794702	-0.788079470198675	5.54251655629139				0.319788079470199	-0.222834437086093	-0.852238410596026	3.94039735099338	0.157615894039735	2.32529801324503			
30	700	-0.216158940397351	0.0987549668874172	-0.967523178807947	0.873377483443709	0.135364238410596	-1.46490066225166				0.992953642384106	0.159788079470199	0.109139072847682	1.27390728476821	10.1078145695364	0.25403973509934				-0.266172185430464	-0.0332715231788079	-0.85594701986755	0.00741721854304636	0.706490066225167	0.63973509933775				0.224529801324503	-0.128529801324503	-0.965721854304636	4.16291390728477	2.9835761589404	-0.335629139072848				0.964026490066225	0.0994966887417219	0.117933774834437	0.791788079470198	-0.788079470198675	3.30251655629139				0.303788079470199	-0.222834437086093	-0.884238410596026	1.98039735099338	0.717615894039735	1.20529801324503			
31	720	-0.216158940397351	0.0987549668874172	-0.951523178807947	0.313377483443709	0.975364238410596	-0.904900662251656				0.992953642384106	0.159788079470199	0.157139072847682	-0.126092715231788	8.98781456953643	-0.30596026490066				-0.266172185430464	-0.0492715231788079	-0.88794701986755	1.40741721854305	1.26649006622517	0.35973509933775				0.208529801324503	-0.128529801324503	-0.949721854304636	3.88291390728477	2.9835761589404	-1.17562913907285				0.964026490066225	0.115496688741722	0.101933774834437	-1.1682119205298	0.331920529801325	2.74251655629139				0.287788079470199	-0.190834437086093	-0.884238410596026	3.10039735099338	0.997615894039735	1.48529801324503			
32	740	-0.216158940397351	0.0987549668874172	-0.935523178807947	1.15337748344371	0.695364238410596	-0.624900662251656				0.992953642384106	0.159788079470199	0.157139072847682	-1.52609271523179	4.78781456953642	0.25403973509934				-0.250172185430464	-0.0492715231788079	-0.87194701986755	2.80741721854305	0.706490066225167	0.0797350993377501				0.224529801324503	-0.112529801324503	-0.949721854304636	3.88291390728477	1.8635761589404	0.224370860927152				0.980026490066225	0.131496688741722	0.101933774834437	0.231788079470198	2.29192052980133	2.46251655629139				0.287788079470199	-0.206834437086093	-0.884238410596026	3.10039735099338	0.997615894039735	2.32529801324503			
33	760	-0.200158940397351	0.0987549668874172	-0.935523178807947	2.27337748344371	0.695364238410596	-1.18490066225166				0.976953642384106	0.143788079470199	0.141139072847682	-3.76609271523179	2.54781456953642	1.09403973509934				-0.250172185430464	-0.0492715231788079	-0.88794701986755	2.24741721854305	0.986490066225167	-0.76026490066225				0.256529801324503	-0.128529801324503	-0.949721854304636	5.00291390728477	2.7035761589404	1.06437086092715				0.964026490066225	0.115496688741722	0.101933774834437	-0.328211920529802	1.17192052980133	1.62251655629139				0.303788079470199	-0.206834437086093	-0.884238410596026	1.98039735099338	1.83761589403974	1.48529801324503			
34	780	-0.200158940397351	0.114754966887417	-0.951523178807947	3.39337748344371	-0.144635761589404	-0.904900662251656				0.976953642384106	0.143788079470199	0.125139072847682	-1.24609271523179	1.98781456953642	2.49403973509934				-0.266172185430464	-0.0492715231788079	-0.88794701986755	1.68741721854305	0.146490066225167	-0.20026490066225				0.256529801324503	-0.144529801324503	-0.949721854304636	3.88291390728477	2.4235761589404	0.784370860927152				0.948026490066225	0.115496688741722	0.101933774834437	-0.888211920529802	1.17192052980133	1.06251655629139				0.287788079470199	-0.206834437086093	-0.884238410596026	1.70039735099338	1.55761589403974	2.60529801324503			
35	800	-0.200158940397351	0.0987549668874172	-0.951523178807947	2.55337748344371	0.135364238410596	-1.18490066225166				0.976953642384106	0.143788079470199	0.141139072847682	-1.52609271523179	3.66781456953642	6.97403973509934				-0.250172185430464	-0.0492715231788079	-0.88794701986755	2.80741721854305	0.706490066225167	-0.76026490066225				0.240529801324503	-0.144529801324503	-0.949721854304636	-2.55708609271523	0.7435761589404	-0.335629139072848				0.948026490066225	0.0994966887417219	0.117933774834437	-1.4482119205298	3.41192052980132	1.34251655629139				0.271788079470199	-0.222834437086093	-0.868238410596026	1.98039735099338	1.27761589403974	2.04529801324503			
36	820	-0.200158940397351	0.0987549668874172	-0.951523178807947	1.15337748344371	0.415364238410596	-0.624900662251656				0.976953642384106	0.143788079470199	0.141139072847682	-2.92609271523179	3.38781456953642	3.61403973509934				-0.250172185430464	-0.0492715231788079	-0.88794701986755	3.08741721854305	0.986490066225167	-0.76026490066225				0.240529801324503	-0.144529801324503	-0.933721854304636	-3.67708609271523	-0.0964238410596001	-0.335629139072848				0.948026490066225	0.0994966887417219	0.117933774834437	-2.8482119205298	3.97192052980133	1.34251655629139				0.271788079470199	-0.222834437086093	-0.884238410596026	1.42039735099338	1.27761589403974	1.76529801324503			
37	840	-0.200158940397351	0.0987549668874172	-0.935523178807947	1.99337748344371	0.695364238410596	-1.46490066225166				0.992953642384106	0.127788079470199	0.141139072847682	-3.20609271523179	1.14781456953642	4.45403973509934				-0.250172185430464	-0.0652715231788079	-0.88794701986755	2.24741721854305	0.706490066225167	-1.04026490066225				0.224529801324503	-0.144529801324503	-0.933721854304636	-1.71708609271523	0.7435761589404	1.06437086092715				0.948026490066225	0.0834966887417219	0.117933774834437	-2.2882119205298	4.53192052980133	-0.0574834437086077				0.271788079470199	-0.222834437086093	-0.884238410596026	1.98039735099338	0.717615894039735	1.48529801324503			
38	860	-0.200158940397351	0.0827549668874172	-0.935523178807947	3.11337748344371	0.135364238410596	-1.18490066225166				0.976953642384106	0.127788079470199	0.141139072847682	-2.36609271523179	0.307814569536424	4.45403973509934				-0.250172185430464	-0.0652715231788079	-0.88794701986755	2.24741721854305	0.426490066225167	-1.32026490066225				0.240529801324503	-0.160529801324503	-0.933721854304636	-0.597086092715232	2.4235761589404	1.90437086092715				0.964026490066225	0.0834966887417219	0.117933774834437	-1.4482119205298	5.37192052980133	0.782516556291392				0.271788079470199	-0.238834437086093	-0.868238410596026	1.14039735099338	1.83761589403974	1.20529801324503			
39	880	-0.216158940397351	0.0987549668874172	-0.951523178807947	1.15337748344371	-0.704635761589404	-1.46490066225166				0.976953642384106	0.111788079470199	0.125139072847682	-0.686092715231788	0.0278145695364242	4.45403973509934				-0.234172185430464	-0.0652715231788079	-0.88794701986755	2.24741721854305	0.706490066225167	-1.32026490066225				0.256529801324503	-0.144529801324503	-0.933721854304636	1.08291390728477	1.3035761589404	1.62437086092715				0.964026490066225	0.0834966887417219	0.117933774834437	-0.0482119205298018	4.53192052980133	0.502516556291392				0.271788079470199	-0.238834437086093	-0.868238410596026	2.26039735099338	2.95761589403974	0.645298013245032			
40	900	-0.216158940397351	0.0827549668874172	-0.951523178807947	2.55337748344371	-0.424635761589404	-1.18490066225166				0.992953642384106	0.111788079470199	0.141139072847682	0.713907284768212	0.587814569536424	4.45403973509934				-0.250172185430464	-0.0812715231788079	-0.87194701986755	2.52741721854305	0.986490066225167	-1.04026490066225				0.256529801324503	-0.160529801324503	-0.917721854304636	-1.71708609271523	1.0235761589404	2.18437086092715				0.948026490066225	0.0834966887417219	0.133933774834437	1.9117880794702	7.61192052980133	1.06251655629139				0.271788079470199	-0.238834437086093	-0.884238410596026	2.54039735099338	2.39761589403974	1.20529801324503			
41	920	-0.216158940397351	0.0827549668874172	-0.951523178807947	1.99337748344371	-0.144635761589404	-1.46490066225166				0.976953642384106	0.0957880794701987	0.125139072847682	-0.406092715231788	0.307814569536424	4.17403973509934				-0.250172185430464	-0.0652715231788079	-0.88794701986755	2.24741721854305	0.986490066225167	-1.04026490066225				0.240529801324503	-0.144529801324503	-0.917721854304636	-3.11708609271523	-0.6564238410596	0.784370860927152				0.980026490066225	0.0834966887417219	0.101933774834437	-0.0482119205298018	2.01192052980133	1.90251655629139				0.271788079470199	-0.238834437086093	-0.884238410596026	1.14039735099338	1.83761589403974	1.76529801324503			
42	940	0	0	0	0	0	0				0	0	0	0	0	0				0	0	0	0	0	0				0.256529801324503	-0.144529801324503	-0.933721854304636	-0.597086092715232	-0.0964238410596001	0.784370860927152				0.964026490066225	0.0834966887417219	0.117933774834437	-1.4482119205298	5.37192052980133	-0.337483443708608				0.271788079470199	-0.254834437086093	-0.868238410596026	1.98039735099338	0.157615894039735	2.04529801324503			
43	1060	0	0	0	0	0	0				0.976953642384106	0.111788079470199	0.109139072847682	0.153907284768212	1.42781456953642	1.93403973509934				-0.250172185430464	-0.0652715231788079	-0.87194701986755	-1.11258278145695	0.146490066225167	-0.76026490066225				0	0	0	0	0	0				0.964026490066225	0.0674966887417219	0.117933774834437	1.6317880794702	2.85192052980133	1.34251655629139				0.287788079470199	-0.238834437086093	-0.868238410596026	0.0203973509933773	3.23761589403974	3.16529801324503			
44	1080	-0.216158940397351	0.0987549668874172	-0.951523178807947	-2.20662251655629	-0.144635761589404	-0.344900662251656				0.976953642384106	0.111788079470199	0.141139072847682	-0.126092715231788	2.54781456953642	1.93403973509934				-0.250172185430464	-0.0652715231788079	-0.87194701986755	-0.552582781456954	0.146490066225167	-0.48026490066225				0.240529801324503	-0.112529801324503	-0.949721854304636	7.52291390728477	-2.3364238410596	-0.615629139072848				0.964026490066225	0.0674966887417219	0.133933774834437	1.6317880794702	2.01192052980133	0.782516556291392				0.271788079470199	-0.270834437086093	-0.884238410596026	0.300397350993377	0.997615894039735	5.12529801324503			
45	1100	-0.200158940397351	0.0827549668874172	-0.935523178807947	0.593377483443709	0.135364238410596	-0.624900662251656				0.992953642384106	0.127788079470199	0.109139072847682	-0.126092715231788	1.70781456953642	1.65403973509934				-0.250172185430464	-0.0492715231788079	-0.88794701986755	-2.23258278145695	-0.693509933774834	-0.48026490066225				0.224529801324503	-0.144529801324503	-0.949721854304636	13.1229139072848	-5.1364238410596	-2.85562913907285				0.964026490066225	0.0834966887417219	0.101933774834437	2.7517880794702	0.331920529801325	0.502516556291392				0.255788079470199	-0.270834437086093	-0.868238410596026	-5.57960264900662	2.95761589403974	7.36529801324503			
46	1120	-0.200158940397351	0.0987549668874172	-0.935523178807947	0.313377483443709	0.135364238410596	-0.0649006622516557				0.976953642384106	0.111788079470199	0.109139072847682	0.713907284768212	3.10781456953642	1.65403973509934				-0.266172185430464	-0.0332715231788079	-0.87194701986755	-1.67258278145695	-0.133509933774833	-1.04026490066225				0.240529801324503	-0.192529801324503	-0.949721854304636	11.1629139072848	-8.4964238410596	-5.37562913907285				0.964026490066225	0.0674966887417219	0.101933774834437	4.1517880794702	1.17192052980133	-0.0574834437086077				0.239788079470199	-0.238834437086093	-0.884238410596026	-8.93960264900662	3.79761589403974	8.76529801324503			
47	1140	-0.200158940397351	0.0827549668874172	-0.951523178807947	-3.04662251655629	-0.984635761589404	0.215099337748344				0.976953642384106	0.127788079470199	0.0931390728476822	0.433907284768212	6.18781456953642	1.09403973509934				-0.250172185430464	-0.0652715231788079	-0.88794701986755	-0.272582781456954	-0.133509933774833	-1.60026490066225				0.224529801324503	-0.176529801324503	-0.917721854304636	12.8429139072848	-15.2164238410596	-7.05562913907285				0.948026490066225	0.0674966887417219	0.0859337748344371	2.1917880794702	3.41192052980132	-0.337483443708608				0.239788079470199	-0.206834437086093	-0.900238410596026	-10.8996026490066	3.51761589403974	8.48529801324503			
48	1160	-0.184158940397351	0.0987549668874172	-0.951523178807947	-1.08662251655629	-0.424635761589404	0.215099337748344				0.960953642384106	0.111788079470199	0.125139072847682	0.993907284768212	11.2278145695364	2.49403973509934				-0.234172185430464	-0.0492715231788079	-0.88794701986755	2.24741721854305	-1.25350993377483	-2.72026490066225				0.192529801324503	-0.144529801324503	-0.965721854304636	10.8829139072848	-18.5764238410596	-10.6956291390728				0.964026490066225	0.0834966887417219	0.101933774834437	3.0317880794702	7.33192052980133	-1.73748344370861				0.239788079470199	-0.222834437086093	-0.932238410596026	-9.21960264900662	-5.16238410596027	8.76529801324503			
49	1180	-0.200158940397351	0.0827549668874172	-0.935523178807947	-1.08662251655629	-1.5446357615894	0.495099337748344				0.960953642384106	0.127788079470199	0.125139072847682	1.27390728476821	11.5078145695364	3.61403973509934				-0.250172185430464	-0.0492715231788079	-0.87194701986755	-0.832582781456954	-1.25350993377483	-3.56026490066225				0.160529801324503	-0.144529801324503	-0.965721854304636	15.0829139072848	-16.3364238410596	-16.0156291390729				0.980026490066225	0.0834966887417219	0.0699337748344371	4.4317880794702	5.09192052980133	-3.41748344370861				0.207788079470199	-0.222834437086093	-0.932238410596026	-14.8196026490066	-11.3223841059603	13.805298013245			
50	1200	-0.184158940397351	0.0827549668874172	-0.935523178807947	0.0333774834437086	-1.2646357615894	0.495099337748344				0.976953642384106	0.143788079470199	0.0931390728476822	0.713907284768212	14.3078145695364	4.73403973509934				-0.250172185430464	-0.0492715231788079	-0.88794701986755	-0.552582781456954	-1.53350993377483	-4.40026490066225				0.144529801324503	-0.208529801324503	-1.01372185430464	14.5229139072848	-23.3364238410596	-22.1756291390729				0.948026490066225	0.0994966887417219	0.0379337748344371	5.5517880794702	9.57192052980133	-3.41748344370861				0.175788079470199	-0.206834437086093	-0.916238410596027	-20.4196026490066	-5.72238410596027	19.125298013245			
51	1220	-0.184158940397351	0.114754966887417	-0.935523178807947	-4.44662251655629	-0.984635761589404	1.33509933774834				0.976953642384106	0.111788079470199	0.0931390728476822	-2.08609271523179	18.2278145695364	7.53403973509934				-0.234172185430464	-0.0492715231788079	-0.88794701986755	3.36741721854305	-2.09350993377483	-5.80026490066225				0.144529801324503	-0.192529801324503	-1.02972185430464	3.88291390728477	-22.4964238410596	-27.2156291390728				0.964026490066225	0.0994966887417219	0.0539337748344371	6.1117880794702	11.8119205298013	-3.97748344370861				0.159788079470199	-0.174834437086093	-0.948238410596026	-18.4596026490066	-4.04238410596027	21.085298013245			
52	1240	-0.184158940397351	0.0827549668874172	-0.951523178807947	-2.76662251655629	-1.8246357615894	2.45509933774835				0.976953642384106	0.143788079470199	0.109139072847682	-0.406092715231788	19.9078145695364	8.37403973509934				-0.234172185430464	-0.0332715231788079	-0.87194701986755	4.76741721854305	-3.21350993377483	-6.08026490066225				0.128529801324503	-0.176529801324503	-0.965721854304636	-16.5570860927152	-22.2164238410596	-30.8556291390729				0.948026490066225	0.0994966887417219	0.0219337748344371	6.3917880794702	12.0919205298013	-2.85748344370861				0.159788079470199	-0.174834437086093	-0.964238410596026	-7.25960264900662	-9.36238410596027	25.565298013245			
53	1260	-0.216158940397351	0.114754966887417	-0.935523178807947	-1.36662251655629	-3.5046357615894	1.61509933774834				0.960953642384106	0.127788079470199	0.125139072847682	3.51390728476821	23.2678145695364	9.49403973509934				-0.266172185430464	-0.0492715231788079	-0.88794701986755	3.36741721854305	-4.89350993377483	-7.20026490066225				0.112529801324503	-0.208529801324503	-0.949721854304636	-20.7570860927152	-26.1364238410596	-31.4156291390729				0.948026490066225	0.115496688741722	0.0219337748344371	3.8717880794702	12.0919205298013	-2.85748344370861				0.143788079470199	-0.174834437086093	-0.932238410596026	1.70039735099338	-6.00238410596027	28.085298013245			
54	1280	-0.232158940397351	0.0987549668874172	-0.935523178807947	-6.68662251655629	-2.9446357615894	1.89509933774834				0.960953642384106	0.143788079470199	0.141139072847682	5.75390728476821	31.3878145695364	11.7340397350993				-0.282172185430464	-0.0492715231788079	-0.90394701986755	5.04741721854305	-4.33350993377483	-7.48026490066225				0.0805298013245033	-0.192529801324503	-0.965721854304636	-27.1970860927152	-23.6164238410596	-30.8556291390729				0.948026490066225	0.115496688741722	0.0219337748344371	6.3917880794702	16.5719205298013	-1.17748344370861				0.127788079470199	-0.126834437086093	-0.932238410596026	3.94039735099338	2.11761589403974	30.045298013245			
55	1300	-0.232158940397351	0.0987549668874172	-0.951523178807947	-1.64662251655629	-2.9446357615894	1.05509933774834				0.992953642384106	0.127788079470199	0.125139072847682	10.5139072847682	40.9078145695364	17.6140397350993				-0.282172185430464	-0.0492715231788079	-0.88794701986755	6.44741721854305	-2.65350993377483	-7.20026490066225				0.0805298013245033	-0.176529801324503	-0.965721854304636	-27.1970860927152	-22.2164238410596	-29.1756291390729				0.948026490066225	0.115496688741722	0.0539337748344371	7.7917880794702	22.1719205298013	-0.897483443708608				0.159788079470199	-0.0948344370860927	-0.980238410596026	15.7003973509934	5.47761589403974	31.445298013245			
56	1320	-0.232158940397351	0.0987549668874172	-0.967523178807947	-0.526622516556291	-0.424635761589404	1.33509933774834				1.04095364238411	0.127788079470199	0.109139072847682	10.2339072847682	41.4678145695364	17.0540397350993				-0.266172185430464	-0.0652715231788079	-0.88794701986755	5.04741721854305	-0.693509933774834	-7.48026490066225				0.0645298013245033	-0.160529801324503	-0.981721854304636	-26.0770860927152	-18.5764238410596	-28.8956291390729				0.980026490066225	0.115496688741722	0.0699337748344371	9.1917880794702	24.4119205298013	-0.337483443708608				0.191788079470199	-0.126834437086093	-0.996238410596026	28.3003973509934	-3.20238410596026	30.605298013245			
57	1340	-0.216158940397351	0.0987549668874172	-0.935523178807947	-3.60662251655629	0.135364238410596	1.05509933774834				1.07295364238411	0.159788079470199	0.125139072847682	9.39390728476821	28.8678145695364	15.0940397350993				-0.250172185430464	-0.0812715231788079	-0.88794701986755	7.84741721854305	-1.81350993377483	-9.16026490066225				0.0485298013245033	-0.144529801324503	-1.01372185430464	-17.6770860927152	-10.7364238410596	-28.6156291390729				1.01202649006623	0.115496688741722	0.0699337748344371	4.9917880794702	22.4519205298013	-0.0574834437086077				0.143788079470199	-0.158834437086093	-0.980238410596026	26.3403973509934	-11.3223841059603	27.245298013245			
58	1360	-0.248158940397351	0.0987549668874172	-0.919523178807947	-5.00662251655629	-0.984635761589404	1.61509933774834				1.05695364238411	0.159788079470199	0.141139072847682	9.11390728476821	12.0678145695364	14.8140397350993				-0.282172185430464	-0.0812715231788079	-0.87194701986755	9.24741721854305	-3.21350993377483	-9.72026490066225				0.0965298013245033	-0.144529801324503	-1.02972185430464	-9.55708609271523	-7.9364238410596	-24.4156291390728				1.06002649006623	0.115496688741722	0.0219337748344371	7.2317880794702	23.8519205298013	-1.17748344370861				0.111788079470199	-0.174834437086093	-0.996238410596026	22.1403973509934	-3.76238410596027	26.965298013245			
59	1380	-0.264158940397351	0.0987549668874172	-0.951523178807947	-0.246622516556291	-1.8246357615894	1.33509933774834				1.00895364238411	0.127788079470199	0.109139072847682	12.4739072847682	7.86781456953642	17.8940397350993				-0.314172185430464	-0.0652715231788079	-0.88794701986755	9.24741721854305	-2.09350993377483	-9.44026490066225				0.112529801324503	-0.176529801324503	-1.10972185430464	-2.83708609271523	-14.0964238410596	-21.8956291390728				1.04402649006623	0.147496688741722	0.0219337748344371	9.4717880794702	23.8519205298013	-0.0574834437086077				0.111788079470199	-0.158834437086093	-1.06023841059603	18.2203973509934	-0.962384105960265	28.085298013245			
60	1400	-0.280158940397351	0.0987549668874172	-0.967523178807947	0.593377483443709	1.2553642384106	1.05509933774834				1.12095364238411	0.0957880794701987	0.0291390728476822	12.4739072847682	7.86781456953642	20.1340397350993				-0.314172185430464	-0.0652715231788079	-0.88794701986755	8.96741721854305	1.26649006622517	-10.2802649006622				0.144529801324503	-0.176529801324503	-1.17372185430464	-12.3570860927152	-26.6964238410596	-25.5356291390728				1.06002649006623	0.115496688741722	0.0539337748344371	18.4317880794702	25.5319205298013	0.782516556291392				0.0957880794701987	-0.174834437086093	-1.06023841059603	20.1803973509934	-8.80238410596027	31.445298013245			
61	1420	-0.312158940397351	0.0827549668874172	-0.951523178807947	-5.84662251655629	4.8953642384106	0.215099337748344				1.13695364238411	0.143788079470199	-0.0188609271523178	0.713907284768212	-7.81218543046358	13.1340397350993				-0.314172185430464	-0.0492715231788079	-0.88794701986755	8.68741721854305	2.10649006622517	-8.32026490066225				0.192529801324503	-0.192529801324503	-1.18972185430464	-23.2770860927152	-34.5364238410596	-30.5756291390729				1.09202649006623	0.115496688741722	0.0379337748344371	21.7917880794702	19.9319205298013	-1.73748344370861				0.0797880794701987	-0.206834437086093	-1.07623841059603	28.5803973509934	-10.4823841059603	33.685298013245			
62	1440	-0.344158940397351	0.0987549668874172	-0.951523178807947	-6.96662251655629	6.0153642384106	2.73509933774834				1.07295364238411	0.175788079470199	-0.0188609271523178	-22.2460927152318	-16.2121854304636	12.2940397350993				-0.314172185430464	-0.0652715231788079	-0.83994701986755	14.847417218543	2.10649006622517	-8.32026490066225				0.144529801324503	-0.160529801324503	-1.18972185430464	-49.5970860927152	-51.8964238410596	-38.9756291390729				1.14002649006623	0.131496688741722	0.00593377483443711	21.5117880794702	10.4119205298013	-2.85748344370861				0.0477880794701987	-0.270834437086093	-1.04423841059603	49.0203973509934	-15.8023841059603	42.645298013245			
63	1460	-0.312158940397351	0.0827549668874172	-0.935523178807947	-12.2866225165563	7.1353642384106	2.73509933774834				0.912953642384106	0.175788079470199	0.0451390728476822	-22.8060927152318	-10.0521854304636	20.4140397350993				-0.362172185430464	-0.0812715231788079	-0.82394701986755	18.2074172185431	-0.133509933774833	-7.76026490066225				0.0165298013245033	-0.128529801324503	-1.14172185430464	-63.5970860927152	-62.2564238410596	-48.2156291390729				1.09202649006623	0.163496688741722	-0.0420662251655629	23.1917880794702	0.891920529801325	-2.85748344370861				-0.0642119205298013	-0.350834437086093	-1.01223841059603	36.9803973509934	-19.7223841059603	57.205298013245			
64	1480	-0.296158940397351	0.0347549668874172	-0.935523178807947	-15.3666225165563	0.695364238410596	2.17509933774834				0.944953642384106	0.0637880794701987	-0.00286092715231785	5.75390728476821	17.1078145695364	36.9340397350993				-0.394172185430464	-0.0812715231788079	-0.90394701986755	17.647417218543	-1.53350993377483	-6.92026490066225				-0.0474701986754967	-0.160529801324503	-1.10972185430464	-72.2770860927152	-68.9764238410596	-54.9356291390729				1.01202649006623	0.147496688741722	-0.0900662251655629	29.3517880794702	0.331920529801325	-2.57748344370861				-0.0322119205298013	-0.254834437086093	-1.02823841059603	19.0603973509934	-13.5623841059603	66.165298013245			
65	1500	-0.312158940397351	0.0507549668874172	-0.903523178807947	-14.5266225165563	-0.424635761589404	0.495099337748344				1.02495364238411	0.0317880794701987	0.0451390728476822	8.27390728476821	48.4678145695364	37.4940397350993				-0.346172185430464	-0.0972715231788079	-0.88794701986755	19.8874172185431	-2.65350993377483	-7.20026490066225				-0.159470198675497	-0.144529801324503	-1.02972185430464	-84.0370860927152	-74.5764238410596	-58.8556291390729				1.01202649006623	0.0834966887417219	-0.106066225165563	42.2317880794702	7.89192052980133	-2.29748344370861				-0.0642119205298013	-0.190834437086093	-1.01223841059603	28.0203973509934	-20.8423841059603	74.285298013245			
66	1520	-0.328158940397351	0.130754966887417	-0.951523178807947	-17.3266225165563	4.3353642384106	-1.46490066225166				0.960953642384106	0.143788079470199	0.109139072847682	-10.4860927152318	57.9878145695364	32.4540397350993				-0.362172185430464	-0.129271523178808	-0.88794701986755	23.5274172185431	4.62649006622517	-7.76026490066225				-0.287470198675497	-0.0805298013245033	-0.933721854304636	-94.3970860927152	-76.2564238410596	-63.6156291390729				0.964026490066225	0.0354966887417219	-0.0740662251655629	43.6317880794702	8.45192052980133	-3.69748344370861				-0.112211920529801	-0.174834437086093	-0.964238410596026	37.5403973509934	-24.2023841059603	82.965298013245			
67	1540	-0.296158940397351	0.114754966887417	-0.983523178807947	-19.2866225165563	7.6953642384106	-0.624900662251656				0.832953642384106	0.127788079470199	0.0131390728476822	-6.56609271523179	58.8278145695364	35.2540397350993				-0.346172185430464	-0.129271523178808	-0.96794701986755	27.727417218543	7.98649006622517	-8.32026490066225				-0.351470198675497	-0.0485298013245033	-0.869721854304636	-84.0370860927152	-74.8564238410596	-64.4556291390729				0.948026490066225	0.0514966887417219	-0.106066225165563	32.4317880794702	7.33192052980133	-7.33748344370861				-0.0802119205298013	-0.174834437086093	-0.948238410596026	45.3803973509934	-37.9223841059603	90.245298013245			
68	1560	-0.312158940397351	0.146754966887417	-0.951523178807947	-29.3666225165563	10.2153642384106	1.33509933774834				0.832953642384106	-0.176211920529801	0.0611390728476822	-11.8860927152318	84.0278145695364	44.7740397350993				-0.362172185430464	-0.177271523178808	-0.98394701986755	31.3674172185431	13.8664900662252	-6.08026490066225				-0.287470198675497	-0.000529801324503289	-0.821721854304636	-57.9970860927152	-68.9764238410596	-65.8556291390729				0.948026490066225	-0.0125033112582781	-0.122066225165563	37.7517880794702	14.6119205298013	-9.85748344370861				-0.0642119205298013	-0.174834437086093	-0.900238410596026	34.1803973509934	-28.6823841059603	87.165298013245			
69	1580	-0.280158940397351	0.178754966887417	-0.999523178807947	-35.5266225165563	18.3353642384106	4.69509933774834				0.768953642384106	0.0317880794701987	0.301139072847682	-22.5260927152318	111.467814569536	42.5340397350993				-0.362172185430464	-0.193271523178808	-1.03194701986755	36.1274172185431	14.7064900662252	-2.72026490066225				-0.271470198675497	-0.000529801324503289	-0.789721854304636	-42.8770860927152	-58.3364238410596	-60.5356291390729				0.884026490066225	-0.0445033112582781	0.0699337748344371	38.0317880794702	29.7319205298013	-13.2174834437086				-0.128211920529801	-0.142834437086093	-0.932238410596026	37.8203973509934	-20.8423841059603	74.845298013245			
70	1600	-0.296158940397351	0.162754966887417	-1.03152317880795	-25.7266225165563	23.9353642384106	7.77509933774834				0.992953642384106	0.0957880794701987	0.525139072847682	-5.72609271523179	119.867814569536	41.4140397350993				-0.250172185430464	-0.193271523178808	-0.91994701986755	36.967417218543	26.4664900662252	-1.88026490066225				-0.303470198675497	0.0474701986754967	-0.773721854304636	-36.4370860927152	-42.0964238410596	-60.5356291390729				0.836026490066225	0.115496688741722	0.245933774834437	35.7917880794702	22.4519205298013	-11.2574834437086				-0.0962119205298013	-0.174834437086093	-0.852238410596026	40.9003973509934	-13.2823841059603	66.165298013245			
71	1620	-0.296158940397351	0.226754966887417	-1.12752317880795	-29.0866225165563	34.0153642384106	11.6950993377483				1.00895364238411	-0.0482119205298013	0.541139072847682	25.9139072847682	116.227814569536	45.0540397350993				-0.314172185430464	-0.177271523178808	-0.96794701986755	6.72741721854305	22.8264900662252	-0.20026490066225				-0.175470198675497	0.207470198675497	-0.741721854304636	-24.3970860927152	-27.5364238410596	-60.5356291390729				0.868026490066225	0.323496688741722	0.197933774834437	28.5117880794702	33.0919205298013	-12.0974834437086				-0.0322119205298013	-0.270834437086093	-0.836238410596026	29.7003973509934	-8.80238410596027	61.405298013245			
72	1640	-0.280158940397351	0.114754966887417	-1.04752317880795	-27.6866225165563	47.7353642384106	14.2150993377483				1.00895364238411	-0.208211920529801	0.541139072847682	19.1939072847682	123.787814569536	54.5740397350993				-0.378172185430464	-0.129271523178808	-0.93594701986755	32.2074172185431	34.5864900662252	0.91973509933775				0.176529801324503	0.351470198675497	-0.997721854304636	26.8429139072848	-6.2564238410596	-40.9356291390729				1.01202649006623	0.387496688741722	0.293933774834437	53.9917880794702	53.2519205298013	-9.85748344370861				0.0637880794701987	-0.414834437086093	-0.836238410596026	11.7803973509934	-0.402384105960265	46.845298013245			
73	1660	-0.408158940397351	-0.0132450331125828	-1.12752317880795	-48.6866225165563	56.6953642384106	22.6150993377483				1.20095364238411	0.0637880794701987	0.893139072847682	-25.3260927152318	101.107814569536	38.6140397350993				-0.410172185430464	-0.177271523178808	-1.04794701986755	27.1674172185431	38.5064900662252	-3.28026490066225				0.000529801324503301	0.0954701986754967	-1.44572185430464	44.4829139072848	30.9835761589404	-24.4156291390728				1.14002649006623	0.275496688741722	0.709933774834437	79.7517880794702	57.1719205298013	-4.81748344370861				0.239788079470199	-0.558834437086093	-0.900238410596026	18.7803973509934	7.99761589403974	11.845298013245			
74	1680	-0.408158940397351	0.226754966887417	-1.03152317880795	-55.6866225165563	71.5353642384106	28.7750993377483				1.12095364238411	-0.144211920529801	0.973139072847682	-37.6460927152318	68.9078145695364	33.2940397350993				-0.410172185430464	-0.161271523178808	-1.04794701986755	33.327417218543	55.5864900662252	-8.32026490066225				-0.223470198675497	0.0154701986754967	-1.39772185430464	-4.23708609271523	49.4635761589404	-32.5356291390729				1.06002649006623	0.131496688741722	0.869933774834437	71.0717880794702	54.6519205298013	-8.45748344370861				0.335788079470199	-0.782834437086093	-0.948238410596026	23.8203973509934	13.8776158940397	-6.91470198675497			
75	1700	-0.200158940397351	0.354754966887417	-1.11152317880795	-39.4466225165563	71.2553642384106	37.1750993377484				1.07295364238411	-0.384211920529801	1.11713907284768	-5.16609271523179	67.5078145695364	32.7340397350993				-0.362172185430464	-0.193271523178808	-1.03194701986755	27.447417218543	65.1064900662252	-10.2802649006622				0.0965298013245033	0.303470198675497	-1.28572185430464	-7.87708609271523	38.2635761589404	-36.7356291390728				1.25202649006623	0.179496688741722	0.805933774834437	50.0717880794702	78.7319205298013	-21.3374834437086				0.463788079470199	-1.10283443708609	-0.900238410596026	35.3003973509934	13.3176158940397	-13.914701986755			
76	1720	-0.120158940397351	0.434754966887417	-1.07952317880795	-34.1266225165563	77.6953642384106	41.3750993377484				1.32895364238411	-0.432211920529801	1.22913907284768	0.433907284768212	65.2678145695364	14.8140397350993				-0.218172185430464	-0.273271523178808	-1.03194701986755	25.2074172185431	74.9064900662252	-13.6402649006623				0.272529801324503	0.383470198675497	-1.39772185430464	-15.7170860927152	39.1035761589404	-18.2556291390728				1.41202649006623	0.243496688741722	0.901933774834437	34.9517880794702	65.2919205298013	-21.8974834437086				0.607788079470199	-1.19883443708609	-0.804238410596027	-9.77960264900662	30.9576158940397	-5.79470198675497			
77	1740	-0.072158940397351	0.306754966887417	-1.11152317880795	-27.4066225165563	88.0553642384106	43.8950993377483				1.32895364238411	-0.288211920529801	1.00513907284768	17.7939072847682	47.0678145695364	-6.46596026490066				-0.154172185430464	-0.449271523178808	-1.09594701986755	1.68741721854305	82.4664900662252	-18.6802649006623				0.000529801324503301	0.399470198675497	-1.33372185430464	-38.3970860927152	47.5035761589404	-1.73562913907285				1.38002649006623	0.211496688741722	1.01393377483444	12.8317880794702	47.3719205298013	-14.8974834437086				0.639788079470199	-1.03883443708609	-0.948238410596026	-27.9796026490066	57.5576158940397	-12.234701986755			
78	1760	-0.008158940397351	0.450754966887417	-1.11152317880795	-21.2466225165563	98.4153642384106	43.6150993377484				1.10495364238411	-0.0962119205298013	0.797139072847682	47.1939072847682	37.8278145695364	-9.82596026490066				-0.138172185430464	-0.225271523178808	-1.12794701986755	-13.712582781457	91.4264900662252	-20.3602649006623				-0.159470198675497	0.303470198675497	-1.30172185430464	-18.5170860927152	62.9035761589404	8.06437086092715				1.25202649006623	0.339496688741722	0.773933774834437	-40.0882119205298	27.2119205298013	-14.8974834437086				0.623788079470199	-0.862834437086093	-1.09223841059603	40.0603973509934	72.3976158940397	-40.514701986755			
79	1780	0.119841059602649	0.418754966887417	-1.06352317880795	7.59337748344371	105.695364238411	38.5750993377483				1.04095364238411	-0.112211920529801	0.733139072847682	36.8339072847682	15.7078145695364	-7.02596026490066				0.00582781456953642	-0.241271523178808	-1.11194701986755	-3.91258278145695	103.466490066225	-24.0002649006623				0.0805298013245033	0.287470198675497	-1.25372185430464	-0.317086092715232	75.7835761589404	21.7843708609272				1.25202649006623	0.291496688741722	0.469933774834437	-23.0082119205298	39.2519205298013	-13.2174834437086				0.559788079470199	-0.878834437086093	-1.15623841059603	103.340397350993	61.7576158940397	-54.234701986755			
80	1800	0.215841059602649	0.338754966887417	-1.04752317880795	23.2733774834437	115.215364238411	35.2150993377483				1.18495364238411	-0.240211920529801	1.06913907284768	32.0739072847682	5.62781456953642	1.93403973509934				0.101827814569536	-0.273271523178808	-1.04794701986755	4.20741721854305	117.186490066225	-28.7602649006623				0.208529801324503	0.319470198675497	-1.28572185430464	1.92291390728477	75.7835761589404	34.6643708609272				1.22002649006623	0.387496688741722	0.677933774834437	-18.8082119205298	47.9319205298013	-12.0974834437086				0.271788079470199	-1.00683443708609	-1.06023841059603	112.300397350993	61.4776158940397	-38.834701986755			
81	1820	0.231841059602649	0.354754966887417	-0.951523178807947	23.2733774834437	127.535364238411	32.9750993377484				1.23295364238411	-0.0802119205298013	1.14913907284768	37.1139072847682	10.3878145695364	2.49403973509934				0.0858278145695364	-0.353271523178808	-1.03194701986755	11.207417218543	126.986490066225	-29.6002649006623				0.224529801324503	0.415470198675497	-1.31772185430464	-3.39708609271523	81.6635761589404	43.9043708609272				1.25202649006623	0.467496688741722	0.709933774834437	-27.7682119205298	44.0119205298013	-12.3774834437086				0.319788079470199	-0.878834437086093	-1.04423841059603	41.7403973509934	77.9976158940397	-16.994701986755			
82	1840	0.215841059602649	0.290754966887417	-1.03152317880795	26.3533774834437	134.535364238411	29.0550993377483				1.05695364238411	0.0797880794701987	0.941139072847682	28.9939072847682	0.867814569536424	-1.98596026490066				0.0858278145695364	-0.385271523178808	-0.98394701986755	6.16741721854305	140.146490066225	-27.9202649006623				0.304529801324503	0.431470198675497	-1.26972185430464	4.44291390728477	88.6635761589404	38.0243708609272				1.22002649006623	0.499496688741722	0.661933774834437	-10.1282119205298	25.5319205298013	-6.21748344370861				0.495788079470199	-0.766834437086093	-1.02823841059603	43.4203973509934	76.3176158940397	-11.114701986755			
83	1860	0.263841059602649	0.290754966887417	-0.999523178807947	24.6733774834437	147.135364238411	27.3750993377483				1.07295364238411	0.0157880794701987	0.765139072847682	41.8739072847682	-12.2921854304636	9.21403973509934				0.117827814569536	-0.321271523178808	-0.95194701986755	-5.87258278145695	149.106490066225	-24.5602649006623				0.416529801324503	0.351470198675497	-1.25372185430464	11.7229139072848	92.3035761589404	36.0643708609272				1.17202649006623	0.483496688741722	0.581933774834437	-4.5282119205298	36.7319205298013	-5.65748344370861				0.607788079470199	-0.766834437086093	-0.932238410596026	24.6603973509934	80.5176158940398	-26.514701986755			
84	1880	0.343841059602649	0.274754966887417	-1.01552317880795	33.0733774834437	159.455364238411	25.4150993377483				1.28095364238411	-0.160211920529801	0.893139072847682	28.4339072847682	-19.2921854304636	10.8940397350993				0.213827814569536	-0.193271523178808	-0.93594701986755	-6.43258278145695	156.946490066225	-26.2402649006623				0.528529801324503	0.287470198675497	-1.20572185430464	8.64291390728477	105.74357615894	42.5043708609272				1.18802649006623	0.403496688741722	0.693933774834437	22.6317880794702	49.6119205298013	0.502516556291392				0.607788079470199	-0.830834437086093	-0.852238410596026	17.3803973509934	86.9576158940397	-41.914701986755			
85	1900	0.311841059602649	0.242754966887417	-0.903523178807947	43.7133774834437	160.295364238411	22.8950993377483				1.34495364238411	-0.128211920529801	0.941139072847682	35.9939072847682	-41.4121854304636	7.25403973509934				0.261827814569536	-0.145271523178808	-0.95194701986755	2.80741721854305	158.626490066225	-29.6002649006623				0.528529801324503	0.335470198675497	-1.10972185430464	16.7629139072848	123.66357615894	45.8643708609272				1.20402649006623	0.307496688741722	0.933933774834437	18.7117880794702	46.2519205298013	2.46251655629139				0.559788079470199	-0.830834437086093	-0.804238410596027	-7.81960264900662	98.1576158940398	-54.234701986755			
86	1920	0.375841059602649	0.146754966887417	-0.887523178807947	41.7533774834437	166.455364238411	21.4950993377483				1.18495364238411	-0.160211920529801	0.717139072847682	23.1139072847682	-53.4521854304636	3.89403973509934				0.277827814569536	-0.129271523178808	-0.91994701986755	1.12741721854305	162.826490066225	-34.3602649006623				0.544529801324503	0.447470198675497	-0.997721854304636	42.5229139072848	139.06357615894	51.1843708609272				1.15602649006623	0.339496688741722	0.853933774834437	-8.4482119205298	6.49192052980132	6.10251655629139				0.575788079470199	-0.750834437086093	-0.724238410596026	-28.2596026490066	113.83761589404	-65.994701986755			
87	1940	0.471841059602649	0.130754966887417	-0.743523178807947	43.9933774834437	172.055364238411	20.3750993377483				1.13695364238411	0.0157880794701987	0.621139072847682	12.1939072847682	-38.8921854304636	12.2940397350993				0.325827814569536	-0.129271523178808	-0.80794701986755	-8.11258278145695	166.466490066225	-38.5602649006623				0.640529801324503	0.367470198675497	-1.06172185430464	87.3229139072848	138.50357615894	55.9443708609272				1.10802649006623	0.339496688741722	0.677933774834437	-1.1682119205298	-15.0680794701987	14.5025165562914				0.655788079470199	-0.702834437086093	-0.692238410596026	-33.2996026490066	115.51761589404	-79.434701986755			
88	2060	0	0	0	0	0	0				0	0	0	0	0	0				0.629827814569536	0.0147284768211921	-0.45594701986755	1.96741721854305	185.226490066225	-35.2002649006623				0	0	0	0	0	0				0	0	0	0	0	0				0	0	0	0	0	0			
89	2080	0.647841059602649	0.0347549668874172	-0.391523178807947	13.7533774834437	199.215364238411	7.77509933774834				0.464953642384106	-0.000211920529801304	0.157139072847682	35.9939072847682	-130.452185430464	-3.66596026490066				0.453827814569536	0.0147284768211921	-0.34394701986755	3.92741721854305	182.706490066225	-38.0002649006623				0.448529801324503	-0.0485298013245033	-0.373721854304636	73.0429139072848	3.5435761589404	30.4643708609272				0.388026490066225	0.0194966887417219	0.277933774834437	-12.0882119205298	-75.8280794701987	32.1425165562914				0.223788079470199	-0.174834437086093	-0.404238410596026	-70.8196026490066	20.5976158940397	-1.03470198675497			
90	2100	0.487841059602649	0.0987549668874172	-0.375523178807947	19.9133774834437	199.775364238411	9.17509933774834				0.0489536423841059	0.0797880794701987	0.0931390728476822	9.11390728476821	-126.532185430464	-10.1059602649007				0.341827814569536	0.0467284768211921	-0.34394701986755	26.0474172185431	189.706490066225	-35.4802649006623				0.448529801324503	-0.128529801324503	-0.325721854304636	53.4429139072848	-25.5764238410596	28.2243708609272				0.308026490066225	0.115496688741722	0.197933774834437	-33.3682119205298	-94.0280794701987	31.8625165562914				0.127788079470199	-0.0788344370860927	-0.340238410596026	-65.4996026490066	1.83761589403974	7.08529801324503			
91	2120	0.535841059602649	0.146754966887417	-0.407523178807947	25.7933774834437	195.575364238411	9.17509933774834				0.272953642384106	0.191788079470199	0.0771390728476822	-4.32609271523179	-70.5321854304636	-14.8659602649007				0.453827814569536	0.0147284768211921	-0.31194701986755	16.247417218543	189.706490066225	-33.2402649006623				0.352529801324503	-0.144529801324503	-0.277721854304636	34.6829139072848	-55.5364238410596	31.5843708609272				0.244026490066225	0.115496688741722	0.0699337748344371	-26.6482119205298	-103.828079470199	30.1825165562914				0.0797880794701987	-0.0628344370860927	-0.356238410596026	-61.2996026490066	-9.08238410596027	11.285298013245			
92	2140	0.695841059602649	0.146754966887417	-0.503523178807947	8.15337748344371	183.255364238411	12.8150993377483				0.480953642384106	-0.0642119205298013	0.237139072847682	-4.04609271523179	-92.9321854304636	-12.3459602649007				0.693827814569536	-0.0172715231788079	-0.37594701986755	13.447417218543	175.706490066225	-27.0802649006623				0.208529801324503	-0.112529801324503	-0.293721854304636	24.8829139072848	-70.9364238410596	27.3843708609272				0.244026490066225	0.0194966887417219	0.0219337748344371	-0.328211920529802	-93.4680794701987	27.3825165562914				0.0477880794701987	-0.126834437086093	-0.308238410596026	-48.4196026490066	-30.9223841059603	18.845298013245			
93	2160	0.679841059602649	0.146754966887417	-0.407523178807947	43.4333774834437	167.015364238411	15.8950993377483				0.432953642384106	-0.0482119205298013	0.221139072847682	11.6339072847682	-89.2921854304636	-11.5059602649007				0.741827814569536	-0.113271523178808	-0.35994701986755	12.607417218543	160.026490066225	-29.6002649006623				0.144529801324503	-0.112529801324503	-0.229721854304636	11.4429139072848	-71.4964238410596	17.5843708609272				0.308026490066225	-0.0125033112582781	0.149933774834437	18.4317880794702	-75.8280794701987	20.1025165562914				0.0477880794701987	-0.110834437086093	-0.276238410596026	-60.1796026490066	-47.4423841059603	23.605298013245			
94	2180	0.711841059602649	0.0507549668874172	-0.263523178807947	44.5533774834437	167.575364238411	27.0950993377483				0.208953642384106	0.0477880794701987	0.237139072847682	5.75390728476821	-82.0121854304636	-8.70596026490066				0.645827814569536	-0.161271523178808	-0.23194701986755	2.80741721854305	149.386490066225	-34.6402649006623				0.144529801324503	-0.000529801324503289	-0.245721854304636	22.0829139072848	-66.4564238410596	14.2243708609272				0.372026490066225	0.0674966887417219	0.165933774834437	9.7517880794702	-84.2280794701987	14.7825165562914				0.0957880794701987	-0.0788344370860927	-0.324238410596026	-73.6196026490066	-50.2423841059603	21.925298013245			
95	2200	0.727841059602649	-0.0292450331125828	-0.247523178807947	26.3533774834437	151.895364238411	40.5350993377483				0.320953642384106	0.127788079470199	0.157139072847682	-1.80609271523179	-51.4921854304636	-13.1859602649007				0.693827814569536	-0.161271523178808	-0.21594701986755	-17.912582781457	140.706490066225	-30.4402649006623				0.0965298013245033	-0.0165298013245033	-0.421721854304636	42.2429139072848	-53.5764238410596	15.9043708609272				0.420026490066225	0.0834966887417219	0.0539337748344371	3.0317880794702	-87.3080794701987	13.9425165562914				0.191788079470199	-0.0948344370860927	-0.388238410596026	-71.3796026490066	-44.9223841059603	7.92529801324503			
96	2220	0.807841059602649	-0.0292450331125828	-0.199523178807947	25.7933774834437	126.135364238411	39.1350993377484				0.560953642384106	0.111788079470199	0.205139072847682	0.153907284768212	-54.2921854304636	-18.5059602649007				0.805827814569536	-0.161271523178808	-0.15194701986755	-39.752582781457	122.226490066225	-16.1602649006623				0.112529801324503	-0.160529801324503	-0.517721854304636	53.7229139072848	-40.9764238410596	10.3043708609272				0.500026490066225	0.0674966887417219	0.0379337748344371	17.5917880794702	-70.2280794701987	11.1425165562914				0.287788079470199	-0.0948344370860927	-0.404238410596026	-65.4996026490066	-44.9223841059603	-6.91470198675497			
97	2240	1.06384105960265	0.0187549668874172	-0.071523178807947	33.3533774834437	109.895364238411	30.4550993377483				0.592953642384106	-0.0162119205298013	0.429139072847682	6.31390728476821	-43.9321854304636	-17.6659602649007				0.917827814569536	-0.161271523178808	-0.0719470198675496	-31.912582781457	100.386490066225	-5.24026490066225				0.128529801324503	-0.256529801324503	-0.613721854304636	55.1229139072848	-33.4164238410596	6.66437086092715				0.548026490066225	0.0354966887417219	0.101933774834437	24.0317880794702	-58.7480794701987	8.90251655629139				0.287788079470199	-0.0628344370860927	-0.468238410596026	-63.2596026490066	-45.7623841059603	-15.594701986755			
98	2260	1.14384105960265	0.210754966887417	0.024476821192053	33.3533774834437	80.2153642384106	8.61509933774835				0.320953642384106	0.0157880794701987	0.301139072847682	0.433907284768212	19.9078145695364	-6.46596026490066				0.933827814569536	-0.145271523178808	-0.0399470198675496	-14.552582781457	77.1464900662252	1.47973509933775				0.112529801324503	-0.208529801324503	-0.693721854304636	33.0029139072848	-25.8564238410596	-0.615629139072848				0.628026490066225	0.0834966887417219	0.133933774834437	17.0317880794702	-42.2280794701987	4.70251655629139				0.239788079470199	-0.0308344370860927	-0.564238410596026	-56.2596026490066	-34.8423841059603	-22.874701986755			
99	2280	1.07984105960265	0.194754966887417	-0.00752317880794696	31.6733774834437	55.5753642384106	-0.904900662251656				0.784953642384106	-0.000211920529801304	0.557139072847682	4.07390728476821	43.9878145695364	-3.66596026490066				1.10982781456954	-0.145271523178808	-0.0239470198675496	-18.752582781457	74.0664900662252	4.83973509933775				0.128529801324503	-0.176529801324503	-0.725721854304636	8.36291390728477	-7.3764238410596	-7.05562913907285				0.788026490066225	0.0994966887417219	0.117933774834437	11.7117880794702	-29.3480794701987	1.62251655629139				0.319788079470199	-0.0788344370860927	-0.644238410596026	-46.1796026490066	-6.84238410596027	-29.034701986755			
100	2300	1.04784105960265	0.0507549668874172	-0.055523178807947	43.1533774834437	37.6553642384106	-5.94490066225166				1.04095364238411	-0.0162119205298013	0.445139072847682	-12.7260927152318	12.6278145695364	9.77403973509934				1.20582781456954	-0.0332715231788079	0.0720529801324504	-30.792582781457	68.4664900662252	2.03973509933775				0.176529801324503	-0.176529801324503	-0.789721854304636	10.8829139072848	13.0635761589404	-7.61562913907285				0.852026490066225	0.115496688741722	0.00593377483443711	5.5517880794702	-23.7480794701987	0.502516556291392				0.447788079470199	-0.158834437086093	-0.644238410596026	-19.8596026490066	15.5576158940397	-30.434701986755			
101	2320	1.11184105960265	-0.0932450331125828	0.200476821192053	30.2733774834437	40.4553642384106	2.73509933774834				1.00895364238411	-0.0162119205298013	0.397139072847682	-9.92609271523179	-1.09218543046358	2.21403973509934				1.12582781456954	0.0307284768211921	0.18405298013245	-23.792582781457	42.4264900662252	-2.16026490066225				0.288529801324503	-0.224529801324503	-0.901721854304636	23.2029139072848	24.5435761589404	-9.29562913907285				0.900026490066225	0.0834966887417219	0.0539337748344371	9.4717880794702	-11.4280794701987	0.222516556291392				0.495788079470199	-0.238834437086093	-0.628238410596026	9.54039735099338	18.9176158940397	-34.914701986755			
102	2340	1.03184105960265	-0.157245033112583	0.408476821192053	-2.20662251655629	30.0953642384106	9.17509933774834				0.944953642384106	-0.0162119205298013	0.461139072847682	-5.72609271523179	-15.9321854304636	-2.54596026490066				1.07782781456954	-0.0652715231788079	0.21605298013245	-6.99258278145695	31.2264900662252	0.91973509933775				0.416529801324503	-0.240529801324503	-0.981721854304636	24.3229139072848	20.9035761589404	-11.8156291390728				0.964026490066225	0.0514966887417219	0.165933774834437	11.4317880794702	-4.98807947019868	-3.13748344370861				0.591788079470199	-0.302834437086093	-0.708238410596026	16.8203973509934	24.7976158940397	-34.914701986755			
103	2360	0.887841059602649	-0.173245033112583	0.376476821192053	-9.76662251655629	27.8553642384106	12.8150993377483				0.864953642384106	-0.0322119205298013	0.365139072847682	-5.72609271523179	-11.4521854304636	-5.90596026490066				1.02982781456954	-0.145271523178808	0.20005298013245	-0.552582781456954	13.0264900662252	3.99973509933775				0.464529801324503	-0.304529801324503	-0.997721854304636	19.0029139072848	-0.0964238410596001	-10.1356291390728				0.948026490066225	0.0834966887417219	0.165933774834437	-3.1282119205298	-17.3080794701987	-3.41748344370861				0.687788079470199	-0.382834437086093	-0.740238410596026	21.5803973509934	24.5176158940397	-31.834701986755			
104	2380	0.823841059602649	-0.205245033112583	0.232476821192053	-1.92662251655629	22.8153642384106	8.05509933774835				0.896953642384106	0.0157880794701987	0.285139072847682	-11.3260927152318	-9.49218543046358	-5.90596026490066				0.933827814569536	-0.145271523178808	0.10405298013245	-2.23258278145695	-0.133509933774833	4.83973509933775				0.416529801324503	-0.368529801324503	-0.949721854304636	-3.95708609271523	-21.6564238410596	-7.05562913907285				0.884026490066225	0.0834966887417219	0.101933774834437	-7.3282119205298	-19.2680794701987	-2.85748344370861				0.703788079470199	-0.446834437086093	-0.692238410596026	24.1003973509934	5.19761589403974	-29.874701986755			
105	2400	0.951841059602649	-0.125245033112583	0.248476821192053	1.71337748344371	16.6553642384106	-4.82490066225166				0.912953642384106	-0.0162119205298013	0.253139072847682	-13.0060927152318	-0.252185430463576	-0.86596026490066				0.917827814569536	-0.145271523178808	0.0720529801324504	-7.27258278145696	-3.49350993377483	3.15973509933775				0.288529801324503	-0.304529801324503	-0.853721854304636	-27.7570860927152	-28.6564238410596	0.784370860927152				0.868026490066225	0.0994966887417219	0.133933774834437	-13.2082119205298	-6.10807947019868	-4.25748344370861				0.671788079470199	-0.478834437086093	-0.724238410596026	7.02039735099338	-9.64238410596027	-22.034701986755			
106	2420	0.967841059602649	-0.0292450331125828	0.280476821192053	-15.0866225165563	9.6553642384106	-9.86490066225166				0.880953642384106	-0.0162119205298013	0.317139072847682	-11.3260927152318	0.587814569536424	-1.70596026490066				0.933827814569536	-0.0972715231788079	0.0880529801324504	-10.912582781457	-7.13350993377484	2.31973509933775				0.224529801324503	-0.176529801324503	-0.757721854304636	-30.5570860927152	-21.9364238410596	11.4243708609272				0.868026490066225	0.115496688741722	0.133933774834437	-19.6482119205298	-3.02807947019868	-3.97748344370861				0.623788079470199	-0.414834437086093	-0.756238410596026	-18.7396026490066	-20.2823841059603	-0.754701986754968			
107	2440	0.967841059602649	0.0347549668874172	0.280476821192053	-17.6066225165563	19.4553642384106	-2.58490066225166				0.944953642384106	-0.000211920529801304	0.317139072847682	-10.7660927152318	-3.05218543046358	-2.82596026490066				1.01382781456954	-0.0812715231788079	0.12005298013245	-9.79258278145695	-3.77350993377483	4.27973509933775				0.240529801324503	-0.0645298013245033	-0.757721854304636	-25.7970860927152	-14.3764238410596	18.7043708609272				0.948026490066225	0.131496688741722	0.117933774834437	-26.0882119205298	3.69192052980133	-2.01748344370861				0.527788079470199	-0.366834437086093	-0.740238410596026	-25.4596026490066	-23.6423841059603	16.325298013245			
108	2460	1.01584105960265	0.0667549668874172	0.216476821192053	-8.08662251655629	25.8953642384106	5.25509933774834				0.992953642384106	-0.0482119205298013	0.365139072847682	-13.0060927152318	-1.93218543046358	-3.38596026490066				1.04582781456954	-0.0812715231788079	0.10405298013245	-12.032582781457	0.706490066225167	5.39973509933775				0.336529801324503	-0.144529801324503	-0.837721854304636	-12.0770860927152	8.5835761589404	23.7443708609272				0.996026490066225	0.115496688741722	0.117933774834437	-30.5682119205298	7.05192052980133	-0.337483443708608				0.511788079470199	-0.254834437086093	-0.756238410596026	-26.5796026490066	-9.36238410596027	22.485298013245			
109	2480	1.04784105960265	0.0187549668874172	0.120476821192053	-10.6066225165563	23.9353642384106	1.61509933774834				1.02495364238411	-0.0162119205298013	0.317139072847682	-12.1660927152318	-10.3321854304636	-4.50596026490066				1.01382781456954	-0.0652715231788079	0.13605298013245	-12.872582781457	2.66649006622517	6.23973509933775				0.400529801324503	-0.224529801324503	-0.917721854304636	-8.71708609271523	26.2235761589404	18.1443708609272				0.996026490066225	0.115496688741722	0.0539337748344371	-27.4882119205298	7.61192052980133	1.34251655629139				0.511788079470199	-0.158834437086093	-0.756238410596026	-12.8596026490066	5.47761589403974	19.685298013245			
110	2500	1.01584105960265	-0.0292450331125828	0.152476821192053	-8.08662251655629	15.5353642384106	-2.58490066225166				0.960953642384106	-0.0162119205298013	0.269139072847682	-14.6860927152318	-6.97218543046358	-3.38596026490066				0.997827814569536	-0.0652715231788079	0.15205298013245	-4.47258278145695	2.66649006622517	5.67973509933775				0.400529801324503	-0.176529801324503	-0.869721854304636	-12.6370860927152	18.3835761589404	8.06437086092715				0.932026490066225	0.0994966887417219	0.0859337748344371	-18.2482119205298	12.6519205298013	2.74251655629139				0.479788079470199	-0.158834437086093	-0.724238410596026	9.82039735099338	9.95761589403974	16.045298013245			
111	2520	0.951841059602649	-0.0612450331125828	0.136476821192053	-8.92662251655629	7.1353642384106	-3.14490066225166				0.896953642384106	-0.000211920529801304	0.333139072847682	-18.3260927152318	3.10781456953642	-1.70596026490066				0.965827814569536	-0.0972715231788079	0.13605298013245	-0.832582781456954	-0.973509933774833	3.99973509933775				0.368529801324503	-0.144529801324503	-0.869721854304636	-13.7570860927152	7.4635761589404	1.34437086092715				0.900026490066225	0.0834966887417219	0.117933774834437	-15.7282119205298	13.7719205298013	1.06251655629139				0.463788079470199	-0.222834437086093	-0.724238410596026	18.5003973509934	9.39761589403974	12.405298013245			
112	2540	0.951841059602649	-0.0932450331125828	0.136476821192053	-17.0466225165563	2.0953642384106	-1.74490066225166				0.864953642384106	0.0157880794701987	0.253139072847682	-14.6860927152318	3.10781456953642	-0.86596026490066				0.917827814569536	-0.113271523178808	0.0880529801324504	-0.272582781456954	-2.93350993377483	3.43973509933775				0.416529801324503	-0.240529801324503	-0.837721854304636	-14.3170860927152	8.0235761589404	0.504370860927152				0.884026490066225	0.0994966887417219	0.133933774834437	-15.7282119205298	11.8119205298013	-0.617483443708608				0.495788079470199	-0.270834437086093	-0.708238410596026	19.9003973509934	4.63761589403974	10.445298013245			
113	2560	0.935841059602649	-0.109245033112583	0.152476821192053	-21.2466225165563	-2.1046357615894	-0.344900662251656				0.912953642384106	-0.000211920529801304	0.237139072847682	-13.2860927152318	10.3878145695364	0.25403973509934				0.917827814569536	-0.0812715231788079	0.0720529801324504	3.08741721854305	-4.33350993377483	4.27973509933775				0.448529801324503	-0.240529801324503	-0.821721854304636	-23.5570860927152	7.1835761589404	2.74437086092715				0.916026490066225	0.0834966887417219	0.133933774834437	-16.0082119205298	13.2119205298013	-1.73748344370861				0.511788079470199	-0.302834437086093	-0.708238410596026	12.3403973509934	6.87761589403974	8.20529801324503			
114	2580	0.967841059602649	-0.0932450331125828	0.152476821192053	-21.8066225165563	-0.984635761589404	-0.904900662251656				0.960953642384106	0.0157880794701987	0.269139072847682	-16.3660927152318	8.98781456953643	0.25403973509934				0.981827814569536	-0.0492715231788079	0.0560529801324504	-2.79258278145695	-3.21350993377483	4.55973509933775				0.448529801324503	-0.112529801324503	-0.805721854304636	-14.0370860927152	7.4635761589404	5.82437086092715				0.980026490066225	0.0994966887417219	0.165933774834437	-14.8882119205298	14.8919205298013	-2.01748344370861				0.543788079470199	-0.302834437086093	-0.772238410596026	2.82039735099338	6.31761589403974	8.76529801324503			
115	2600	0.983841059602649	-0.0452450331125828	0.216476821192053	-13.4066225165563	0.975364238410596	-0.0649006622516557				0.992953642384106	0.0317880794701987	0.237139072847682	-17.2060927152318	3.66781456953642	0.53403973509934				1.01382781456954	-0.0492715231788079	0.0400529801324504	-10.632582781457	-2.09350993377483	3.43973509933775				0.480529801324503	-0.0805298013245033	-0.821721854304636	-5.07708609271523	6.0635761589404	6.94437086092715				0.996026490066225	0.131496688741722	0.181933774834437	-11.8082119205298	10.4119205298013	-1.17748344370861				0.559788079470199	-0.318834437086093	-0.804238410596027	7.02039735099338	4.91761589403974	9.60529801324503			
116	2620	1.01584105960265	0.0187549668874172	0.184476821192053	-12.2866225165563	-0.424635761589404	-0.904900662251656				1.00895364238411	0.0317880794701987	0.221139072847682	-15.8060927152318	10.1078145695364	1.37403973509934				0.997827814569536	-0.0332715231788079	0.0240529801324504	-6.99258278145695	1.54649006622517	3.15973509933775				0.576529801324503	-0.144529801324503	-0.917721854304636	1.64291390728477	-0.9364238410596	7.22437086092715				0.996026490066225	0.147496688741722	0.165933774834437	-12.0882119205298	7.61192052980133	-0.0574834437086077				0.559788079470199	-0.302834437086093	-0.788238410596027	3.10039735099338	2.11761589403974	9.32529801324503			
117	2640	1.01584105960265	0.0347549668874172	0.136476821192053	-21.8066225165563	-2.3846357615894	-2.30490066225166				0.960953642384106	0.0477880794701987	0.253139072847682	-11.0460927152318	13.1878145695364	2.49403973509934				0.981827814569536	-0.0332715231788079	-0.0239470198675496	-5.03258278145695	1.82649006622517	4.27973509933775				0.576529801324503	-0.240529801324503	-0.917721854304636	-10.6770860927152	-8.4964238410596	7.78437086092715				1.01202649006623	0.147496688741722	0.165933774834437	-3.6882119205298	7.05192052980133	0.782516556291392				0.543788079470199	-0.286834437086093	-0.772238410596026	8.42039735099338	0.157615894039735	7.64529801324503			
118	2660	0.999841059602649	0.0187549668874172	0.104476821192053	-21.5266225165563	-0.144635761589404	-1.74490066225166				0.960953642384106	0.0317880794701987	0.221139072847682	-5.16609271523179	14.0278145695364	3.89403973509934				0.965827814569536	-0.0492715231788079	-0.00794701986754963	-5.59258278145695	2.10649006622517	4.83973509933775				0.432529801324503	-0.272529801324503	-0.853721854304636	-18.5170860927152	-7.9364238410596	10.8643708609272				0.980026490066225	0.0834966887417219	0.149933774834437	5.2717880794702	7.05192052980133	0.502516556291392				0.511788079470199	-0.318834437086093	-0.740238410596026	9.82039735099338	-4.60238410596027	7.36529801324503			
119	2680	0.983841059602649	0.0187549668874172	0.104476821192053	-13.1266225165563	0.415364238410596	-0.0649006622516557				1.02495364238411	-0.000211920529801304	0.269139072847682	-4.32609271523179	12.3478145695364	7.25403973509934				0.981827814569536	-0.0492715231788079	-0.0399470198675496	-1.95258278145695	4.62649006622517	4.27973509933775				0.288529801324503	-0.192529801324503	-0.789721854304636	-14.3170860927152	3.8235761589404	13.3843708609272				0.948026490066225	0.0354966887417219	0.165933774834437	1.6317880794702	9.29192052980133	0.502516556291392				0.527788079470199	-0.382834437086093	-0.772238410596026	1.14039735099338	-6.28238410596027	9.32529801324503			
120	2700	0.967841059602649	-0.0132450331125828	0.136476821192053	-5.28662251655629	0.975364238410596	0.775099337748344				0.976953642384106	-0.0322119205298013	0.221139072847682	0.153907284768212	13.1878145695364	5.01403973509934				0.949827814569536	-0.0652715231788079	-0.0559470198675496	0.287417218543046	6.30649006622517	4.27973509933775				0.304529801324503	-0.128529801324503	-0.805721854304636	-5.63708609271523	13.3435761589404	15.9043708609272				0.932026490066225	0.0354966887417219	0.149933774834437	-2.5682119205298	11.8119205298013	-0.337483443708608				0.511788079470199	-0.382834437086093	-0.740238410596026	-1.09960264900662	-10.7623841059603	9.32529801324503			
121	2720	0.935841059602649	-0.0132450331125828	0.136476821192053	-1.64662251655629	-0.704635761589404	1.61509933774834				0.928953642384106	-0.0322119205298013	0.253139072847682	3.51390728476821	5.34781456953642	1.65403973509934				0.949827814569536	-0.0652715231788079	-0.0879470198675496	-1.11258278145695	9.94649006622517	5.95973509933775				0.384529801324503	-0.144529801324503	-0.821721854304636	-1.43708609271523	8.8635761589404	17.0243708609272				0.948026490066225	0.0674966887417219	0.149933774834437	-9.5682119205298	11.2519205298013	-0.897483443708608				0.511788079470199	-0.334834437086093	-0.708238410596026	-2.77960264900662	-9.08238410596027	4.56529801324503			
122	2740	0.951841059602649	-0.0452450331125828	0.088476821192053	-0.246622516556291	-1.8246357615894	1.61509933774834				0.944953642384106	0.0157880794701987	0.173139072847682	1.55390728476821	0.867814569536424	-0.86596026490066				0.965827814569536	-0.0812715231788079	-0.0559470198675496	-3.35258278145695	8.54649006622517	5.95973509933775				0.432529801324503	-0.192529801324503	-0.885721854304636	-1.99708609271523	2.1435761589404	16.1843708609272				0.964026490066225	0.0834966887417219	0.133933774834437	-15.4482119205298	5.93192052980133	0.502516556291392				0.495788079470199	-0.318834437086093	-0.740238410596026	1.14039735099338	-6.00238410596027	4.84529801324503			
123	2760	0.999841059602649	-0.0772450331125828	0.040476821192053	-5.56662251655629	-2.1046357615894	0.495099337748344				0.992953642384106	-0.0162119205298013	0.221139072847682	-9.08609271523179	16.5478145695364	0.81403973509934				0.981827814569536	-0.0812715231788079	-0.0719470198675496	-2.51258278145695	5.46649006622517	5.67973509933775				0.400529801324503	-0.208529801324503	-0.917721854304636	-8.99708609271523	3.5435761589404	14.2243708609272				0.980026490066225	0.0834966887417219	0.133933774834437	-10.1282119205298	1.73192052980133	1.06251655629139				0.479788079470199	-0.334834437086093	-0.756238410596026	1.70039735099338	-7.68238410596027	9.88529801324503			
124	2780	0.983841059602649	-0.0932450331125828	0.00847682119205304	-9.76662251655629	-3.7846357615894	-0.344900662251656				1.00895364238411	-0.0322119205298013	0.285139072847682	-9.64609271523179	15.7078145695364	1.93403973509934				1.01382781456954	-0.113271523178808	-0.0719470198675496	0.00741721854304636	1.82649006622517	4.27973509933775				0.400529801324503	-0.208529801324503	-0.885721854304636	-14.5970860927152	3.5435761589404	12.2643708609272				0.964026490066225	0.0674966887417219	0.133933774834437	-5.6482119205298	7.61192052980133	0.782516556291392				0.479788079470199	-0.334834437086093	-0.772238410596026	-3.89960264900662	-5.72238410596027	14.365298013245			
125	2800	0.967841059602649	-0.125245033112583	0.024476821192053	-6.40662251655629	-0.984635761589404	-0.344900662251656				1.02495364238411	-0.0322119205298013	0.269139072847682	-6.28609271523179	4.50781456953642	0.81403973509934				1.02982781456954	-0.129271523178808	-0.0719470198675496	-3.35258278145695	0.146490066225167	2.03973509933775				0.384529801324503	-0.160529801324503	-0.869721854304636	-11.2370860927152	-0.6564238410596	11.4243708609272				0.996026490066225	0.0514966887417219	0.149933774834437	-6.4882119205298	8.45192052980133	0.782516556291392				0.495788079470199	-0.302834437086093	-0.724238410596026	-6.69960264900662	-3.76238410596027	14.645298013245			
126	2820	0.967841059602649	-0.109245033112583	0.072476821192053	-4.44662251655629	3.2153642384106	-0.344900662251656				1.00895364238411	-0.0482119205298013	0.221139072847682	-6.00609271523179	-8.37218543046358	0.25403973509934				1.01382781456954	-0.145271523178808	-0.0879470198675496	-12.872582781457	-1.53350993377483	2.31973509933775				0.336529801324503	-0.160529801324503	-0.869721854304636	-5.63708609271523	1.3035761589404	10.0243708609272				0.996026490066225	0.0514966887417219	0.149933774834437	-10.1282119205298	4.81192052980133	2.18251655629139				0.495788079470199	-0.302834437086093	-0.740238410596026	-8.93960264900662	0.997615894039735	11.005298013245			
127	2840	0.999841059602649	-0.0612450331125828	0.088476821192053	-10.0466225165563	3.2153642384106	-1.74490066225166				0.976953642384106	-0.0162119205298013	0.221139072847682	-6.84609271523179	-7.53218543046358	0.25403973509934				0.981827814569536	-0.113271523178808	-0.0719470198675496	-12.312582781457	-5.73350993377484	0.35973509933775				0.368529801324503	-0.192529801324503	-0.853721854304636	-1.71708609271523	3.5435761589404	8.90437086092715				0.980026490066225	0.0674966887417219	0.133933774834437	-11.5282119205298	2.85192052980133	2.46251655629139				0.495788079470199	-0.334834437086093	-0.740238410596026	-5.01960264900662	4.07761589403974	6.52529801324503			
128	2860	0.999841059602649	-0.0292450331125828	0.072476821192053	-14.2466225165563	0.415364238410596	-2.30490066225166				0.992953642384106	-0.0162119205298013	0.253139072847682	-6.84609271523179	-1.09218543046358	-0.86596026490066				0.965827814569536	-0.0652715231788079	-0.0719470198675496	-6.43258278145695	-5.45350993377483	0.0797350993377501				0.400529801324503	-0.208529801324503	-0.853721854304636	1.08291390728477	5.5035761589404	11.4243708609272				0.964026490066225	0.0674966887417219	0.149933774834437	-10.6882119205298	1.73192052980133	2.18251655629139				0.479788079470199	-0.318834437086093	-0.772238410596026	-4.73960264900662	4.35761589403974	2.88529801324503			
129	2880	0.983841059602649	-0.0452450331125828	0.072476821192053	-10.8866225165563	-1.5446357615894	-2.02490066225166				1.02495364238411	-0.0322119205298013	0.189139072847682	-8.52609271523179	-6.13218543046358	0.81403973509934				0.965827814569536	-0.0652715231788079	-0.0879470198675496	-8.95258278145695	-5.73350993377484	-0.76026490066225				0.416529801324503	-0.208529801324503	-0.885721854304636	2.76291390728477	5.5035761589404	13.9443708609272				0.964026490066225	0.0514966887417219	0.149933774834437	-10.6882119205298	-0.788079470198675	3.58251655629139				0.479788079470199	-0.286834437086093	-0.772238410596026	-5.01960264900662	5.19761589403974	1.76529801324503			
130	2900	0.951841059602649	-0.0612450331125828	0.072476821192053	-7.52662251655629	-2.6646357615894	-1.74490066225166				0.960953642384106	-0.0322119205298013	0.157139072847682	-9.36609271523179	-6.13218543046358	-0.585960264900661				0.933827814569536	-0.0812715231788079	-0.0879470198675496	-7.83258278145695	-5.45350993377483	-1.60026490066225				0.368529801324503	-0.224529801324503	-0.869721854304636	-3.67708609271523	4.6635761589404	14.2243708609272				0.948026490066225	0.0514966887417219	0.133933774834437	-10.6882119205298	-3.30807947019868	3.86251655629139				0.463788079470199	-0.302834437086093	-0.772238410596026	-0.259602649006623	0.437615894039735	2.04529801324503			
131	2920	0.967841059602649	-0.0452450331125828	0.088476821192053	-4.44662251655629	-0.424635761589404	-1.18490066225166				0.992953642384106	0.0157880794701987	0.173139072847682	-6.00609271523179	-10.0521854304636	-0.30596026490066				0.949827814569536	-0.0812715231788079	-0.0719470198675496	-3.63258278145695	-5.17350993377483	-1.32026490066225				0.368529801324503	-0.176529801324503	-0.853721854304636	-3.67708609271523	1.0235761589404	14.2243708609272				0.964026490066225	0.0514966887417219	0.101933774834437	-10.6882119205298	-2.74807947019868	4.70251655629139				0.447788079470199	-0.318834437086093	-0.772238410596026	-2.77960264900662	0.157615894039735	4.00529801324503			
132	2940	0.983841059602649	-0.0292450331125828	0.120476821192053	-1.36662251655629	0.975364238410596	-1.18490066225166				0	0	0	0	0	0				0	0	0	0	0	0				0.384529801324503	-0.176529801324503	-0.869721854304636	2.48291390728477	-0.0964238410596001	11.4243708609272				0.980026490066225	0.0514966887417219	0.101933774834437	-9.2882119205298	-4.70807947019868	4.70251655629139				0.431788079470199	-0.302834437086093	-0.820238410596026	-5.01960264900662	1.55761589403974	5.40529801324503			
133	2960	0	0	0	0	0	0				0	0	0	0	0	0				0	0	0	0	0	0				0.384529801324503	-0.224529801324503	-0.885721854304636	3.32291390728477	0.4635761589404	5.54437086092715				0.980026490066225	0.0514966887417219	0.101933774834437	-10.4082119205298	-5.82807947019868	4.14251655629139				0.431788079470199	-0.270834437086093	-0.788238410596027	-7.53960264900662	2.95761589403974	5.12529801324503			
134	3060	0	0	0	0	0	0				0	0	0	0	0	0				0	0	0	0	0	0				0	0	0	0	0	0				0.948026490066225	0.0514966887417219	0.0699337748344371	2.4717880794702	-5.54807947019868	3.02251655629139				0.447788079470199	-0.270834437086093	-0.788238410596027	3.66039735099338	1.27761589403974	-2.15470198675497			
135	3080	0	0	0	0	0	0				0	0	0	0	0	0				0.965827814569536	-0.113271523178808	-0.00794701986754963	6.72741721854305	0.706490066225167	-1.04026490066225				0.336529801324503	-0.208529801324503	-0.853721854304636	8.92291390728477	4.3835761589404	0.784370860927152				0.948026490066225	0.0194966887417219	0.0859337748344371	4.9917880794702	-2.46807947019868	2.46251655629139				0.463788079470199	-0.286834437086093	-0.804238410596027	4.22039735099338	0.997615894039735	-3.83470198675497			
136	3100	0.983841059602649	-0.0452450331125828	0.120476821192053	1.99337748344371	-1.8246357615894	-2.86490066225166				0.960953642384106	-0.0482119205298013	0.205139072847682	4.07390728476821	-1.37218543046358	3.05403973509934				0.965827814569536	-0.0972715231788079	-0.0239470198675496	4.20741721854305	1.82649006622517	-1.04026490066225				0.352529801324503	-0.240529801324503	-0.885721854304636	8.08291390728477	1.8635761589404	-1.73562913907285				0.964026490066225	0.0194966887417219	0.101933774834437	8.9117880794702	-3.58807947019868	3.86251655629139				0.463788079470199	-0.302834437086093	-0.804238410596027	1.70039735099338	-0.122384105960265	-3.83470198675497			
137	3120	0.967841059602649	-0.0452450331125828	0.104476821192053	1.15337748344371	-1.2646357615894	-3.14490066225166				0.960953642384106	-0.0482119205298013	0.237139072847682	-0.126092715231788	1.14781456953642	2.21403973509934				0.965827814569536	-0.0812715231788079	-0.0239470198675496	3.92741721854305	1.54649006622517	-1.60026490066225				0.368529801324503	-0.256529801324503	-0.885721854304636	0.242913907284768	-1.7764238410596	-3.69562913907285				0.948026490066225	0.0354966887417219	0.117933774834437	7.2317880794702	0.611920529801325	2.46251655629139				0.463788079470199	-0.286834437086093	-0.804238410596027	0.0203973509933773	-0.402384105960265	-1.87470198675497			
138	3140	0.967841059602649	-0.0292450331125828	0.072476821192053	2.55337748344371	-0.704635761589404	-3.14490066225166				0.960953642384106	-0.0162119205298013	0.189139072847682	3.23390728476821	4.22781456953642	2.21403973509934				0.965827814569536	-0.0972715231788079	-0.0239470198675496	2.80741721854305	3.50649006622517	-1.32026490066225				0.352529801324503	-0.240529801324503	-0.869721854304636	-1.43708609271523	-3.4564238410596	-4.25562913907285				0.948026490066225	0.0354966887417219	0.0859337748344371	5.2717880794702	-2.74807947019868	2.74251655629139				0.463788079470199	-0.286834437086093	-0.772238410596026	0.580397350993377	-2.92238410596027	-0.474701986754968			
139	3160	0.983841059602649	-0.0292450331125828	0.072476821192053	1.15337748344371	-0.704635761589404	-3.14490066225166				0.976953642384106	-0.0162119205298013	0.221139072847682	4.35390728476821	3.66781456953642	2.77403973509934				0.981827814569536	-0.0812715231788079	-0.00794701986754963	4.20741721854305	4.06649006622517	-0.48026490066225				0.304529801324503	-0.208529801324503	-0.853721854304636	2.76291390728477	1.8635761589404	-3.69562913907285				0.948026490066225	0.0514966887417219	0.0859337748344371	3.3117880794702	2.85192052980133	1.62251655629139				0.463788079470199	-0.286834437086093	-0.772238410596026	4.78039735099338	-3.48238410596027	-1.31470198675497			
140	3180	0.983841059602649	-0.0292450331125828	0.088476821192053	2.55337748344371	-1.8246357615894	-2.86490066225166				0.992953642384106	-0.000211920529801304	0.205139072847682	3.23390728476821	0.587814569536424	1.37403973509934				0.997827814569536	-0.0652715231788079	-0.00794701986754963	4.76741721854305	3.22649006622517	-0.20026490066225				0.352529801324503	-0.208529801324503	-0.869721854304636	8.92291390728477	4.6635761589404	-2.01562913907285				0.948026490066225	0.0514966887417219	0.101933774834437	6.6717880794702	2.57192052980133	1.06251655629139				0.463788079470199	-0.286834437086093	-0.772238410596026	6.18039735099338	-3.48238410596027	-2.43470198675497			
141	3200	0.983841059602649	-0.0452450331125828	0.088476821192053	-0.246622516556291	-2.9446357615894	-3.14490066225166				0.992953642384106	-0.0162119205298013	0.205139072847682	3.79390728476821	-0.252185430463576	1.93403973509934				0.997827814569536	-0.0812715231788079	-0.0239470198675496	4.20741721854305	2.94649006622517	-1.04026490066225				0.384529801324503	-0.240529801324503	-0.885721854304636	4.16291390728477	6.3435761589404	-1.45562913907285				0.964026490066225	0.0354966887417219	0.117933774834437	6.9517880794702	0.0519205298013249	1.90251655629139				0.495788079470199	-0.286834437086093	-0.788238410596027	6.46039735099338	-3.20238410596026	-2.99470198675497			
142	3220	0.967841059602649	-0.0292450331125828	0.104476821192053	-2.20662251655629	-3.2246357615894	-3.70490066225166				0.960953642384106	-0.000211920529801304	0.221139072847682	3.79390728476821	1.42781456953642	1.09403973509934				0.981827814569536	-0.0812715231788079	-0.0239470198675496	5.32741721854305	3.50649006622517	-1.88026490066225				0.336529801324503	-0.240529801324503	-0.869721854304636	-1.99708609271523	5.5035761589404	-2.85562913907285				0.948026490066225	0.0514966887417219	0.101933774834437	5.5517880794702	4.81192052980133	2.74251655629139				0.479788079470199	-0.302834437086093	-0.772238410596026	6.18039735099338	-2.08238410596027	-4.39470198675497			
143	3240	0.967841059602649	-0.0292450331125828	0.104476821192053	0.593377483443709	-2.9446357615894	-2.86490066225166				0.960953642384106	-0.0162119205298013	0.221139072847682	6.31390728476821	3.38781456953642	0.53403973509934				0.981827814569536	-0.0652715231788079	-0.0399470198675496	2.80741721854305	3.22649006622517	-1.32026490066225				0.336529801324503	-0.192529801324503	-0.869721854304636	-1.99708609271523	3.8235761589404	-4.53562913907285				0.964026490066225	0.0514966887417219	0.101933774834437	3.5917880794702	6.49192052980132	1.34251655629139				0.463788079470199	-0.302834437086093	-0.756238410596026	7.02039735099338	-1.24238410596026	-3.27470198675497			
144	3260	0.951841059602649	-0.0452450331125828	0.104476821192053	2.55337748344371	-2.6646357615894	-2.86490066225166				0.976953642384106	-0.0162119205298013	0.221139072847682	3.79390728476821	1.14781456953642	0.53403973509934				0.981827814569536	-0.0652715231788079	-0.0239470198675496	0.00741721854304636	4.34649006622517	-1.32026490066225				0.368529801324503	-0.208529801324503	-0.869721854304636	1.08291390728477	2.1435761589404	-4.81562913907285				0.964026490066225	0.0514966887417219	0.101933774834437	1.0717880794702	5.65192052980133	0.222516556291392				0.463788079470199	-0.302834437086093	-0.756238410596026	6.18039735099338	-1.52238410596026	-2.43470198675497			
145	3280	0.983841059602649	-0.0452450331125828	0.088476821192053	-0.246622516556291	-0.144635761589404	-4.26490066225166				0.976953642384106	-0.000211920529801304	0.189139072847682	-0.686092715231788	0.867814569536424	-0.0259602649006601				0.981827814569536	-0.0652715231788079	-0.0239470198675496	2.52741721854305	4.62649006622517	-2.16026490066225				0.384529801324503	-0.208529801324503	-0.885721854304636	0.242913907284768	0.7435761589404	-4.25562913907285				0.964026490066225	0.0674966887417219	0.117933774834437	2.4717880794702	2.85192052980133	1.06251655629139				0.479788079470199	-0.302834437086093	-0.772238410596026	4.22039735099338	-2.64238410596027	-2.15470198675497			
