No	Time	12-AccX	12-AccY	12-AccZ	12-GyroX	12-GyroY	12-GyroZ	13-AccX	13-AccY	13-AccZ	13-GyroX	13-GyroY	13-GyroZ	14-AccX	14-AccY	14-AccZ	14-GyroX	14-GyroY	14-GyroZ	15-AccX	15-AccY	15-AccZ	15-GyroX	15-GyroY	15-GyroZ	16-AccX	16-AccY	16-AccZ	16-GyroX	16-GyroY	16-GyroZ	17-AccX	17-AccY	17-AccZ	17-GyroX	17-GyroY	17-GyroZ
0	100	0	0	0	0	0	0				0	0	0	0	0	0				0	0	0	0	0	0				0	0	0	0	0	0				0	0	0	0	0	0				0.335788079470199	-0.206834437086093	-0.868238410596026	0.300397350993377	0.437615894039735	-2.43470198675497			
1	120	-0.200158940397351	0.0987549668874172	-0.951523178807947	-0.806622516556291	0.135364238410596	-1.18490066225166				0.944953642384106	0.143788079470199	0.173139072847682	-2.92609271523179	-0.812185430463576	-1.14596026490066				-0.250172185430464	-0.0172715231788079	-0.88794701986755	1.40741721854305	-0.413509933774833	0.0797350993377501				0.256529801324503	-0.0965298013245033	-0.917721854304636	1.36291390728477	1.0235761589404	-0.0556291390728476				0.916026490066225	0.131496688741722	0.277933774834437	1.0717880794702	-1.90807947019868	-0.337483443708608				0.335788079470199	-0.206834437086093	-0.868238410596026	1.42039735099338	0.997615894039735	-2.43470198675497			
2	140	-0.200158940397351	0.114754966887417	-0.951523178807947	-0.246622516556291	0.415364238410596	-0.624900662251656				0.960953642384106	0.127788079470199	0.189139072847682	-0.686092715231788	4.78781456953642	0.53403973509934				-0.250172185430464	-0.0332715231788079	-0.88794701986755	0.00741721854304636	0.986490066225167	-0.48026490066225				0.256529801324503	-0.0805298013245033	-0.917721854304636	-0.0370860927152318	1.3035761589404	-0.895629139072848				0.916026490066225	0.115496688741722	0.277933774834437	1.6317880794702	-0.228079470198675	-0.0574834437086077				0.335788079470199	-0.206834437086093	-0.852238410596026	1.42039735099338	1.27761589403974	-1.03470198675497			
3	160	-0.184158940397351	0.114754966887417	-0.935523178807947	0.313377483443709	0.695364238410596	-0.624900662251656				0.976953642384106	0.143788079470199	0.205139072847682	-2.08609271523179	0.587814569536424	-1.14596026490066				-0.234172185430464	-0.0172715231788079	-0.87194701986755	-1.39258278145695	0.426490066225167	0.0797350993377501				0.256529801324503	-0.0805298013245033	-0.917721854304636	-0.0370860927152318	0.4635761589404	-2.01562913907285				0.916026490066225	0.115496688741722	0.277933774834437	2.1917880794702	-0.508079470198675	0.222516556291392				0.335788079470199	-0.222834437086093	-0.852238410596026	1.14039735099338	0.997615894039735	-0.474701986754968			
4	180	-0.200158940397351	0.130754966887417	-0.935523178807947	-0.526622516556291	0.415364238410596	-0.904900662251656				0.976953642384106	0.143788079470199	0.189139072847682	-4.88609271523179	-0.252185430463576	-0.585960264900661				-0.250172185430464	-0.0332715231788079	-0.87194701986755	0.567417218543046	0.146490066225167	-0.20026490066225				0.272529801324503	-0.0965298013245033	-0.917721854304636	0.802913907284768	-0.0964238410596001	-1.73562913907285				0.932026490066225	0.131496688741722	0.277933774834437	0.791788079470198	-1.34807947019868	-0.0574834437086077				0.351788079470199	-0.206834437086093	-0.852238410596026	0.300397350993377	-0.682384105960265	-0.754701986754968			
5	200	-0.200158940397351	0.114754966887417	-0.935523178807947	-1.08662251655629	-0.144635761589404	-0.624900662251656				0.960953642384106	0.159788079470199	0.189139072847682	-6.28609271523179	-0.532185430463576	0.53403973509934				-0.234172185430464	-0.0172715231788079	-0.88794701986755	1.68741721854305	-0.413509933774833	-0.48026490066225				0.256529801324503	-0.0965298013245033	-0.917721854304636	1.08291390728477	0.4635761589404	-3.13562913907285				0.932026490066225	0.115496688741722	0.277933774834437	2.1917880794702	-0.508079470198675	0.222516556291392				0.351788079470199	-0.222834437086093	-0.852238410596026	0.580397350993377	-1.24238410596026	-1.31470198675497			
6	220	-0.200158940397351	0.114754966887417	-0.967523178807947	-1.92662251655629	-0.704635761589404	-0.344900662251656				0.960953642384106	0.143788079470199	0.205139072847682	-2.08609271523179	1.14781456953642	0.81403973509934				-0.234172185430464	-0.0172715231788079	-0.88794701986755	0.847417218543046	0.146490066225167	-0.48026490066225				0.256529801324503	-0.0965298013245033	-0.917721854304636	0.802913907284768	0.7435761589404	-2.57562913907285				0.916026490066225	0.131496688741722	0.277933774834437	1.3517880794702	0.891920529801325	-0.0574834437086077				0.367788079470199	-0.206834437086093	-0.852238410596026	1.42039735099338	-0.402384105960265	-1.87470198675497			
7	240	-0.200158940397351	0.130754966887417	-0.951523178807947	-0.806622516556291	0.415364238410596	-0.0649006622516557				0.960953642384106	0.159788079470199	0.237139072847682	4.63390728476821	3.10781456953642	2.49403973509934				-0.234172185430464	-0.0172715231788079	-0.87194701986755	-0.272582781456954	-0.413509933774833	-0.48026490066225				0.272529801324503	-0.0965298013245033	-0.933721854304636	1.36291390728477	0.4635761589404	-3.13562913907285				0.932026490066225	0.115496688741722	0.293933774834437	1.6317880794702	2.29192052980133	0.782516556291392				0.351788079470199	-0.222834437086093	-0.868238410596026	3.66039735099338	-0.122384105960265	-2.71470198675497			
8	260	-0.200158940397351	0.114754966887417	-0.935523178807947	0.593377483443709	0.975364238410596	-0.344900662251656				0.992953642384106	0.111788079470199	0.205139072847682	5.47390728476821	-3.33218543046358	4.45403973509934				-0.250172185430464	-0.0172715231788079	-0.88794701986755	-0.272582781456954	-0.413509933774833	0.0797350993377501				0.272529801324503	-0.0965298013245033	-0.917721854304636	1.08291390728477	0.4635761589404	-3.41562913907285				0.932026490066225	0.131496688741722	0.277933774834437	2.1917880794702	1.45192052980132	0.502516556291392				0.351788079470199	-0.222834437086093	-0.852238410596026	3.10039735099338	0.717615894039735	-2.15470198675497			
9	280	-0.216158940397351	0.114754966887417	-0.951523178807947	-0.526622516556291	-0.704635761589404	-0.904900662251656				0.992953642384106	0.127788079470199	0.173139072847682	-1.24609271523179	-7.81218543046358	2.21403973509934				-0.250172185430464	-0.0332715231788079	-0.88794701986755	1.40741721854305	-0.413509933774833	0.0797350993377501				0.272529801324503	-0.0805298013245033	-0.933721854304636	0.802913907284768	1.0235761589404	-3.41562913907285				0.932026490066225	0.115496688741722	0.293933774834437	2.7517880794702	0.331920529801325	-0.0574834437086077				0.351788079470199	-0.222834437086093	-0.836238410596026	0.860397350993377	0.157615894039735	-0.474701986754968			
10	300	-0.216158940397351	0.130754966887417	-0.967523178807947	-1.64662251655629	-0.144635761589404	-1.18490066225166				0.944953642384106	0.127788079470199	0.189139072847682	-2.64609271523179	-1.37218543046358	2.49403973509934				-0.250172185430464	-0.0332715231788079	-0.88794701986755	1.12741721854305	0.426490066225167	-0.48026490066225				0.256529801324503	-0.0805298013245033	-0.901721854304636	0.522913907284768	1.5835761589404	-3.13562913907285				0.916026490066225	0.131496688741722	0.293933774834437	2.7517880794702	-0.228079470198675	1.34251655629139				0.351788079470199	-0.206834437086093	-0.852238410596026	0.0203973509933773	0.997615894039735	0.0852980132450323			
11	320	-0.200158940397351	0.114754966887417	-0.951523178807947	-2.76662251655629	1.2553642384106	-1.18490066225166				0.960953642384106	0.127788079470199	0.253139072847682	-1.24609271523179	5.90781456953642	0.81403973509934				-0.250172185430464	-0.0172715231788079	-0.87194701986755	-1.39258278145695	0.426490066225167	-0.48026490066225				0.272529801324503	-0.0805298013245033	-0.917721854304636	-0.0370860927152318	2.1435761589404	-2.29562913907285				0.916026490066225	0.0994966887417219	0.309933774834437	3.5917880794702	1.17192052980133	2.18251655629139				0.351788079470199	-0.206834437086093	-0.868238410596026	1.98039735099338	2.39761589403974	-0.754701986754968			
12	340	-0.184158940397351	0.114754966887417	-0.919523178807947	1.71337748344371	1.5353642384106	-0.344900662251656				0.960953642384106	0.159788079470199	0.253139072847682	1.27390728476821	4.78781456953642	0.53403973509934				-0.250172185430464	-0.0172715231788079	-0.88794701986755	-1.11258278145695	0.426490066225167	-0.20026490066225				0.272529801324503	-0.0965298013245033	-0.933721854304636	2.20291390728477	1.8635761589404	-3.41562913907285				0.932026490066225	0.115496688741722	0.293933774834437	3.0317880794702	0.0519205298013249	1.90251655629139				0.351788079470199	-0.238834437086093	-0.868238410596026	3.94039735099338	2.95761589403974	-0.754701986754968			
13	360	-0.184158940397351	0.114754966887417	-0.935523178807947	0.313377483443709	-0.144635761589404	-1.74490066225166				0.976953642384106	0.159788079470199	0.205139072847682	1.55390728476821	1.98781456953642	0.53403973509934				-0.250172185430464	-0.0332715231788079	-0.88794701986755	0.847417218543046	0.426490066225167	-0.20026490066225				0.272529801324503	-0.0965298013245033	-0.917721854304636	1.64291390728477	1.8635761589404	-2.57562913907285				0.900026490066225	0.131496688741722	0.293933774834437	4.1517880794702	1.17192052980133	2.74251655629139				0.351788079470199	-0.238834437086093	-0.852238410596026	2.82039735099338	2.67761589403974	-0.474701986754968			
14	380	-0.200158940397351	0.130754966887417	-0.951523178807947	-1.64662251655629	-0.424635761589404	-1.18490066225166				0.976953642384106	0.127788079470199	0.173139072847682	0.713907284768212	2.54781456953642	0.81403973509934				-0.250172185430464	-0.0172715231788079	-0.90394701986755	0.287417218543046	0.706490066225167	-0.20026490066225				0.272529801324503	-0.0965298013245033	-0.917721854304636	0.522913907284768	1.8635761589404	-3.13562913907285				0.916026490066225	0.131496688741722	0.277933774834437	2.7517880794702	1.73192052980133	1.34251655629139				0.367788079470199	-0.222834437086093	-0.836238410596026	2.54039735099338	-0.402384105960265	-0.194701986754968			
15	400	-0.184158940397351	0.130754966887417	-0.951523178807947	0.873377483443709	0.135364238410596	0.215099337748344				0.960953642384106	0.127788079470199	0.237139072847682	0.713907284768212	4.22781456953642	1.37403973509934				-0.234172185430464	-0.0172715231788079	-0.87194701986755	0.847417218543046	0.426490066225167	-0.20026490066225				0.288529801324503	-0.0805298013245033	-0.901721854304636	0.802913907284768	1.8635761589404	-2.57562913907285				0.900026490066225	0.131496688741722	0.309933774834437	-2.0082119205298	4.81192052980133	-0.337483443708608				0.367788079470199	-0.222834437086093	-0.852238410596026	2.54039735099338	-0.962384105960265	0.645298013245032			
16	420	-0.200158940397351	0.114754966887417	-0.935523178807947	0.593377483443709	0.135364238410596	-0.904900662251656				0.960953642384106	0.127788079470199	0.205139072847682	0.993907284768212	-0.252185430463576	2.21403973509934				-0.234172185430464	-0.0172715231788079	-0.87194701986755	0.287417218543046	-0.693509933774834	0.0797350993377501				0.272529801324503	-0.0645298013245033	-0.917721854304636	2.48291390728477	2.7035761589404	-2.57562913907285				0.900026490066225	0.131496688741722	0.325933774834437	0.511788079470198	2.85192052980133	0.502516556291392				0.367788079470199	-0.222834437086093	-0.836238410596026	3.38039735099338	-1.24238410596026	0.365298013245032			
17	440	-0.200158940397351	0.114754966887417	-0.935523178807947	0.0333774834437086	-0.424635761589404	-1.74490066225166				0.960953642384106	0.127788079470199	0.205139072847682	-1.52609271523179	-3.33218543046358	0.25403973509934				-0.234172185430464	-0.0332715231788079	-0.88794701986755	0.847417218543046	-0.413509933774833	-0.20026490066225				0.272529801324503	-0.0805298013245033	-0.917721854304636	1.64291390728477	0.7435761589404	-1.45562913907285				0.932026490066225	0.115496688741722	0.293933774834437	1.0717880794702	3.41192052980132	0.502516556291392				0.367788079470199	-0.222834437086093	-0.836238410596026	3.66039735099338	-0.402384105960265	-0.754701986754968			
18	460	-0.200158940397351	0.130754966887417	-0.951523178807947	-1.08662251655629	-0.144635761589404	-2.30490066225166				0.976953642384106	0.143788079470199	0.205139072847682	-1.80609271523179	-3.33218543046358	1.65403973509934				-0.266172185430464	-0.0332715231788079	-0.88794701986755	0.847417218543046	-0.973509933774833	-0.48026490066225				0.288529801324503	-0.112529801324503	-0.917721854304636	2.20291390728477	1.3035761589404	-1.73562913907285				0.948026490066225	0.115496688741722	0.309933774834437	1.9117880794702	2.29192052980133	1.34251655629139				0.383788079470199	-0.222834437086093	-0.852238410596026	1.98039735099338	0.717615894039735	-1.31470198675497			
19	480	-0.200158940397351	0.130754966887417	-0.951523178807947	0.313377483443709	-0.704635761589404	-2.02490066225166				0.976953642384106	0.127788079470199	0.205139072847682	2.11390728476821	0.587814569536424	2.49403973509934				-0.250172185430464	-0.0172715231788079	-0.90394701986755	-0.272582781456954	-0.413509933774833	-0.48026490066225				0.288529801324503	-0.0965298013245033	-0.949721854304636	0.802913907284768	1.3035761589404	-1.45562913907285				0.916026490066225	0.115496688741722	0.293933774834437	-0.0482119205298018	2.01192052980133	1.90251655629139				0.383788079470199	-0.222834437086093	-0.852238410596026	1.70039735099338	0.437615894039735	-1.87470198675497			
20	500	-0.200158940397351	0.130754966887417	-0.951523178807947	0.313377483443709	-0.144635761589404	-1.46490066225166				0.976953642384106	0.143788079470199	0.189139072847682	2.67390728476821	1.42781456953642	2.21403973509934				-0.250172185430464	-0.0172715231788079	-0.87194701986755	0.00741721854304636	0.986490066225167	-0.48026490066225				0.272529801324503	-0.0965298013245033	-0.933721854304636	0.522913907284768	1.8635761589404	0.224370860927152				0.932026490066225	0.131496688741722	0.309933774834437	-0.0482119205298018	1.17192052980133	0.782516556291392				0.367788079470199	-0.238834437086093	-0.836238410596026	1.70039735099338	0.717615894039735	-1.03470198675497			
21	520	-0.200158940397351	0.114754966887417	-0.951523178807947	0.873377483443709	0.135364238410596	-1.74490066225166				0.976953642384106	0.143788079470199	0.205139072847682	1.83390728476821	-2.49218543046358	1.37403973509934				-0.250172185430464	-0.0172715231788079	-0.88794701986755	0.847417218543046	0.146490066225167	-0.76026490066225				0.272529801324503	-0.0965298013245033	-0.933721854304636	1.92291390728477	2.4235761589404	1.34437086092715				0.932026490066225	0.115496688741722	0.325933774834437	-0.0482119205298018	0.331920529801325	-0.0574834437086077				0.383788079470199	-0.238834437086093	-0.852238410596026	0.860397350993377	1.83761589403974	-1.03470198675497			
22	540	-0.200158940397351	0.114754966887417	-0.951523178807947	-0.806622516556291	0.415364238410596	-1.18490066225166				0.976953642384106	0.143788079470199	0.205139072847682	-0.406092715231788	-6.41218543046358	1.93403973509934				-0.250172185430464	-0.0172715231788079	-0.90394701986755	0.847417218543046	0.426490066225167	-0.20026490066225				0.272529801324503	-0.112529801324503	-0.949721854304636	1.92291390728477	1.8635761589404	1.62437086092715				0.932026490066225	0.115496688741722	0.293933774834437	-0.888211920529802	0.891920529801325	1.06251655629139				0.383788079470199	-0.238834437086093	-0.852238410596026	1.14039735099338	2.39761589403974	0.0852980132450323			
23	560	-0.200158940397351	0.114754966887417	-0.951523178807947	-0.246622516556291	0.415364238410596	-0.904900662251656				0.976953642384106	0.127788079470199	0.205139072847682	-0.126092715231788	-6.41218543046358	1.93403973509934				-0.234172185430464	-0.0172715231788079	-0.88794701986755	0.567417218543046	0.426490066225167	0.63973509933775				0.272529801324503	-0.0965298013245033	-0.933721854304636	0.802913907284768	0.4635761589404	2.18437086092715				0.916026490066225	0.115496688741722	0.309933774834437	-1.1682119205298	1.45192052980132	1.06251655629139				0.367788079470199	-0.238834437086093	-0.868238410596026	1.42039735099338	1.55761589403974	0.365298013245032			
24	580	-0.200158940397351	0.130754966887417	-0.951523178807947	0.873377483443709	-0.144635761589404	-0.624900662251656				0.960953642384106	0.127788079470199	0.189139072847682	1.83390728476821	-6.69218543046358	1.37403973509934				-0.234172185430464	-0.0172715231788079	-0.88794701986755	1.12741721854305	0.986490066225167	-0.48026490066225				0.288529801324503	-0.0965298013245033	-0.917721854304636	0.242913907284768	-0.6564238410596	2.74437086092715				0.932026490066225	0.131496688741722	0.293933774834437	-1.7282119205298	0.331920529801325	0.782516556291392				0.367788079470199	-0.238834437086093	-0.852238410596026	1.42039735099338	0.437615894039735	0.925298013245032			
25	600	-0.200158940397351	0.114754966887417	-0.951523178807947	0.873377483443709	0.135364238410596	-0.344900662251656				0.976953642384106	0.127788079470199	0.189139072847682	2.95390728476821	-5.01218543046358	1.09403973509934				-0.234172185430464	-0.0172715231788079	-0.88794701986755	0.847417218543046	0.426490066225167	-0.76026490066225				0.272529801324503	-0.112529801324503	-0.917721854304636	-0.597086092715232	-1.2164238410596	2.46437086092715				0.916026490066225	0.115496688741722	0.293933774834437	-1.7282119205298	0.331920529801325	1.34251655629139				0.351788079470199	-0.238834437086093	-0.852238410596026	1.98039735099338	-1.24238410596026	0.645298013245032			
26	620	-0.200158940397351	0.114754966887417	-0.951523178807947	0.593377483443709	0.695364238410596	-0.904900662251656				0.960953642384106	0.127788079470199	0.189139072847682	2.11390728476821	-5.29218543046358	2.21403973509934				-0.250172185430464	-0.0172715231788079	-0.90394701986755	-0.272582781456954	0.146490066225167	-0.20026490066225				0.288529801324503	-0.0965298013245033	-0.917721854304636	-0.597086092715232	-1.4964238410596	2.74437086092715				0.916026490066225	0.0994966887417219	0.293933774834437	-1.7282119205298	0.611920529801325	1.06251655629139				0.351788079470199	-0.238834437086093	-0.836238410596026	1.42039735099338	-0.682384105960265	1.48529801324503			
27	640	-0.200158940397351	0.114754966887417	-0.935523178807947	0.593377483443709	0.135364238410596	-0.904900662251656				0.976953642384106	0.127788079470199	0.173139072847682	2.67390728476821	-4.73218543046358	3.89403973509934				-0.250172185430464	-0.0332715231788079	-0.88794701986755	0.847417218543046	0.706490066225167	-0.20026490066225				0.272529801324503	-0.0965298013245033	-0.917721854304636	0.522913907284768	-0.6564238410596	3.86437086092715				0.916026490066225	0.115496688741722	0.309933774834437	-1.4482119205298	1.17192052980133	0.782516556291392				0.351788079470199	-0.238834437086093	-0.836238410596026	0.580397350993377	0.437615894039735	2.60529801324503			
28	660	-0.216158940397351	0.130754966887417	-0.951523178807947	0.313377483443709	0.135364238410596	-1.18490066225166				0.960953642384106	0.127788079470199	0.173139072847682	1.55390728476821	-2.49218543046358	2.21403973509934				-0.250172185430464	-0.0172715231788079	-0.87194701986755	-0.272582781456954	0.146490066225167	-0.20026490066225				0.272529801324503	-0.0805298013245033	-0.917721854304636	1.92291390728477	0.4635761589404	2.46437086092715				0.932026490066225	0.115496688741722	0.309933774834437	-1.1682119205298	1.45192052980132	0.502516556291392				0.367788079470199	-0.238834437086093	-0.836238410596026	0.580397350993377	1.55761589403974	1.76529801324503			
29	680	-0.200158940397351	0.114754966887417	-0.951523178807947	0.313377483443709	0.695364238410596	-1.74490066225166				0.976953642384106	0.127788079470199	0.189139072847682	-0.126092715231788	-3.05218543046358	0.25403973509934				-0.250172185430464	-0.0172715231788079	-0.88794701986755	1.12741721854305	0.146490066225167	-0.76026490066225				0.288529801324503	-0.0965298013245033	-0.917721854304636	1.92291390728477	1.0235761589404	2.46437086092715				0.916026490066225	0.0994966887417219	0.309933774834437	0.511788079470198	-0.788079470198675	0.502516556291392				0.351788079470199	-0.222834437086093	-0.852238410596026	1.42039735099338	1.27761589403974	1.20529801324503			
30	700	-0.200158940397351	0.114754966887417	-0.935523178807947	0.313377483443709	0.135364238410596	-1.46490066225166				0.976953642384106	0.127788079470199	0.189139072847682	-3.20609271523179	-4.73218543046358	-0.30596026490066				-0.250172185430464	-0.0332715231788079	-0.88794701986755	0.567417218543046	0.146490066225167	-0.20026490066225				0.272529801324503	-0.0965298013245033	-0.901721854304636	0.802913907284768	-0.3764238410596	1.90437086092715				0.916026490066225	0.115496688741722	0.277933774834437	-0.608211920529802	-1.34807947019868	1.34251655629139				0.351788079470199	-0.238834437086093	-0.836238410596026	0.580397350993377	0.997615894039735	0.365298013245032			
31	720	-0.200158940397351	0.114754966887417	-0.951523178807947	0.0333774834437086	-0.424635761589404	-0.624900662251656				0.976953642384106	0.143788079470199	0.173139072847682	-2.08609271523179	-3.61218543046358	0.25403973509934				-0.250172185430464	-0.0332715231788079	-0.88794701986755	0.847417218543046	0.706490066225167	0.0797350993377501				0.272529801324503	-0.0805298013245033	-0.917721854304636	0.242913907284768	-0.0964238410596001	-0.0556291390728476				0.916026490066225	0.115496688741722	0.309933774834437	-1.1682119205298	-1.06807947019868	1.90251655629139				0.351788079470199	-0.238834437086093	-0.836238410596026	-0.259602649006623	1.83761589403974	0.365298013245032			
32	740	-0.200158940397351	0.114754966887417	-0.951523178807947	0.313377483443709	-0.144635761589404	-0.904900662251656				0.976953642384106	0.143788079470199	0.173139072847682	1.27390728476821	-2.49218543046358	1.65403973509934				-0.250172185430464	-0.0172715231788079	-0.88794701986755	0.567417218543046	0.706490066225167	-0.20026490066225				0.288529801324503	-0.0965298013245033	-0.917721854304636	2.76291390728477	1.5835761589404	-0.335629139072848				0.916026490066225	0.131496688741722	0.309933774834437	-0.0482119205298018	-0.228079470198675	1.06251655629139				0.367788079470199	-0.238834437086093	-0.852238410596026	-0.539602649006623	2.11761589403974	0.0852980132450323			
33	760	-0.184158940397351	0.130754966887417	-0.935523178807947	0.313377483443709	-0.144635761589404	-0.0649006622516557				0.976953642384106	0.143788079470199	0.189139072847682	2.95390728476821	-1.93218543046358	2.77403973509934				-0.250172185430464	-0.0172715231788079	-0.87194701986755	0.847417218543046	0.426490066225167	0.0797350993377501				0.272529801324503	-0.112529801324503	-0.933721854304636	2.76291390728477	1.5835761589404	0.784370860927152				0.916026490066225	0.131496688741722	0.293933774834437	-0.328211920529802	-1.62807947019868	0.782516556291392				0.351788079470199	-0.222834437086093	-0.868238410596026	1.14039735099338	0.997615894039735	-1.31470198675497			
34	780	-0.184158940397351	0.130754966887417	-0.935523178807947	0.593377483443709	-0.424635761589404	-0.344900662251656				0.976953642384106	0.127788079470199	0.205139072847682	2.95390728476821	-2.77218543046358	3.33403973509934				-0.250172185430464	-0.0172715231788079	-0.88794701986755	0.00741721854304636	-0.133509933774833	-0.20026490066225				0.288529801324503	-0.0965298013245033	-0.933721854304636	0.802913907284768	0.1835761589404	0.224370860927152				0.916026490066225	0.115496688741722	0.293933774834437	-0.0482119205298018	-1.06807947019868	1.34251655629139				0.351788079470199	-0.222834437086093	-0.852238410596026	1.14039735099338	-0.122384105960265	-0.194701986754968			
35	800	-0.200158940397351	0.114754966887417	-0.951523178807947	0.313377483443709	-0.704635761589404	-1.46490066225166				0.976953642384106	0.127788079470199	0.173139072847682	3.23390728476821	-4.45218543046358	4.17403973509934				-0.250172185430464	-0.0172715231788079	-0.88794701986755	1.40741721854305	0.146490066225167	-0.48026490066225				0.288529801324503	-0.0965298013245033	-0.917721854304636	1.08291390728477	0.4635761589404	0.784370860927152				0.932026490066225	0.115496688741722	0.293933774834437	-0.0482119205298018	0.331920529801325	0.502516556291392				0.367788079470199	-0.238834437086093	-0.836238410596026	0.0203973509933773	-0.682384105960265	-0.754701986754968			
36	820	-0.200158940397351	0.130754966887417	-0.951523178807947	-0.806622516556291	0.135364238410596	-1.74490066225166				0.976953642384106	0.111788079470199	0.173139072847682	4.35390728476821	-1.65218543046358	4.73403973509934				-0.234172185430464	-0.0172715231788079	-0.88794701986755	0.567417218543046	-0.693509933774834	-0.48026490066225				0.272529801324503	-0.112529801324503	-0.949721854304636	2.20291390728477	1.3035761589404	2.18437086092715				0.932026490066225	0.115496688741722	0.309933774834437	0.791788079470198	0.0519205298013249	0.502516556291392				0.367788079470199	-0.238834437086093	-0.868238410596026	0.300397350993377	-0.682384105960265	-1.59470198675497			
37	840	-0.200158940397351	0.130754966887417	-0.935523178807947	0.593377483443709	-0.144635761589404	-1.74490066225166				0.976953642384106	0.127788079470199	0.189139072847682	6.31390728476821	1.42781456953642	3.89403973509934				-0.234172185430464	-0.00127152317880793	-0.88794701986755	-0.272582781456954	-0.133509933774833	-1.04026490066225				0.272529801324503	-0.112529801324503	-0.949721854304636	1.36291390728477	1.3035761589404	2.74437086092715				0.916026490066225	0.115496688741722	0.309933774834437	-0.0482119205298018	0.611920529801325	0.782516556291392				0.367788079470199	-0.238834437086093	-0.852238410596026	1.42039735099338	-1.24238410596026	-1.03470198675497			
38	860	-0.184158940397351	0.130754966887417	-0.935523178807947	0.873377483443709	-0.144635761589404	-1.18490066225166				0.976953642384106	0.143788079470199	0.205139072847682	6.87390728476821	2.26781456953642	2.49403973509934				-0.234172185430464	-0.0172715231788079	-0.88794701986755	1.40741721854305	-0.133509933774833	-0.76026490066225				0.256529801324503	-0.112529801324503	-0.933721854304636	0.242913907284768	0.4635761589404	3.86437086092715				0.932026490066225	0.0994966887417219	0.293933774834437	-0.0482119205298018	1.45192052980132	1.06251655629139				0.367788079470199	-0.238834437086093	-0.852238410596026	0.0203973509933773	-1.24238410596026	0.365298013245032			
39	880	-0.200158940397351	0.114754966887417	-0.935523178807947	1.99337748344371	-0.144635761589404	-1.18490066225166				0.976953642384106	0.127788079470199	0.189139072847682	6.03390728476821	-2.21218543046358	1.93403973509934				-0.250172185430464	-0.0172715231788079	-0.87194701986755	1.68741721854305	-0.973509933774833	-0.76026490066225				0.272529801324503	-0.112529801324503	-0.949721854304636	0.802913907284768	-1.4964238410596	4.42437086092715				0.932026490066225	0.115496688741722	0.293933774834437	-0.0482119205298018	0.0519205298013249	1.34251655629139				0.367788079470199	-0.238834437086093	-0.852238410596026	-0.539602649006623	-2.08238410596027	1.20529801324503			
40	900	-0.200158940397351	0.114754966887417	-0.935523178807947	1.71337748344371	-1.5446357615894	-2.30490066225166				0.992953642384106	0.127788079470199	0.141139072847682	6.59390728476821	-4.45218543046358	3.33403973509934				-0.250172185430464	-0.0172715231788079	-0.88794701986755	1.40741721854305	-0.693509933774834	-1.32026490066225				0.256529801324503	-0.128529801324503	-0.949721854304636	-0.317086092715232	-2.6164238410596	5.82437086092715				0.916026490066225	0.115496688741722	0.293933774834437	-2.0082119205298	0.611920529801325	-0.0574834437086077				0.367788079470199	-0.238834437086093	-0.852238410596026	1.42039735099338	-4.04238410596027	-0.754701986754968			
41	920	-0.216158940397351	0.114754966887417	-0.951523178807947	0.593377483443709	-1.5446357615894	-2.58490066225166				0.976953642384106	0.127788079470199	0.125139072847682	5.75390728476821	-4.45218543046358	4.45403973509934				-0.250172185430464	-0.0172715231788079	-0.88794701986755	2.80741721854305	0.706490066225167	-2.44026490066225				0.256529801324503	-0.0965298013245033	-0.949721854304636	-1.43708609271523	-3.7364238410596	6.10437086092715				0.932026490066225	0.0994966887417219	0.293933774834437	-2.2882119205298	1.45192052980132	-0.897483443708608				0.351788079470199	-0.238834437086093	-0.868238410596026	2.82039735099338	-4.88238410596027	0.925298013245032			
42	940	-0.216158940397351	0.114754966887417	-0.935523178807947	0.593377483443709	-0.424635761589404	-1.74490066225166				0.960953642384106	0.127788079470199	0.157139072847682	2.67390728476821	-4.17218543046358	3.05403973509934				-0.250172185430464	-0.0172715231788079	-0.87194701986755	3.64741721854305	0.426490066225167	-2.16026490066225				0.224529801324503	-0.0965298013245033	-0.965721854304636	1.08291390728477	-4.5764238410596	4.98437086092715				0	0	0	0	0	0				0	0	0	0	0	0			
43	1060	0	0	0	0	0	0				0	0	0	0	0	0				0	0	0	0	0	0				0.112529801324503	-0.160529801324503	-1.01372185430464	2.20291390728477	-12.6964238410596	4.14437086092715				1.02802649006623	0.0834966887417219	0.213933774834437	-7.6082119205298	23.0119205298013	-1.45748344370861				0.287788079470199	-0.254834437086093	-1.07623841059603	10.9403973509934	-21.1223841059603	24.165298013245			
44	1080	-0.184158940397351	0.0987549668874172	-0.919523178807947	-0.806622516556291	0.975364238410596	3.01509933774834				1.04095364238411	0.127788079470199	0.0611390728476822	0.993907284768212	-9.21218543046358	4.73403973509934				-0.202172185430464	-0.0172715231788079	-0.87194701986755	4.76741721854305	1.82649006622517	-6.08026490066225				0.112529801324503	-0.112529801324503	-1.09372185430464	-9.83708609271523	-13.8164238410596	2.46437086092715				1.06002649006623	0.0514966887417219	0.213933774834437	-7.6082119205298	23.0119205298013	-1.73748344370861				0.191788079470199	-0.318834437086093	-0.996238410596026	23.8203973509934	-34.2823841059603	34.525298013245			
45	1100	-0.200158940397351	0.114754966887417	-0.919523178807947	-1.36662251655629	-1.5446357615894	3.01509933774834				1.07295364238411	0.191788079470199	0.0291390728476822	-7.96609271523179	-19.0121854304636	0.81403973509934				-0.218172185430464	-0.0332715231788079	-0.88794701986755	11.487417218543	1.26649006622517	-7.48026490066225				0.128529801324503	-0.160529801324503	-1.10972185430464	-4.51708609271523	-18.5764238410596	3.02437086092715				1.10802649006623	0.0994966887417219	0.181933774834437	-11.8082119205298	13.7719205298013	-3.69748344370861				0.127788079470199	-0.318834437086093	-1.01223841059603	13.4603973509934	-14.1223841059603	46.565298013245			
46	1120	-0.248158940397351	0.114754966887417	-0.967523178807947	-2.20662251655629	-1.2646357615894	3.01509933774834				1.10495364238411	0.175788079470199	-0.0828609271523179	-9.64609271523179	-25.1721854304636	8.37403973509934				-0.266172185430464	-0.0172715231788079	-0.87194701986755	9.24741721854305	1.26649006622517	-6.64026490066225				0.128529801324503	-0.144529801324503	-1.10972185430464	-14.3170860927152	-21.6564238410596	-0.615629139072848				1.09202649006623	0.115496688741722	0.149933774834437	-10.6882119205298	8.73192052980133	-2.29748344370861				0.111788079470199	-0.270834437086093	-0.964238410596026	11.2203973509934	-0.962384105960265	57.205298013245			
47	1140	-0.280158940397351	0.114754966887417	-0.983523178807947	-3.04662251655629	0.415364238410596	1.89509933774834				1.08895364238411	0.0797880794701987	-0.146860927152318	-14.9660927152318	-24.3321854304636	11.7340397350993				-0.282172185430464	-0.0332715231788079	-0.87194701986755	7.56741721854305	-0.973509933774833	-4.96026490066225				0.0965298013245033	-0.144529801324503	-1.10972185430464	-29.1570860927152	-25.5764238410596	-6.77562913907285				1.10802649006623	0.115496688741722	0.149933774834437	-8.7282119205298	7.89192052980133	-0.897483443708608				0.0637880794701987	-0.222834437086093	-1.01223841059603	8.98039735099338	0.717615894039735	59.445298013245			
48	1160	-0.296158940397351	0.0987549668874172	-0.983523178807947	-6.12662251655629	3.4953642384106	3.29509933774834				1.05695364238411	0.0637880794701987	-0.114860927152318	-32.8860927152318	-22.0921854304636	10.3340397350993				-0.282172185430464	-0.129271523178808	-0.90394701986755	6.72741721854305	3.50649006622517	-1.32026490066225				0.0965298013245033	-0.176529801324503	-1.12572185430464	-31.1170860927152	-26.1364238410596	-6.77562913907285				1.07602649006623	0.0834966887417219	0.149933774834437	-2.8482119205298	5.65192052980133	1.90251655629139				0.0157880794701987	-0.206834437086093	-1.02823841059603	14.5803973509934	-3.48238410596027	66.165298013245			
49	1180	-0.248158940397351	0.0827549668874172	-0.967523178807947	-5.56662251655629	8.2553642384106	4.69509933774834				1.00895364238411	0.175788079470199	-0.0988609271523179	-36.2460927152318	-15.0921854304636	9.77403973509934				-0.266172185430464	-0.257271523178808	-0.82394701986755	5.32741721854305	7.98649006622517	2.31973509933775				0.144529801324503	-0.192529801324503	-1.10972185430464	-36.1570860927152	-32.5764238410596	-3.41562913907285				1.07602649006623	0.0834966887417219	0.117933774834437	-0.608211920529802	1.73192052980133	5.82251655629139				-0.0162119205298013	-0.238834437086093	-0.980238410596026	17.9403973509934	6.87761589403974	68.125298013245			
50	1200	-0.280158940397351	0.0667549668874172	-0.919523178807947	-14.2466225165563	7.1353642384106	3.85509933774834				0.976953642384106	0.207788079470199	-0.114860927152318	-13.0060927152318	-14.2521854304636	15.9340397350993				-0.282172185430464	-0.257271523178808	-0.82394701986755	-4.75258278145695	4.62649006622517	8.47973509933775				0.192529801324503	-0.176529801324503	-1.10972185430464	-46.7970860927152	-46.5764238410596	-4.81562913907285				1.10802649006623	0.0994966887417219	0.101933774834437	3.0317880794702	-4.70807947019868	8.06251655629139				-0.0162119205298013	-0.286834437086093	-0.980238410596026	14.3003973509934	19.4776158940397	72.045298013245			
51	1220	-0.312158940397351	0.0987549668874172	-0.983523178807947	-16.2066225165563	7.1353642384106	3.57509933774835				0.960953642384106	-0.0642119205298013	-0.0988609271523179	-7.96609271523179	17.9478145695364	23.7740397350993				-0.330172185430464	-0.0972715231788079	-0.87194701986755	-5.59258278145695	0.986490066225167	11.2797350993378				0.128529801324503	-0.160529801324503	-1.10972185430464	-49.8770860927152	-53.5764238410596	-16.8556291390729				1.02802649006623	0.0674966887417219	0.165933774834437	14.7917880794702	-7.50807947019868	9.74251655629139				-0.000211920529801336	-0.302834437086093	-0.948238410596026	16.2603973509934	31.5176158940397	80.725298013245			
52	1240	-0.296158940397351	0.130754966887417	-0.919523178807947	-32.4466225165563	3.4953642384106	7.21509933774835				0.976953642384106	-0.0162119205298013	0.0771390728476822	-23.0860927152318	55.4678145695364	17.3340397350993				-0.330172185430464	0.0147284768211921	-0.90394701986755	-3.07258278145695	2.10649006622517	12.1197350993378				0.000529801324503301	-0.160529801324503	-1.07772185430464	-56.5970860927152	-50.2164238410596	-30.8556291390729				1.01202649006623	0.0194966887417219	0.197933774834437	21.2317880794702	-9.18807947019868	10.5825165562914				-0.0322119205298013	-0.286834437086093	-0.996238410596026	9.26039735099338	32.9176158940397	84.925298013245			
53	1260	-0.296158940397351	0.0827549668874172	-1.03152317880795	-30.7666225165563	8.2553642384106	5.53509933774834				1.04095364238411	0.447788079470199	-0.0188609271523178	-10.7660927152318	40.0678145695364	3.61403973509934				-0.314172185430464	0.0307284768211921	-0.88794701986755	-0.272582781456954	4.62649006622517	11.8397350993378				-0.143470198675497	-0.000529801324503289	-0.965721854304636	-79.5570860927152	-51.3364238410596	-45.4156291390729				1.02802649006623	0.0194966887417219	0.101933774834437	14.2317880794702	-20.3880794701987	8.06251655629139				-0.0482119205298013	-0.222834437086093	-0.948238410596026	14.0203973509934	26.7576158940397	85.205298013245			
54	1280	-0.280158940397351	0.0987549668874172	-0.871523178807947	-30.2066225165563	0.135364238410596	4.97509933774835				0.960953642384106	0.207788079470199	-0.242860927152318	5.19390728476821	17.1078145695364	15.0940397350993				-0.314172185430464	0.0467284768211921	-0.87194701986755	6.44741721854305	2.94649006622517	9.03973509933775				-0.175470198675497	0.0794701986754967	-0.965721854304636	-70.0370860927152	-53.2964238410596	-56.0556291390729				0.948026490066225	0.115496688741722	-0.0740662251655629	-5.6482119205298	-23.7480794701987	1.34251655629139				-0.0162119205298013	-0.206834437086093	-0.948238410596026	20.4603973509934	23.9576158940397	82.685298013245			
55	1300	-0.328158940397351	0.210754966887417	-0.951523178807947	-42.5266225165563	2.0953642384106	3.85509933774834				0.880953642384106	-0.128211920529801	-0.178860927152318	0.993907284768212	47.3478145695364	32.4540397350993				-0.330172185430464	0.110728476821192	-0.90394701986755	14.007417218543	1.26649006622517	8.75973509933775				-0.0954701986754967	0.0314701986754967	-1.01372185430464	-50.9970860927152	-54.9764238410596	-62.2156291390729				0.916026490066225	0.0834966887417219	-0.0420662251655629	17.8717880794702	-1.06807947019868	2.74251655629139				0.0477880794701987	-0.158834437086093	-0.980238410596026	38.1003973509934	12.7576158940397	79.885298013245			
56	1320	-0.280158940397351	0.242754966887417	-0.967523178807947	-34.9666225165563	8.2553642384106	6.09509933774834				0.816953642384106	0.175788079470199	0.0291390728476822	-10.7660927152318	73.6678145695364	22.6540397350993				-0.362172185430464	0.142728476821192	-0.95194701986755	16.247417218543	-3.77350993377483	8.47973509933775				-0.175470198675497	-0.0325298013245033	-0.997721854304636	-45.9570860927152	-55.5364238410596	-77.0556291390728				0.964026490066225	-0.0285033112582781	0.0379337748344371	28.2317880794702	-2.18807947019868	3.86251655629139				-0.000211920529801336	-0.222834437086093	-0.932238410596026	50.9803973509934	-2.92238410596027	83.805298013245			
57	1340	-0.248158940397351	0.226754966887417	-0.951523178807947	-31.6066225165563	11.8953642384106	12.2550993377483				0.992953642384106	0.191788079470199	-0.130860927152318	-20.5660927152318	75.3478145695364	22.3740397350993				-0.314172185430464	0.0467284768211921	-1.03194701986755	31.927417218543	-0.973509933774833	5.67973509933775				-0.271470198675497	0.0634701986754967	-0.901721854304636	-72.5570860927152	-59.7364238410596	-87.1356291390729				0.916026490066225	-0.0285033112582781	0.101933774834437	31.3117880794702	-10.0280794701987	0.782516556291392				-0.0802119205298013	-0.270834437086093	-0.932238410596026	49.3003973509934	-6.84238410596027	85.765298013245			
58	1360	-0.328158940397351	0.194754966887417	-0.919523178807947	-31.3266225165563	13.8553642384106	12.2550993377483				0.880953642384106	-0.0962119205298013	0.0771390728476822	5.19390728476821	85.9878145695364	24.3340397350993				-0.330172185430464	-0.0652715231788079	-1.06394701986755	45.3674172185431	-0.693509933774834	2.03973509933775				-0.239470198675497	0.111470198675497	-0.917721854304636	-48.1970860927152	-55.2564238410596	-94.9756291390729				0.884026490066225	0.0674966887417219	0.0539337748344371	24.8717880794702	0.891920529801325	-2.29748344370861				-0.0482119205298013	-0.238834437086093	-0.964238410596026	39.7803973509934	-1.80238410596026	78.765298013245			
59	1380	-0.408158940397351	0.162754966887417	-0.951523178807947	-34.1266225165563	13.0153642384106	11.1350993377483				0.576953642384106	-0.000211920529801304	0.349139072847682	45.5139072847682	106.427814569536	26.5740397350993				-0.330172185430464	-0.0332715231788079	-0.83994701986755	50.4074172185431	4.34649006622517	-2.72026490066225				-0.0794701986754967	-0.000529801324503289	-0.949721854304636	-12.6370860927152	-47.9764238410596	-93.5756291390729				0.932026490066225	0.0834966887417219	-0.0580662251655629	28.7917880794702	3.97192052980133	-5.65748344370861				-0.000211920529801336	-0.0788344370860927	-0.980238410596026	36.7003973509934	-6.56238410596027	70.365298013245			
60	1400	-0.296158940397351	0.226754966887417	-1.01552317880795	-50.3666225165563	24.2153642384106	15.3350993377483				0.816953642384106	0.127788079470199	0.381139072847682	-4.88609271523179	149.267814569536	21.8140397350993				-0.362172185430464	-0.0332715231788079	-1.01594701986755	21.287417218543	8.82649006622517	-9.44026490066225				-0.0154701986754967	-0.0645298013245033	-0.885721854304636	-17.9570860927152	-53.2964238410596	-90.2156291390729				0.868026490066225	0.0834966887417219	-0.0420662251655629	48.3917880794702	9.85192052980133	-12.3774834437086				-0.0162119205298013	-0.206834437086093	-0.820238410596026	49.5803973509934	-23.6423841059603	74.845298013245			
61	1420	-0.232158940397351	0.274754966887417	-0.967523178807947	-47.2866225165563	28.6953642384106	20.9350993377483				0.960953642384106	0.0957880794701987	0.445139072847682	-45.4860927152318	178.947814569536	28.2540397350993				-0.266172185430464	-0.0652715231788079	-1.14394701986755	62.7274172185431	24.7864900662252	-15.8802649006623				-0.0634701986754967	0.0634701986754967	-0.789721854304636	-40.3570860927152	-58.0564238410596	-93.2956291390729				0.820026490066225	0.0354966887417219	0.277933774834437	40.5517880794702	34.2119205298013	-30.8574834437086				-0.0322119205298013	-0.398834437086093	-0.724238410596026	26.0603973509934	-11.6023841059603	81.565298013245			
62	1440	-0.264158940397351	0.306754966887417	-0.951523178807947	-48.4066225165563	26.1753642384106	27.0950993377483				0.992953642384106	0.0317880794701987	0.669139072847682	-14.1260927152318	153.467814569536	50.0940397350993				-0.250172185430464	-0.113271523178808	-0.72794701986755	43.4074172185431	26.4664900662252	-11.6802649006622				-0.111470198675497	0.159470198675497	-0.917721854304636	-25.7970860927152	-54.9764238410596	-84.3356291390729				0.836026490066225	0.291496688741722	0.517933774834437	16.7517880794702	31.1319205298013	-36.1774834437086				0.127788079470199	-0.478834437086093	-0.756238410596026	-0.259602649006623	-6.84238410596027	74.005298013245			
63	1460	-0.232158940397351	0.402754966887417	-0.999523178807947	-24.3266225165563	29.5353642384106	34.9350993377483				1.00895364238411	0.0477880794701987	0.909139072847682	13.8739072847682	114.267814569536	42.8140397350993				-0.362172185430464	-0.161271523178808	-1.03194701986755	32.7674172185431	25.3464900662252	-5.52026490066225				-0.159470198675497	0.127470198675497	-1.07772185430464	-0.597086092715232	-32.0164238410596	-57.4556291390729				0.884026490066225	0.467496688741722	0.533933774834437	25.7117880794702	24.9719205298013	-22.4574834437086				0.287788079470199	-0.526834437086093	-0.724238410596026	-9.77960264900662	3.51761589403974	55.525298013245			
64	1480	-0.200158940397351	0.386754966887417	-1.04752317880795	-22.0866225165563	46.0553642384106	40.2550993377484				0.800953642384106	0.175788079470199	0.589139072847682	-3.48609271523179	126.307814569536	28.8140397350993				-0.314172185430464	-0.193271523178808	-0.88794701986755	54.3274172185431	41.5864900662252	-3.28026490066225				0.0805298013245033	0.303470198675497	-1.06172185430464	-10.9570860927152	-17.7364238410596	-46.5356291390729				0.900026490066225	0.355496688741722	0.421933774834437	36.0717880794702	25.2519205298013	-20.7774834437086				0.495788079470199	-0.638834437086093	-0.692238410596026	-8.93960264900662	12.1976158940397	33.965298013245			
65	1500	-0.168158940397351	0.274754966887417	-0.903523178807947	-14.2466225165563	55.0153642384106	36.3350993377484				1.02495364238411	-0.160211920529801	0.893139072847682	-28.1260927152318	132.747814569536	44.2140397350993				-0.298172185430464	-0.257271523178808	-0.93594701986755	36.967417218543	41.5864900662252	-6.36026490066225				0.128529801324503	0.463470198675497	-1.17372185430464	-4.51708609271523	-27.5364238410596	-53.8156291390729				0.932026490066225	0.307496688741722	0.789933774834437	78.0717880794702	58.5719205298013	-19.3774834437086				0.527788079470199	-0.702834437086093	-0.788238410596027	-2.77960264900662	34.8776158940397	30.325298013245			
66	1520	-0.264158940397351	0.354754966887417	-0.903523178807947	-8.92662251655629	52.4953642384106	36.0550993377484				1.05695364238411	-0.432211920529801	1.10113907284768	-19.1660927152318	99.9878145695364	37.4940397350993				-0.346172185430464	-0.321271523178808	-0.95194701986755	22.407417218543	49.7064900662252	-10.5602649006623				0.192529801324503	0.367470198675497	-1.26972185430464	-3.39708609271523	-7.9364238410596	-32.2556291390729				1.12402649006623	0.259496688741722	1.07793377483444	71.0717880794702	53.5319205298013	-26.0974834437086				0.415788079470199	-0.926834437086093	-0.836238410596026	37.2603973509934	18.6376158940397	17.165298013245			
67	1540	-0.312158940397351	0.386754966887417	-1.01552317880795	-19.5666225165563	58.3753642384106	38.8550993377483				1.12095364238411	-0.160211920529801	1.02113907284768	-9.36609271523179	77.3078145695364	12.2940397350993				-0.346172185430464	-0.273271523178808	-0.99994701986755	7.00741721854305	58.6664900662252	-8.04026490066225				0.0325298013245033	0.175470198675497	-1.25372185430464	-39.2370860927152	21.1835761589404	-14.8956291390728				1.15602649006623	0.243496688741722	1.09393377483444	52.3117880794702	18.2519205298013	-10.6974834437086				0.511788079470199	-1.13483443708609	-0.820238410596026	37.5403973509934	21.4376158940397	2.60529801324503			
68	1560	-0.152158940397351	0.482754966887417	-0.951523178807947	-5.56662251655629	68.7353642384106	40.5350993377483				1.05695364238411	0.191788079470199	1.02113907284768	-33.7260927152318	45.6678145695364	-1.98596026490066				-0.282172185430464	-0.0812715231788079	-0.93594701986755	-12.872582781457	64.2664900662252	-2.16026490066225				-0.207470198675497	0.479470198675497	-1.15772185430464	-58.5570860927152	22.3035761589404	-12.3756291390728				1.14002649006623	0.259496688741722	0.773933774834437	-5.6482119205298	27.7719205298013	-21.3374834437086				1.0397880794702	-1.37483443708609	-1.04423841059603	-35.8196026490066	29.2776158940397	-23.434701986755			
69	1580	-0.024158940397351	0.434754966887417	-0.951523178807947	10.3933774834437	71.8153642384106	43.6150993377484				1.10495364238411	-0.160211920529801	0.925139072847682	-3.76609271523179	23.8278145695364	-1.98596026490066				-0.250172185430464	-0.0492715231788079	-0.95194701986755	-2.51258278145695	67.9064900662252	0.0797350993377501				-0.0474701986754967	0.655470198675497	-1.04572185430464	-17.3970860927152	29.5835761589404	-3.13562913907285				1.10802649006623	0.403496688741722	0.837933774834437	-7.0482119205298	32.5319205298013	-26.6574834437086				-0.0322119205298013	-0.862834437086093	-0.644238410596026	85.4203973509934	-16.3623841059603	15.765298013245			
70	1600	-0.040158940397351	0.386754966887417	-1.04752317880795	13.4733774834437	78.5353642384106	44.7350993377484				1.16895364238411	-0.256211920529801	0.957139072847682	42.9939072847682	6.18781456953642	-8.42596026490066				-0.170172185430464	-0.225271523178808	-1.11194701986755	3.64741721854305	74.0664900662252	-3.56026490066225				0.0805298013245033	0.575470198675497	-1.12572185430464	26.2829139072848	49.7435761589404	8.90437086092715				1.23602649006623	0.419496688741722	0.789933774834437	-17.4082119205298	21.6119205298013	-16.5774834437086				0.591788079470199	-0.942834437086093	-0.884238410596026	13.4603973509934	61.4776158940397	-21.194701986755			
71	1620	0.119841059602649	0.370754966887417	-1.01552317880795	20.4733774834437	89.1753642384106	45.0150993377484				1.00895364238411	-0.112211920529801	1.03713907284768	40.4739072847682	-29.0921854304636	-13.7459602649007				0.0378278145695364	-0.337271523178808	-1.01594701986755	0.287417218543046	85.5464900662252	-6.64026490066225				0.000529801324503301	0.271470198675497	-1.30172185430464	11.4429139072848	64.0235761589404	24.0243708609272				1.15602649006623	0.419496688741722	0.645933774834437	-23.0082119205298	3.97192052980133	-11.2574834437086				0.383788079470199	-0.974834437086093	-1.12423841059603	56.8603973509934	48.5976158940397	-20.074701986755			
72	1640	0.215841059602649	0.354754966887417	-0.983523178807947	27.1933774834437	93.0953642384106	42.2150993377483				0.848953642384106	-0.000211920529801304	1.05313907284768	-3.20609271523179	-26.0121854304636	-18.7859602649007				0.181827814569536	-0.305271523178808	-0.99994701986755	-15.952582781457	92.2664900662252	-4.96026490066225				-0.0154701986754967	0.287470198675497	-1.22172185430464	-15.9970860927152	67.6635761589404	32.1443708609272				1.07602649006623	0.371496688741722	0.581933774834437	-7.3282119205298	6.77192052980133	-5.37748344370861				0.431788079470199	-0.782834437086093	-0.948238410596026	24.1003973509934	36.2776158940397	-22.314701986755			
73	1660	0.391841059602649	0.258754966887417	-0.983523178807947	22.1533774834437	98.4153642384106	40.2550993377484				1.00895364238411	-0.208211920529801	0.877139072847682	11.3539072847682	-18.1721854304636	-10.9459602649007				0.229827814569536	-0.241271523178808	-0.93594701986755	-18.752582781457	98.7064900662252	-4.96026490066225				0.0165298013245033	0.495470198675497	-1.09372185430464	9.76291390728477	62.3435761589404	34.3843708609272				1.09202649006623	0.323496688741722	0.581933774834437	0.511788079470198	12.3719205298013	-4.25748344370861				0.543788079470199	-0.862834437086093	-0.868238410596026	10.1003973509934	53.6376158940397	-13.354701986755			
74	1680	0.359841059602649	0.258754966887417	-0.999523178807947	12.6333774834437	107.935364238411	37.7350993377484				1.18495364238411	-0.208211920529801	0.829139072847682	18.0739072847682	-12.0121854304636	-8.98596026490066				0.181827814569536	-0.273271523178808	-0.99994701986755	-14.832582781457	107.386490066225	-6.08026490066225				0.208529801324503	0.495470198675497	-1.18972185430464	32.1629139072848	48.6235761589404	38.0243708609272				1.14002649006623	0.339496688741722	0.661933774834437	-0.0482119205298018	8.73192052980133	-2.85748344370861				0.415788079470199	-0.846834437086093	-0.852238410596026	25.2203973509934	36.8376158940397	-9.99470198675497			
75	1700	0.295841059602649	0.274754966887417	-1.01552317880795	0.593377483443709	116.335364238411	36.6150993377484				1.07295364238411	-0.160211920529801	1.00513907284768	5.75390728476821	-14.2521854304636	-3.10596026490066				0.133827814569536	-0.257271523178808	-1.01594701986755	-3.07258278145695	119.146490066225	-4.96026490066225				0.208529801324503	0.287470198675497	-1.30172185430464	38.8829139072848	54.7835761589404	45.5843708609272				1.12402649006623	0.419496688741722	0.709933774834437	4.4317880794702	1.73192052980133	-0.337483443708608				0.415788079470199	-0.750834437086093	-0.804238410596027	33.0603973509934	53.0776158940397	-27.354701986755			
76	1720	0.295841059602649	0.290754966887417	-0.999523178807947	8.43337748344371	124.735364238411	37.7350993377484				1.00895364238411	0.0637880794701987	1.00513907284768	-25.0460927152318	-12.0121854304636	-9.26596026490066				0.165827814569536	-0.321271523178808	-0.98394701986755	-11.752582781457	129.226490066225	-0.48026490066225				0.144529801324503	0.255470198675497	-1.28572185430464	17.3229139072848	72.9835761589404	46.1443708609272				1.12402649006623	0.419496688741722	0.805933774834437	-3.6882119205298	-2.18807947019868	1.90251655629139				0.479788079470199	-0.862834437086093	-0.852238410596026	33.3403973509934	71.8376158940397	-32.674701986755			
77	1740	0.407841059602649	0.322754966887417	-0.951523178807947	24.9533774834437	127.815364238411	39.4150993377484				1.08895364238411	0.0157880794701987	0.893139072847682	-3.76609271523179	-33.2921854304636	-9.26596026490066				0.213827814569536	-0.257271523178808	-0.95194701986755	-18.752582781457	135.946490066225	2.87973509933775				0.208529801324503	0.399470198675497	-1.22172185430464	13.1229139072848	80.2635761589404	46.4243708609272				1.12402649006623	0.451496688741722	0.645933774834437	-12.6482119205298	3.97192052980133	-0.617483443708608				0.543788079470199	-1.03883443708609	-0.836238410596026	31.1003973509934	71.2776158940397	-20.354701986755			
78	1760	0.455841059602649	0.210754966887417	-0.919523178807947	29.9933774834437	133.415364238411	40.2550993377484				1.12095364238411	-0.0802119205298013	0.861139072847682	27.5939072847682	-57.9321854304636	-14.3059602649007				0.245827814569536	-0.161271523178808	-0.95194701986755	-16.232582781457	143.226490066225	2.31973509933775				0.352529801324503	0.447470198675497	-1.20572185430464	37.2029139072848	79.7035761589404	54.8243708609272				1.14002649006623	0.403496688741722	0.661933774834437	-4.2482119205298	0.891920529801325	6.10251655629139				0.607788079470199	-1.03883443708609	-0.804238410596027	3.10039735099338	71.2776158940397	-13.354701986755			
79	1780	0.439841059602649	0.162754966887417	-0.871523178807947	34.7533774834437	142.655364238411	40.8150993377484				1.07295364238411	-0.256211920529801	0.781139072847682	27.8739072847682	-85.0921854304636	-8.98596026490066				0.309827814569536	-0.0972715231788079	-0.85594701986755	-16.792582781457	148.266490066225	-1.04026490066225				0.384529801324503	0.223470198675497	-1.23772185430464	44.4829139072848	71.0235761589404	60.7043708609272				1.10802649006623	0.307496688741722	0.645933774834437	-12.9282119205298	0.0519205298013249	10.3025165562914				0.623788079470199	-0.894834437086093	-0.740238410596026	-3.89960264900662	69.3176158940397	-14.754701986755			
80	1800	0.503841059602649	0.114754966887417	-0.775523178807947	30.5533774834437	146.015364238411	40.5350993377483				1.00895364238411	-0.0802119205298013	0.701139072847682	-8.24609271523179	-64.0921854304636	-21.8659602649007				0.421827814569536	-0.113271523178808	-0.80794701986755	-17.632582781457	144.346490066225	-5.52026490066225				0.352529801324503	-0.0165298013245033	-1.12572185430464	14.5229139072848	73.8235761589404	57.3443708609272				1.02802649006623	0.275496688741722	0.581933774834437	-21.0482119205298	-11.7080794701987	15.0625165562914				0.607788079470199	-0.766834437086093	-0.708238410596026	4.50039735099338	66.7976158940397	-25.394701986755			
81	1820	0.615841059602649	0.0667549668874172	-0.695523178807947	24.6733774834437	153.575364238411	38.5750993377483				1.10495364238411	0.0317880794701987	0.637139072847682	-9.36609271523179	-70.2521854304636	-10.9459602649007				0.485827814569536	-0.0172715231788079	-0.77594701986755	-23.792582781457	152.466490066225	-13.6402649006623				0.368529801324503	0.127470198675497	-0.965721854304636	-4.79708609271523	81.9435761589404	59.0243708609272				0.964026490066225	0.259496688741722	0.485933774834437	-31.1282119205298	-16.7480794701987	15.3425165562914				0.591788079470199	-0.814834437086093	-0.708238410596026	18.7803973509934	68.7576158940397	-35.754701986755			
82	1840	0.759841059602649	0.0667549668874172	-0.615523178807947	20.4733774834437	157.775364238411	34.9350993377483				1.08895364238411	0.0317880794701987	0.541139072847682	13.0339072847682	-80.8921854304636	-6.74596026490066				0.565827814569536	0.0627284768211921	-0.69594701986755	-19.872582781457	156.946490066225	-22.6002649006623				0.400529801324503	0.223470198675497	-0.821721854304636	17.3229139072848	79.4235761589404	70.5043708609272				0.932026490066225	0.195496688741722	0.485933774834437	-28.3282119205298	-20.1080794701987	18.1425165562914				0.559788079470199	-0.894834437086093	-0.612238410596026	17.9403973509934	52.7976158940397	-35.194701986755			
83	1860	0.743841059602649	0.130754966887417	-0.615523178807947	7.31337748344371	161.415364238411	29.6150993377483				0.944953642384106	-0.0962119205298013	0.413139072847682	30.6739072847682	-91.2521854304636	-8.70596026490066				0.581827814569536	0.126728476821192	-0.64794701986755	-6.71258278145695	156.946490066225	-28.4802649006623				0.304529801324503	0.175470198675497	-0.821721854304636	42.5229139072848	64.3035761589404	76.9443708609272				0.868026490066225	0.131496688741722	0.437933774834437	-33.6482119205298	-32.9880794701987	21.5025165562914				0.463788079470199	-0.798834437086093	-0.580238410596026	-23.7796026490066	48.8776158940397	-19.514701986755			
84	1880	0.647841059602649	0.178754966887417	-0.503523178807947	7.87337748344371	167.015364238411	29.3350993377483				0.768953642384106	-0.144211920529801	0.365139072847682	32.3539072847682	-108.612185430464	-8.98596026490066				0.549827814569536	0.0787284768211921	-0.58394701986755	6.44741721854305	154.426490066225	-32.1202649006623				0.240529801324503	0.0314701986754967	-0.773721854304636	54.0029139072848	58.7035761589404	63.2243708609272				0.788026490066225	0.0834966887417219	0.309933774834437	-38.6882119205298	-45.3080794701987	27.1025165562914				0.335788079470199	-0.606834437086093	-0.532238410596027	-48.9796026490066	53.3576158940397	-6.07470198675497			
85	1900	0.551841059602649	0.194754966887417	-0.439523178807947	19.9133774834437	170.095364238411	28.2150993377483				0.624953642384106	-0.0482119205298013	0.221139072847682	16.1139072847682	-105.252185430464	-3.38596026490066				0.565827814569536	-0.0332715231788079	-0.45594701986755	0.287417218543046	160.586490066225	-31.2802649006623				0.160529801324503	-0.0805298013245033	-0.613721854304636	37.7629139072848	55.6235761589404	42.7843708609272				0.660026490066225	0.0354966887417219	0.181933774834437	-40.0882119205298	-54.8280794701987	30.1825165562914				0.239788079470199	-0.382834437086093	-0.500238410596026	-58.7796026490066	55.5976158940397	-1.59470198675497			
86	1920	0.535841059602649	0.162754966887417	-0.439523178807947	36.7133774834437	171.215364238411	24.0150993377483				0.608953642384106	0.0797880794701987	0.0931390728476822	-2.36609271523179	-89.5721854304636	-8.42596026490066				0.533827814569536	-0.0812715231788079	-0.45594701986755	-11.192582781457	159.186490066225	-29.0402649006623				0.128529801324503	0.0154701986754967	-0.485721854304636	24.8829139072848	51.1435761589404	32.9843708609272				0.548026490066225	0.0674966887417219	0.133933774834437	-46.5282119205298	-51.7480794701987	25.9825165562914				0.239788079470199	-0.238834437086093	-0.452238410596026	-51.4996026490066	44.3976158940397	11.285298013245			
87	1940	0.583841059602649	0.114754966887417	-0.375523178807947	27.1933774834437	179.335364238411	18.4150993377483				0.560953642384106	0.0797880794701987	0.0771390728476822	-7.96609271523179	-76.1321854304636	-7.02596026490066				0.501827814569536	-0.0172715231788079	-0.43994701986755	-15.952582781457	165.626490066225	-24.5602649006623				0.112529801324503	0.0634701986754967	-0.453721854304636	36.6429139072848	45.5435761589404	32.1443708609272				0.484026490066225	0.0674966887417219	0.117933774834437	-33.6482119205298	-47.8280794701987	23.1825165562914				0.207788079470199	-0.254834437086093	-0.500238410596026	-45.8996026490066	22.8376158940397	27.525298013245			
88	1960	0.663841059602649	0.0987549668874172	-0.407523178807947	8.43337748344371	180.455364238411	14.7750993377483				0.528953642384106	0.0477880794701987	0.157139072847682	-7.40609271523179	-78.9321854304636	-1.42596026490066				0.517827814569536	-0.00127152317880793	-0.35994701986755	-10.352582781457	171.506490066225	-18.9602649006623				0.160529801324503	0.0314701986754967	-0.469721854304636	52.3229139072848	38.2635761589404	36.3443708609272				0	0	0	0	0	0				0	0	0	0	0	0			
89	2080	0	0	0	0	0	0				0	0	0	0	0	0				0	0	0	0	0	0				0.208529801324503	-0.112529801324503	-0.597721854304636	7.24291390728477	-25.5764238410596	24.0243708609272				0.548026490066225	-0.0125033112582781	0.229933774834437	-5.9282119205298	-54.2680794701987	10.0225165562914				0.111788079470199	-0.126834437086093	-0.500238410596026	-43.3796026490066	-24.4823841059603	3.16529801324503			
90	2100	0.807841059602649	0.00275496688741723	-0.247523178807947	24.6733774834437	116.615364238411	18.1350993377483				0.512953642384106	0.0317880794701987	0.269139072847682	-25.6060927152318	-40.8521854304636	-14.3059602649007				0.837827814569536	-0.161271523178808	-0.45594701986755	-2.79258278145695	65.6664900662252	-6.64026490066225				0.224529801324503	-0.112529801324503	-0.629721854304636	6.68291390728477	-26.6964238410596	20.1043708609272				0.548026490066225	0.0834966887417219	0.133933774834437	-14.6082119205298	-59.3080794701987	6.66251655629139				0.175788079470199	-0.158834437086093	-0.516238410596026	-41.9796026490066	-22.5223841059603	-5.23470198675497			
91	2120	0.855841059602649	-0.0932450331125828	-0.183523178807947	21.3133774834437	102.895364238411	19.2550993377483				0.512953642384106	0.0477880794701987	0.269139072847682	-11.6060927152318	1.14781456953642	-5.34596026490066				0.821827814569536	-0.161271523178808	-0.40794701986755	-29.112582781457	45.7864900662252	-2.72026490066225				0.256529801324503	-0.144529801324503	-0.661721854304636	10.8829139072848	-24.7364238410596	15.9043708609272				0.596026490066225	0.0994966887417219	0.0699337748344371	-6.2082119205298	-45.5880794701987	4.42251655629139				0.223788079470199	-0.174834437086093	-0.548238410596027	-43.9396026490066	-18.0423841059603	-10.274701986755			
92	2140	0.999841059602649	-0.109245033112583	-0.055523178807947	7.87337748344371	88.0553642384106	19.2550993377483				0.768953642384106	0.0637880794701987	0.365139072847682	-9.36609271523179	-3.89218543046358	-16.5459602649007				0.837827814569536	-0.145271523178808	-0.27994701986755	-38.632582781457	38.5064900662252	2.31973509933775				0.256529801324503	-0.160529801324503	-0.709721854304636	5.84291390728477	-22.2164238410596	11.9843708609272				0.692026490066225	0.0674966887417219	0.101933774834437	3.8717880794702	-27.1080794701987	1.62251655629139				0.255788079470199	-0.174834437086093	-0.612238410596026	-34.4196026490066	-11.0423841059603	-12.234701986755			
93	2160	1.09584105960265	0.0187549668874172	-0.00752317880794696	6.19337748344371	81.6153642384106	17.0150993377483				0.800953642384106	0.0797880794701987	0.301139072847682	3.23390728476821	-25.4521854304636	-17.3859602649007				0.901827814569536	-0.0492715231788079	-0.15194701986755	-42.832582781457	35.9864900662252	7.07973509933775				0.256529801324503	-0.144529801324503	-0.741721854304636	1.92291390728477	-8.2164238410596	11.9843708609272				0.804026490066225	0.0354966887417219	0.165933774834437	6.1117880794702	-16.1880794701987	-2.85748344370861				0.287788079470199	-0.206834437086093	-0.628238410596026	-15.3796026490066	-6.84238410596027	-21.194701986755			
94	2180	1.06384105960265	0.162754966887417	-0.055523178807947	13.7533774834437	66.7753642384106	7.21509933774835				0.928953642384106	0.0317880794701987	0.141139072847682	9.67390728476821	-23.4921854304636	-14.3059602649007				0.997827814569536	0.0147284768211921	-0.15194701986755	-29.672582781457	23.6664900662252	5.11973509933775				0.272529801324503	-0.0965298013245033	-0.789721854304636	7.24291390728477	0.1835761589404	8.34437086092715				0.884026490066225	0.0354966887417219	0.181933774834437	6.3917880794702	-12.5480794701987	-4.53748344370861				0.303788079470199	-0.238834437086093	-0.660238410596027	-3.89960264900662	-2.08238410596027	-34.074701986755			
95	2200	0.999841059602649	0.146754966887417	0.00847682119205304	22.4333774834437	51.9353642384106	-1.46490066225166				1.05695364238411	0.0317880794701987	0.205139072847682	3.51390728476821	-23.2121854304636	-13.4659602649007				0.997827814569536	0.0307284768211921	-0.10394701986755	-7.83258278145695	17.2264900662252	2.87973509933775				0.256529801324503	-0.112529801324503	-0.837721854304636	7.24291390728477	2.9835761589404	6.38437086092715				0.916026490066225	0.0354966887417219	0.165933774834437	6.6717880794702	-11.1480794701987	-3.41748344370861				0.335788079470199	-0.366834437086093	-0.708238410596026	13.1803973509934	5.19761589403974	-47.514701986755			
96	2220	0.903841059602649	0.0507549668874172	0.104476821192053	22.1533774834437	37.6553642384106	-3.14490066225166				0.864953642384106	0.0797880794701987	0.157139072847682	9.11390728476821	-30.7721854304636	-11.2259602649007				0.965827814569536	0.0467284768211921	-0.10394701986755	8.12741721854305	22.2664900662252	-0.20026490066225				0.304529801324503	-0.128529801324503	-0.853721854304636	10.3229139072848	6.0635761589404	1.90437086092715				0.932026490066225	0.0674966887417219	0.149933774834437	1.9117880794702	-10.3080794701987	-3.69748344370861				0.447788079470199	-0.478834437086093	-0.740238410596026	22.1403973509934	1.55761589403974	-57.314701986755			
97	2240	0.935841059602649	-0.0452450331125828	0.280476821192053	29.7133774834437	35.9753642384106	2.45509933774835				0.816953642384106	0.0797880794701987	0.253139072847682	16.3939072847682	-7.53218543046358	-12.9059602649007				0.933827814569536	0.0147284768211921	-0.10394701986755	8.96741721854305	23.9464900662252	0.0797350993377501				0.288529801324503	-0.128529801324503	-0.869721854304636	20.4029139072848	9.7035761589404	-0.615629139072848				0.916026490066225	0.0834966887417219	0.133933774834437	1.6317880794702	-9.46807947019868	-2.85748344370861				0.543788079470199	-0.510834437086093	-0.772238410596026	3.10039735099338	-4.88238410596027	-48.074701986755			
98	2260	1.03184105960265	-0.0932450331125828	0.280476821192053	31.6733774834437	32.3353642384106	10.0150993377483				0.880953642384106	0.0637880794701987	0.253139072847682	17.7939072847682	-5.29218543046358	-11.5059602649007				0.949827814569536	-0.0492715231788079	-0.0559470198675496	15.407417218543	22.8264900662252	1.19973509933775				0.288529801324503	-0.160529801324503	-0.869721854304636	21.8029139072848	13.0635761589404	-3.97562913907285				0.900026490066225	0.0834966887417219	0.149933774834437	4.1517880794702	-8.90807947019868	-3.13748344370861				0.495788079470199	-0.574834437086093	-0.756238410596026	-1.37960264900662	-16.3623841059603	-29.874701986755			
99	2280	1.03184105960265	-0.0772450331125828	0.136476821192053	23.8333774834437	26.4553642384106	7.49509933774834				0.976953642384106	0.0957880794701987	0.141139072847682	17.2339072847682	6.46781456953642	-5.90596026490066				1.01382781456954	-0.0492715231788079	-0.0719470198675496	28.8474172185431	21.9864900662252	1.19973509933775				0.272529801324503	-0.160529801324503	-0.853721854304636	12.5629139072848	11.6635761589404	-2.57562913907285				0.916026490066225	0.0674966887417219	0.149933774834437	-0.328211920529802	-8.62807947019868	-3.97748344370861				0.431788079470199	-0.574834437086093	-0.740238410596026	-24.6196026490066	-18.3223841059603	-7.47470198675497			
100	2300	0.983841059602649	-0.109245033112583	0.072476821192053	13.7533774834437	16.6553642384106	1.61509933774834				1.08895364238411	0.0637880794701987	0.189139072847682	10.5139072847682	8.14781456953643	-2.54596026490066				1.02982781456954	-0.113271523178808	-0.10394701986755	29.407417218543	21.1464900662252	2.31973509933775				0.240529801324503	-0.192529801324503	-0.901721854304636	0.522913907284768	10.5435761589404	3.02437086092715				0.948026490066225	0.0674966887417219	0.133933774834437	-5.0882119205298	-2.46807947019868	-2.57748344370861				0.431788079470199	-0.494834437086093	-0.740238410596026	-37.2196026490066	-12.7223841059603	16.045298013245			
101	2320	0.903841059602649	-0.0772450331125828	0.120476821192053	12.9133774834437	24.2153642384106	0.215099337748344				0.928953642384106	-0.0162119205298013	0.237139072847682	5.75390728476821	1.14781456953642	0.81403973509934				1.02982781456954	-0.161271523178808	-0.11994701986755	18.767417218543	16.6664900662252	1.47973509933775				0.208529801324503	-0.176529801324503	-0.917721854304636	-3.95708609271523	18.6635761589404	6.38437086092715				0.900026490066225	0.0674966887417219	0.133933774834437	-5.3682119205298	11.8119205298013	-1.73748344370861				0.431788079470199	-0.414834437086093	-0.724238410596026	-38.3396026490066	-8.24238410596027	28.925298013245			
102	2340	0.903841059602649	-0.0292450331125828	0.248476821192053	16.5533774834437	33.1753642384106	-2.86490066225166				0.896953642384106	-0.0642119205298013	0.301139072847682	5.47390728476821	10.6678145695364	-1.70596026490066				0.981827814569536	-0.161271523178808	-0.11994701986755	6.44741721854305	13.5864900662252	0.63973509933775				0.240529801324503	-0.160529801324503	-0.869721854304636	-0.0370860927152318	28.7435761589404	11.1443708609272				0.884026490066225	0.0354966887417219	0.149933774834437	-5.3682119205298	15.4519205298013	-2.01748344370861				0.431788079470199	-0.334834437086093	-0.708238410596026	-25.7396026490066	-5.16238410596027	32.005298013245			
103	2360	1.01584105960265	-0.0132450331125828	0.296476821192053	18.5133774834437	38.7753642384106	-1.46490066225166				0.944953642384106	-0.0482119205298013	0.269139072847682	3.51390728476821	11.7878145695364	0.25403973509934				0.933827814569536	-0.145271523178808	-0.13594701986755	-5.87258278145695	8.82649006622517	-1.04026490066225				0.320529801324503	-0.144529801324503	-0.853721854304636	8.08291390728477	34.9035761589404	13.9443708609272				0.900026490066225	0.0194966887417219	0.213933774834437	-9.2882119205298	13.7719205298013	-3.13748344370861				0.399788079470199	-0.302834437086093	-0.660238410596027	-6.69960264900662	-0.682384105960265	26.965298013245			
104	2380	0.999841059602649	0.0347549668874172	0.200476821192053	-5.28662251655629	36.5353642384106	-5.66490066225166				0.944953642384106	-0.0322119205298013	0.237139072847682	-9.36609271523179	14.5878145695364	0.53403973509934				0.933827814569536	-0.0972715231788079	-0.10394701986755	-8.95258278145695	4.06649006622517	-0.48026490066225				0.368529801324503	-0.112529801324503	-0.885721854304636	8.08291390728477	29.0235761589404	14.2243708609272				0.884026490066225	0.0194966887417219	0.213933774834437	-16.8482119205298	8.17192052980133	-3.69748344370861				0.415788079470199	-0.270834437086093	-0.676238410596026	4.50039735099338	6.03761589403974	19.965298013245			
105	2400	0.967841059602649	0.0187549668874172	0.104476821192053	-16.4866225165563	31.7753642384106	-6.50490066225166				0.960953642384106	-0.0162119205298013	0.205139072847682	-22.8060927152318	13.1878145695364	1.93403973509934				0.965827814569536	-0.0652715231788079	-0.0559470198675496	-9.23258278145695	6.30649006622517	0.35973509933775				0.496529801324503	-0.0805298013245033	-0.917721854304636	-7.03708609271523	6.6235761589404	9.74437086092715				0.916026490066225	0.0514966887417219	0.261933774834437	-11.8082119205298	3.41192052980132	-2.57748344370861				0.431788079470199	-0.318834437086093	-0.676238410596026	15.7003973509934	16.3976158940397	8.48529801324503			
106	2420	0.983841059602649	-0.0292450331125828	0.040476821192053	-14.5266225165563	27.0153642384106	-7.34490066225166				0.912953642384106	0.0637880794701987	0.173139072847682	-28.6860927152318	10.1078145695364	2.49403973509934				0.965827814569536	-0.0492715231788079	-0.0559470198675496	-8.67258278145695	5.46649006622517	0.63973509933775				0.592529801324503	-0.160529801324503	-0.917721854304636	-14.0370860927152	-13.8164238410596	3.86437086092715				0.948026490066225	0.0994966887417219	0.245933774834437	-12.6482119205298	-1.62807947019868	-1.45748344370861				0.447788079470199	-0.382834437086093	-0.724238410596026	22.7003973509934	17.7976158940397	-4.67470198675497			
107	2440	1.04784105960265	-0.0452450331125828	0.00847682119205304	-9.48662251655629	18.3353642384106	-7.06490066225166				0.944953642384106	0.127788079470199	0.173139072847682	-24.2060927152318	17.3878145695364	0.25403973509934				1.01382781456954	-0.0492715231788079	-0.0559470198675496	-6.43258278145695	3.22649006622517	0.35973509933775				0.592529801324503	-0.192529801324503	-0.869721854304636	-23.8370860927152	-24.7364238410596	-5.37562913907285				0.964026490066225	0.179496688741722	0.197933774834437	-12.6482119205298	-4.42807947019868	-2.29748344370861				0.447788079470199	-0.382834437086093	-0.740238410596026	18.5003973509934	13.8776158940397	-13.634701986755			
108	2460	1.04784105960265	-0.0452450331125828	0.00847682119205304	-12.2866225165563	3.4953642384106	-6.50490066225166				1.00895364238411	0.159788079470199	0.253139072847682	-6.84609271523179	19.0678145695364	5.29403973509934				1.01382781456954	-0.0332715231788079	-0.0719470198675496	2.80741721854305	1.54649006622517	-0.20026490066225				0.528529801324503	-0.128529801324503	-0.869721854304636	-25.2370860927152	-23.3364238410596	-5.65562913907285				0.980026490066225	0.179496688741722	0.245933774834437	-5.6482119205298	1.45192052980132	-3.97748344370861				0.463788079470199	-0.382834437086093	-0.804238410596027	10.1003973509934	8.27761589403974	-14.754701986755			
109	2480	1.03184105960265	-0.0132450331125828	0.088476821192053	-13.6866225165563	-5.7446357615894	-2.30490066225166				0.992953642384106	0.175788079470199	0.269139072847682	1.83390728476821	19.9078145695364	7.25403973509934				0.997827814569536	-0.0332715231788079	-0.0879470198675496	5.32741721854305	3.50649006622517	0.0797350993377501				0.448529801324503	-0.0805298013245033	-0.821721854304636	-19.3570860927152	-10.1764238410596	3.58437086092715				0.964026490066225	0.195496688741722	0.261933774834437	2.1917880794702	1.73192052980133	-3.13748344370861				0.479788079470199	-0.430834437086093	-0.836238410596026	7.30039735099338	3.23761589403974	-10.554701986755			
110	2500	0.983841059602649	0.0187549668874172	0.136476821192053	-6.12662251655629	-7.4246357615894	0.495099337748344				1.00895364238411	0.127788079470199	0.317139072847682	5.47390728476821	19.3478145695364	7.53403973509934				0.933827814569536	-0.0332715231788079	-0.13594701986755	3.92741721854305	7.14649006622517	1.47973509933775				0.416529801324503	-0.0965298013245033	-0.773721854304636	1.92291390728477	9.7035761589404	9.18437086092715				0.948026490066225	0.147496688741722	0.229933774834437	9.7517880794702	3.13192052980133	-2.29748344370861				0.463788079470199	-0.462834437086093	-0.804238410596027	6.46039735099338	-5.72238410596027	-3.27470198675497			
111	2520	0.951841059602649	0.0507549668874172	0.168476821192053	0.593377483443709	-6.0246357615894	-0.624900662251656				0.992953642384106	0.0637880794701987	0.285139072847682	6.87390728476821	12.9078145695364	8.09403973509934				0.917827814569536	-0.0492715231788079	-0.16794701986755	2.24741721854305	12.1864900662252	2.59973509933775				0.384529801324503	-0.0965298013245033	-0.773721854304636	10.8829139072848	17.8235761589404	8.06437086092715				0.932026490066225	0.0834966887417219	0.245933774834437	13.6717880794702	7.89192052980133	-2.01748344370861				0.463788079470199	-0.478834437086093	-0.772238410596026	0.580397350993377	-9.36238410596027	3.16529801324503			
112	2540	0.951841059602649	0.0347549668874172	0.184476821192053	3.95337748344371	-6.0246357615894	-2.02490066225166				0.976953642384106	0.0317880794701987	0.269139072847682	1.55390728476821	13.7478145695364	6.13403973509934				0.933827814569536	-0.0332715231788079	-0.18394701986755	0.287417218543046	17.2264900662252	2.59973509933775				0.336529801324503	-0.0645298013245033	-0.837721854304636	5.28291390728477	19.7835761589404	5.26437086092715				0.932026490066225	0.0674966887417219	0.261933774834437	10.3117880794702	9.29192052980133	-2.01748344370861				0.463788079470199	-0.462834437086093	-0.740238410596026	0.300397350993377	-7.12238410596027	6.24529801324503			
113	2560	0.967841059602649	0.00275496688741723	0.216476821192053	3.95337748344371	-1.8246357615894	-2.02490066225166				0.976953642384106	0.0157880794701987	0.237139072847682	0.433907284768212	13.1878145695364	4.17403973509934				0.965827814569536	-0.0332715231788079	-0.19994701986755	-3.35258278145695	18.0664900662252	1.47973509933775				0.352529801324503	-0.0805298013245033	-0.869721854304636	6.40291390728477	17.2635761589404	3.30437086092715				0.932026490066225	0.0674966887417219	0.229933774834437	4.9917880794702	11.5319205298013	-1.17748344370861				0.447788079470199	-0.430834437086093	-0.692238410596026	5.62039735099338	-4.60238410596027	6.24529801324503			
114	2580	0.967841059602649	0.00275496688741723	0.216476821192053	3.39337748344371	2.6553642384106	-1.74490066225166				0.992953642384106	-0.0162119205298013	0.237139072847682	-1.24609271523179	8.70781456953642	4.45403973509934				1.01382781456954	-0.0172715231788079	-0.21594701986755	-4.19258278145695	13.5864900662252	0.91973509933775				0.400529801324503	-0.128529801324503	-0.917721854304636	3.04291390728477	10.8235761589404	2.18437086092715				0.964026490066225	0.0514966887417219	0.213933774834437	3.8717880794702	11.5319205298013	-1.73748344370861				0.463788079470199	-0.414834437086093	-0.724238410596026	17.6603973509934	-2.08238410596027	3.16529801324503			
115	2600	0.967841059602649	0.0187549668874172	0.200476821192053	-1.64662251655629	5.4553642384106	-1.74490066225166				0.960953642384106	-0.000211920529801304	0.221139072847682	-4.60609271523179	7.86781456953642	5.57403973509934				0.981827814569536	-0.0652715231788079	-0.19994701986755	-3.35258278145695	6.30649006622517	-0.48026490066225				0.400529801324503	-0.144529801324503	-0.901721854304636	-1.15708609271523	5.7835761589404	3.30437086092715				0.964026490066225	0.0674966887417219	0.245933774834437	1.9117880794702	9.85192052980133	-0.337483443708608				0.479788079470199	-0.446834437086093	-0.692238410596026	30.2603973509934	-0.962384105960265	0.645298013245032			
116	2620	0.967841059602649	0.0187549668874172	0.184476821192053	-5.28662251655629	4.8953642384106	-1.74490066225166				0.976953642384106	0.0317880794701987	0.269139072847682	-5.16609271523179	7.86781456953642	3.61403973509934				0.933827814569536	-0.0332715231788079	-0.16794701986755	-0.272582781456954	1.54649006622517	-1.04026490066225				0.400529801324503	-0.160529801324503	-0.901721854304636	-3.95708609271523	-0.3764238410596	5.54437086092715				0.948026490066225	0.0834966887417219	0.213933774834437	-3.1282119205298	6.49192052980132	-0.617483443708608				0.495788079470199	-0.478834437086093	-0.692238410596026	24.6603973509934	-0.122384105960265	-3.83470198675497			
117	2640	0.983841059602649	0.0187549668874172	0.152476821192053	-6.12662251655629	4.6153642384106	-2.02490066225166				0.960953642384106	0.0797880794701987	0.221139072847682	-1.80609271523179	3.10781456953642	3.33403973509934				0.933827814569536	-0.0172715231788079	-0.13594701986755	-3.35258278145695	-2.93350993377483	-0.76026490066225				0.416529801324503	-0.160529801324503	-0.901721854304636	-7.31708609271523	-4.0164238410596	9.74437086092715				0.948026490066225	0.0834966887417219	0.213933774834437	-2.5682119205298	5.09192052980133	0.502516556291392				0.479788079470199	-0.510834437086093	-0.708238410596026	15.1403973509934	-2.64238410596027	-4.67470198675497			
118	2660	0.983841059602649	0.0187549668874172	0.120476821192053	-8.36662251655629	3.2153642384106	-3.14490066225166				0.976953642384106	0.0637880794701987	0.205139072847682	-0.406092715231788	4.78781456953642	3.61403973509934				0.965827814569536	-0.0172715231788079	-0.13594701986755	-1.11258278145695	-0.413509933774833	-0.48026490066225				0.400529801324503	-0.144529801324503	-0.885721854304636	-10.9570860927152	-6.5364238410596	10.5843708609272				0.948026490066225	0.0834966887417219	0.229933774834437	-3.4082119205298	6.77192052980133	0.782516556291392				0.447788079470199	-0.494834437086093	-0.740238410596026	7.86039735099338	-4.60238410596027	-0.754701986754968			
119	2680	0.983841059602649	0.0347549668874172	0.072476821192053	-9.76662251655629	2.0953642384106	-2.86490066225166				0.992953642384106	0.0477880794701987	0.189139072847682	-0.126092715231788	5.34781456953642	5.29403973509934				0.965827814569536	-0.0332715231788079	-0.13594701986755	5.60741721854305	-3.77350993377483	0.63973509933775				0.400529801324503	-0.112529801324503	-0.869721854304636	-11.7970860927152	-5.9764238410596	10.8643708609272				0.964026490066225	0.0994966887417219	0.229933774834437	-5.0882119205298	7.61192052980133	0.782516556291392				0.415788079470199	-0.462834437086093	-0.756238410596026	-2.49960264900662	-4.04238410596027	2.88529801324503			
120	2700	0.983841059602649	0.0187549668874172	0.072476821192053	-5.84662251655629	1.8153642384106	-2.02490066225166				0.992953642384106	0.0797880794701987	0.237139072847682	-0.126092715231788	6.18781456953642	4.17403973509934				0.965827814569536	-0.0332715231788079	-0.13594701986755	5.04741721854305	-0.693509933774834	0.35973509933775				0.416529801324503	-0.112529801324503	-0.869721854304636	-7.59708609271523	-2.6164238410596	10.8643708609272				0.980026490066225	0.115496688741722	0.213933774834437	-6.7682119205298	5.37192052980133	0.502516556291392				0.415788079470199	-0.414834437086093	-0.756238410596026	-1.65960264900662	-2.92238410596027	4.56529801324503			
121	2720	0.983841059602649	0.0187549668874172	0.104476821192053	-0.806622516556291	0.415364238410596	-0.904900662251656				0.976953642384106	0.0797880794701987	0.237139072847682	1.55390728476821	5.34781456953642	3.05403973509934				0.949827814569536	-0.0492715231788079	-0.15194701986755	1.40741721854305	1.26649006622517	0.0797350993377501				0.400529801324503	-0.112529801324503	-0.853721854304636	-3.39708609271523	2.1435761589404	10.0243708609272				0.964026490066225	0.115496688741722	0.181933774834437	-4.8082119205298	5.37192052980133	1.34251655629139				0.415788079470199	-0.398834437086093	-0.756238410596026	5.62039735099338	-2.36238410596027	2.88529801324503			
122	2740	0.967841059602649	0.00275496688741723	0.120476821192053	1.43337748344371	-0.704635761589404	-1.18490066225166				0.992953642384106	0.0637880794701987	0.269139072847682	1.83390728476821	8.70781456953642	3.89403973509934				0.949827814569536	-0.0492715231788079	-0.16794701986755	-1.95258278145695	2.94649006622517	1.19973509933775				0.384529801324503	-0.112529801324503	-0.885721854304636	0.802913907284768	3.5435761589404	7.50437086092715				0.964026490066225	0.0994966887417219	0.197933774834437	0.511788079470198	6.77192052980133	1.90251655629139				0.415788079470199	-0.414834437086093	-0.740238410596026	14.5803973509934	-6.28238410596027	1.48529801324503			
123	2760	0.967841059602649	-0.0132450331125828	0.120476821192053	-0.246622516556291	-0.704635761589404	-1.74490066225166				0.976953642384106	0.0477880794701987	0.205139072847682	-0.126092715231788	5.34781456953642	3.61403973509934				0.965827814569536	-0.0332715231788079	-0.16794701986755	-1.95258278145695	3.78649006622517	0.91973509933775				0.368529801324503	-0.144529801324503	-0.885721854304636	1.64291390728477	5.2235761589404	7.50437086092715				0.948026490066225	0.0674966887417219	0.229933774834437	2.7517880794702	6.21192052980133	0.782516556291392				0.399788079470199	-0.462834437086093	-0.740238410596026	10.9403973509934	-5.72238410596027	2.04529801324503			
124	2780	0.967841059602649	0.00275496688741723	0.104476821192053	-3.04662251655629	-0.424635761589404	-1.46490066225166				0.976953642384106	0.0477880794701987	0.221139072847682	-2.36609271523179	4.78781456953642	3.05403973509934				0.965827814569536	-0.0492715231788079	-0.16794701986755	-0.552582781456954	3.22649006622517	0.63973509933775				0.336529801324503	-0.160529801324503	-0.901721854304636	-1.99708609271523	4.3835761589404	6.94437086092715				0.948026490066225	0.0674966887417219	0.213933774834437	-5.0882119205298	4.81192052980133	0.782516556291392				0.399788079470199	-0.462834437086093	-0.740238410596026	0.300397350993377	-2.08238410596027	4.56529801324503			
125	2800	0.967841059602649	0.0187549668874172	0.120476821192053	-4.72662251655629	0.695364238410596	-1.18490066225166				0.976953642384106	0.0317880794701987	0.237139072847682	-2.36609271523179	3.66781456953642	3.89403973509934				0.949827814569536	-0.0492715231788079	-0.16794701986755	-1.95258278145695	2.94649006622517	1.47973509933775				0.336529801324503	-0.144529801324503	-0.885721854304636	-5.07708609271523	3.8235761589404	7.50437086092715				0.948026490066225	0.0514966887417219	0.197933774834437	-7.3282119205298	6.49192052980132	0.222516556291392				0.399788079470199	-0.446834437086093	-0.708238410596026	-6.13960264900662	0.157615894039735	4.28529801324503			
126	2820	0.967841059602649	0.0187549668874172	0.120476821192053	-4.16662251655629	2.3753642384106	-1.74490066225166				0.976953642384106	0.0317880794701987	0.253139072847682	-6.28609271523179	5.62781456953642	1.93403973509934				0.949827814569536	-0.0492715231788079	-0.16794701986755	-6.71258278145695	2.66649006622517	2.03973509933775				0.320529801324503	-0.128529801324503	-0.885721854304636	1.64291390728477	6.3435761589404	8.62437086092715				0.948026490066225	0.0674966887417219	0.197933774834437	-7.8882119205298	7.05192052980133	-0.617483443708608				0.415788079470199	-0.430834437086093	-0.740238410596026	-5.01960264900662	2.11761589403974	0.0852980132450323			
127	2840	0.967841059602649	0.0347549668874172	0.120476821192053	-2.76662251655629	1.8153642384106	-1.18490066225166				0.960953642384106	0.0317880794701987	0.237139072847682	-3.20609271523179	4.78781456953642	1.65403973509934				0.949827814569536	-0.0332715231788079	-0.16794701986755	-6.71258278145695	1.26649006622517	1.47973509933775				0.336529801324503	-0.144529801324503	-0.853721854304636	1.08291390728477	7.1835761589404	8.90437086092715				0.916026490066225	0.0674966887417219	0.197933774834437	-7.3282119205298	6.77192052980133	0.222516556291392				0.415788079470199	-0.398834437086093	-0.756238410596026	4.22039735099338	1.27761589403974	-2.99470198675497			
128	2860	0.983841059602649	0.0347549668874172	0.120476821192053	-1.64662251655629	0.975364238410596	-0.904900662251656				0.944953642384106	0.0317880794701987	0.221139072847682	-0.406092715231788	3.94781456953642	2.21403973509934				0.949827814569536	-0.0492715231788079	-0.15194701986755	-5.87258278145695	-1.25350993377483	2.31973509933775				0.368529801324503	-0.128529801324503	-0.869721854304636	0.802913907284768	5.2235761589404	8.90437086092715				0.932026490066225	0.0674966887417219	0.213933774834437	-7.0482119205298	7.33192052980133	1.06251655629139				0.383788079470199	-0.430834437086093	-0.756238410596026	9.26039735099338	-0.962384105960265	-2.43470198675497			
129	2880	0.983841059602649	0.0347549668874172	0.152476821192053	-3.04662251655629	-0.144635761589404	-0.624900662251656				0.944953642384106	0.0477880794701987	0.237139072847682	-0.406092715231788	7.02781456953642	1.37403973509934				0.965827814569536	-0.0332715231788079	-0.16794701986755	-6.15258278145695	-3.49350993377483	2.59973509933775				0.400529801324503	-0.144529801324503	-0.869721854304636	2.48291390728477	4.9435761589404	8.62437086092715				0.948026490066225	0.0834966887417219	0.229933774834437	-5.9282119205298	3.69192052980133	0.222516556291392				0.383788079470199	-0.446834437086093	-0.772238410596026	10.1003973509934	0.997615894039735	-1.03470198675497			
130	2900	0.967841059602649	0.0187549668874172	0.152476821192053	-3.04662251655629	-0.144635761589404	-1.18490066225166				0.960953642384106	0.0637880794701987	0.237139072847682	1.55390728476821	11.5078145695364	1.65403973509934				0.965827814569536	-0.0332715231788079	-0.16794701986755	-3.63258278145695	-5.73350993377484	2.59973509933775				0.416529801324503	-0.144529801324503	-0.869721854304636	2.76291390728477	5.5035761589404	5.82437086092715				0.932026490066225	0.0994966887417219	0.197933774834437	-6.2082119205298	3.97192052980133	0.222516556291392				0.383788079470199	-0.430834437086093	-0.756238410596026	10.1003973509934	3.51761589403974	1.76529801324503			
131	2920	0.967841059602649	-0.0132450331125828	0.168476821192053	-1.92662251655629	-0.704635761589404	-1.46490066225166				0.976953642384106	0.0477880794701987	0.237139072847682	0.153907284768212	13.1878145695364	1.93403973509934				0.949827814569536	-0.00127152317880793	-0.16794701986755	-0.832582781456954	-5.73350993377484	-0.48026490066225				0.432529801324503	-0.128529801324503	-0.885721854304636	1.36291390728477	4.3835761589404	3.86437086092715				0.932026490066225	0.0994966887417219	0.229933774834437	1.3517880794702	6.21192052980133	0.502516556291392				0.399788079470199	-0.430834437086093	-0.772238410596026	8.14039735099338	1.27761589403974	2.32529801324503			
132	2940	0.967841059602649	0.00275496688741723	0.152476821192053	-0.806622516556291	-0.144635761589404	-1.74490066225166				0.960953642384106	0.0477880794701987	0.253139072847682	-0.966092715231788	9.82781456953643	1.09403973509934				0.965827814569536	-0.0172715231788079	-0.15194701986755	1.12741721854305	-4.89350993377483	-0.48026490066225				0.416529801324503	-0.144529801324503	-0.885721854304636	0.242913907284768	3.8235761589404	1.90437086092715				0.948026490066225	0.0994966887417219	0.229933774834437	2.7517880794702	5.65192052980133	1.06251655629139				0.415788079470199	-0.430834437086093	-0.772238410596026	7.02039735099338	-2.36238410596027	3.72529801324503			
133	2960	0	0	0	0	0	0				0	0	0	0	0	0				0	0	0	0	0	0				0	0	0	0	0	0				0	0	0	0	0	0				0.447788079470199	-0.350834437086093	-0.740238410596026	-67.7396026490066	7.43761589403974	1.20529801324503			
134	2980	0	0	0	0	0	0				0	0	0	0	0	0				0	0	0	0	0	0				0.240529801324503	-0.272529801324503	-0.725721854304636	19.8429139072848	-7.0964238410596	27.9443708609272				0.852026490066225	0.0674966887417219	0.00593377483443711	-9.5682119205298	-32.1480794701987	4.14251655629139				0.495788079470199	-0.270834437086093	-0.724238410596026	-57.0996026490066	0.717615894039735	-1.03470198675497			
135	3000	0	0	0	0	0	0				0	0	0	0	0	0				0	0	0	0	0	0				0.192529801324503	-0.272529801324503	-0.773721854304636	18.1629139072848	4.1035761589404	25.7043708609272				0.788026490066225	0.00349668874172187	0.0859337748344371	-2.8482119205298	-23.4680794701987	5.54251655629139				0.495788079470199	-0.302834437086093	-0.756238410596026	-32.4596026490066	-11.3223841059603	-2.71470198675497			
