No	Time	12-AccX	12-AccY	12-AccZ	12-GyroX	12-GyroY	12-GyroZ	13-AccX	13-AccY	13-AccZ	13-GyroX	13-GyroY	13-GyroZ	14-AccX	14-AccY	14-AccZ	14-GyroX	14-GyroY	14-GyroZ	15-AccX	15-AccY	15-AccZ	15-GyroX	15-GyroY	15-GyroZ	16-AccX	16-AccY	16-AccZ	16-GyroX	16-GyroY	16-GyroZ	17-AccX	17-AccY	17-AccZ	17-GyroX	17-GyroY	17-GyroZ
0	100	-0.232158940397351	0.0987549668874172	-0.951523178807947	-0.806622516556291	0.695364238410596	-1.18490066225166				0.944953642384106	0.0957880794701987	0.317139072847682	1.55390728476821	0.307814569536424	0.53403973509934				-0.250172185430464	-0.0972715231788079	-0.87194701986755	0.847417218543046	0.146490066225167	0.0797350993377501				0	0	0	0	0	0				0	0	0	0	0	0				0	0	0	0	0	0			
1	120	-0.232158940397351	0.0987549668874172	-0.935523178807947	0.593377483443709	0.135364238410596	-0.904900662251656				0.944953642384106	0.0797880794701987	0.317139072847682	0.993907284768212	1.98781456953642	0.53403973509934				-0.266172185430464	-0.0972715231788079	-0.88794701986755	0.00741721854304636	0.426490066225167	0.35973509933775				0	0	0	0	0	0				0.948026490066225	0.147496688741722	0.149933774834437	1.3517880794702	-0.788079470198675	-0.897483443708608				0	0	0	0	0	0			
2	140	-0.216158940397351	0.0987549668874172	-0.935523178807947	1.15337748344371	0.415364238410596	-0.904900662251656				0.944953642384106	0.0797880794701987	0.333139072847682	1.27390728476821	3.66781456953642	0.81403973509934				-0.234172185430464	-0.0812715231788079	-0.87194701986755	0.287417218543046	0.426490066225167	-0.20026490066225				0.304529801324503	-0.0965298013245033	-0.917721854304636	-0.597086092715232	-0.3764238410596	-1.45562913907285				0.932026490066225	0.147496688741722	0.165933774834437	1.9117880794702	0.0519205298013249	-0.617483443708608				0.367788079470199	-0.222834437086093	-0.852238410596026	0.0203973509933773	-0.122384105960265	-1.31470198675497			
3	160	-0.216158940397351	0.0987549668874172	-0.935523178807947	0.0333774834437086	-0.144635761589404	-0.624900662251656				0.944953642384106	0.0797880794701987	0.333139072847682	-0.126092715231788	3.38781456953642	0.81403973509934				-0.250172185430464	-0.0972715231788079	-0.87194701986755	1.12741721854305	0.426490066225167	-0.48026490066225				0.304529801324503	-0.0965298013245033	-0.917721854304636	-0.877086092715232	-0.0964238410596001	-1.17562913907285				0.948026490066225	0.147496688741722	0.165933774834437	0.511788079470198	0.611920529801325	-0.617483443708608				0.367788079470199	-0.206834437086093	-0.852238410596026	0.300397350993377	-0.682384105960265	-1.03470198675497			
4	180	-0.216158940397351	0.0987549668874172	-0.935523178807947	-0.246622516556291	-0.144635761589404	-0.904900662251656				0.944953642384106	0.0797880794701987	0.349139072847682	0.153907284768212	1.42781456953642	-0.0259602649006601				-0.250172185430464	-0.0972715231788079	-0.87194701986755	0.567417218543046	0.426490066225167	-0.76026490066225				0.336529801324503	-0.0965298013245033	-0.901721854304636	0.242913907284768	0.1835761589404	-0.615629139072848				0.964026490066225	0.147496688741722	0.149933774834437	1.0717880794702	0.331920529801325	-0.897483443708608				0.367788079470199	-0.206834437086093	-0.852238410596026	1.42039735099338	-1.52238410596026	-1.87470198675497			
5	200	-0.216158940397351	0.0987549668874172	-0.951523178807947	-0.526622516556291	-0.144635761589404	-1.46490066225166				0.944953642384106	0.0797880794701987	0.317139072847682	-0.406092715231788	2.82781456953642	-0.0259602649006601				-0.250172185430464	-0.0972715231788079	-0.87194701986755	0.287417218543046	-0.133509933774833	-0.76026490066225				0.320529801324503	-0.0965298013245033	-0.901721854304636	-0.0370860927152318	-0.3764238410596	-0.335629139072848				0.932026490066225	0.147496688741722	0.165933774834437	0.791788079470198	0.891920529801325	-0.337483443708608				0.367788079470199	-0.206834437086093	-0.868238410596026	1.14039735099338	-1.24238410596026	-0.754701986754968			
6	220	-0.232158940397351	0.0987549668874172	-0.951523178807947	0.593377483443709	0.695364238410596	-0.344900662251656				0.944953642384106	0.0797880794701987	0.349139072847682	-1.24609271523179	3.94781456953642	-0.0259602649006601				-0.250172185430464	-0.0972715231788079	-0.88794701986755	0.567417218543046	-0.693509933774834	0.0797350993377501				0.304529801324503	-0.0965298013245033	-0.917721854304636	-0.597086092715232	-1.4964238410596	-0.895629139072848				0.948026490066225	0.147496688741722	0.165933774834437	-0.608211920529802	0.331920529801325	-0.0574834437086077				0.367788079470199	-0.222834437086093	-0.852238410596026	0.860397350993377	-0.962384105960265	-1.31470198675497			
7	240	-0.232158940397351	0.114754966887417	-0.935523178807947	0.313377483443709	-0.144635761589404	-0.904900662251656				0.960953642384106	0.0797880794701987	0.333139072847682	0.433907284768212	2.26781456953642	-0.30596026490066				-0.250172185430464	-0.0812715231788079	-0.87194701986755	0.287417218543046	0.426490066225167	-0.20026490066225				0.320529801324503	-0.112529801324503	-0.917721854304636	-0.597086092715232	-0.6564238410596	-0.615629139072848				0.948026490066225	0.147496688741722	0.165933774834437	2.1917880794702	0.891920529801325	-0.0574834437086077				0.367788079470199	-0.206834437086093	-0.852238410596026	0.300397350993377	0.157615894039735	-1.59470198675497			
8	260	-0.232158940397351	0.114754966887417	-0.935523178807947	-0.526622516556291	0.135364238410596	-1.74490066225166				0.944953642384106	0.0797880794701987	0.349139072847682	0.993907284768212	1.14781456953642	0.25403973509934				-0.266172185430464	-0.113271523178808	-0.88794701986755	0.847417218543046	0.146490066225167	-0.20026490066225				0.320529801324503	-0.0965298013245033	-0.933721854304636	-0.317086092715232	-1.4964238410596	0.224370860927152				0.964026490066225	0.163496688741722	0.165933774834437	0.231788079470198	0.611920529801325	-0.0574834437086077				0.367788079470199	-0.222834437086093	-0.852238410596026	1.14039735099338	-0.962384105960265	-1.31470198675497			
9	280	-0.232158940397351	0.114754966887417	-0.951523178807947	-0.526622516556291	0.135364238410596	-1.18490066225166				0.944953642384106	0.0957880794701987	0.349139072847682	0.433907284768212	0.0278145695364242	0.25403973509934				-0.250172185430464	-0.0972715231788079	-0.87194701986755	0.287417218543046	-0.413509933774833	-0.20026490066225				0.320529801324503	-0.0965298013245033	-0.901721854304636	-0.597086092715232	-0.9364238410596	0.504370860927152				0.948026490066225	0.163496688741722	0.165933774834437	-0.0482119205298018	0.331920529801325	0.222516556291392				0.367788079470199	-0.222834437086093	-0.852238410596026	1.42039735099338	-1.24238410596026	-1.03470198675497			
10	300	-0.232158940397351	0.0987549668874172	-0.951523178807947	0.873377483443709	0.135364238410596	-0.624900662251656				0.944953642384106	0.0957880794701987	0.333139072847682	-0.126092715231788	-0.532185430463576	0.25403973509934				-0.266172185430464	-0.0972715231788079	-0.87194701986755	-0.832582781456954	0.426490066225167	-0.20026490066225				0.304529801324503	-0.0805298013245033	-0.901721854304636	0.242913907284768	1.0235761589404	1.06437086092715				0.948026490066225	0.163496688741722	0.165933774834437	-0.0482119205298018	0.331920529801325	-0.337483443708608				0.367788079470199	-0.222834437086093	-0.852238410596026	-0.259602649006623	-0.962384105960265	0.0852980132450323			
11	320	-0.232158940397351	0.0987549668874172	-0.935523178807947	-0.526622516556291	0.415364238410596	-0.904900662251656				0.944953642384106	0.0797880794701987	0.333139072847682	-0.406092715231788	0.307814569536424	0.25403973509934				-0.266172185430464	-0.0972715231788079	-0.88794701986755	0.00741721854304636	0.146490066225167	0.35973509933775				0.320529801324503	-0.0805298013245033	-0.917721854304636	1.92291390728477	1.3035761589404	0.224370860927152				0.948026490066225	0.131496688741722	0.149933774834437	-0.888211920529802	-0.788079470198675	-0.337483443708608				0.367788079470199	-0.206834437086093	-0.852238410596026	-0.259602649006623	0.157615894039735	0.0852980132450323			
12	340	-0.232158940397351	0.114754966887417	-0.951523178807947	0.593377483443709	0.135364238410596	-0.904900662251656				0.960953642384106	0.0797880794701987	0.333139072847682	-0.966092715231788	-1.09218543046358	-0.0259602649006601				-0.266172185430464	-0.0972715231788079	-0.87194701986755	0.567417218543046	0.146490066225167	-0.48026490066225				0.320529801324503	-0.0965298013245033	-0.917721854304636	0.802913907284768	0.7435761589404	0.224370860927152				0.948026490066225	0.147496688741722	0.165933774834437	-0.328211920529802	-1.34807947019868	0.222516556291392				0.367788079470199	-0.206834437086093	-0.852238410596026	-0.259602649006623	1.55761589403974	-1.03470198675497			
13	360	-0.216158940397351	0.114754966887417	-0.951523178807947	0.0333774834437086	0.415364238410596	-1.18490066225166				0.944953642384106	0.0797880794701987	0.333139072847682	-0.966092715231788	-1.37218543046358	-0.86596026490066				-0.266172185430464	-0.0972715231788079	-0.88794701986755	1.40741721854305	0.986490066225167	0.63973509933775				0.320529801324503	-0.0965298013245033	-0.917721854304636	0.802913907284768	0.1835761589404	0.504370860927152				0.948026490066225	0.147496688741722	0.149933774834437	-0.608211920529802	-1.62807947019868	-0.337483443708608				0.367788079470199	-0.222834437086093	-0.852238410596026	1.14039735099338	0.997615894039735	-0.474701986754968			
14	380	-0.216158940397351	0.114754966887417	-0.935523178807947	-0.806622516556291	0.415364238410596	-0.344900662251656				0.944953642384106	0.0797880794701987	0.333139072847682	-1.24609271523179	-1.65218543046358	-0.0259602649006601				-0.266172185430464	-0.0972715231788079	-0.87194701986755	0.567417218543046	0.986490066225167	-0.20026490066225				0.320529801324503	-0.0965298013245033	-0.917721854304636	0.802913907284768	0.4635761589404	0.224370860927152				0.948026490066225	0.147496688741722	0.165933774834437	-1.4482119205298	-1.34807947019868	-0.0574834437086077				0.367788079470199	-0.222834437086093	-0.868238410596026	-1.09960264900662	0.437615894039735	-0.194701986754968			
15	400	-0.232158940397351	0.0987549668874172	-0.951523178807947	-4.44662251655629	0.135364238410596	-1.18490066225166				0.944953642384106	0.0797880794701987	0.317139072847682	-1.24609271523179	-0.532185430463576	-0.585960264900661				-0.250172185430464	-0.0972715231788079	-0.87194701986755	0.847417218543046	-0.133509933774833	-1.04026490066225				0.304529801324503	-0.0965298013245033	-0.917721854304636	0.802913907284768	0.7435761589404	-0.0556291390728476				0.948026490066225	0.147496688741722	0.149933774834437	-0.888211920529802	-2.18807947019868	0.782516556291392				0.367788079470199	-0.222834437086093	-0.868238410596026	-1.65960264900662	0.437615894039735	-0.754701986754968			
16	420	-0.216158940397351	0.0987549668874172	-0.951523178807947	0.593377483443709	-0.144635761589404	-0.624900662251656				0.944953642384106	0.0797880794701987	0.317139072847682	-1.52609271523179	0.307814569536424	-0.585960264900661				-0.250172185430464	-0.0972715231788079	-0.88794701986755	0.287417218543046	-0.413509933774833	-0.20026490066225				0.320529801324503	-0.112529801324503	-0.917721854304636	1.92291390728477	1.0235761589404	0.784370860927152				0.948026490066225	0.147496688741722	0.149933774834437	0.791788079470198	-1.34807947019868	0.222516556291392				0.367788079470199	-0.222834437086093	-0.852238410596026	-0.259602649006623	0.437615894039735	-0.474701986754968			
17	440	-0.232158940397351	0.0987549668874172	-0.935523178807947	0.313377483443709	-0.144635761589404	-0.904900662251656				0.960953642384106	0.0797880794701987	0.333139072847682	-1.80609271523179	1.98781456953642	-0.585960264900661				-0.266172185430464	-0.0972715231788079	-0.88794701986755	0.287417218543046	0.426490066225167	-0.48026490066225				0.304529801324503	-0.112529801324503	-0.901721854304636	1.36291390728477	0.7435761589404	0.504370860927152				0.948026490066225	0.147496688741722	0.149933774834437	-0.328211920529802	-1.90807947019868	0.502516556291392				0.351788079470199	-0.222834437086093	-0.868238410596026	-0.819602649006623	0.437615894039735	-1.31470198675497			
18	460	-0.232158940397351	0.114754966887417	-0.935523178807947	0.313377483443709	0.695364238410596	-0.624900662251656				0.944953642384106	0.0797880794701987	0.333139072847682	-1.80609271523179	2.26781456953642	-0.30596026490066				-0.250172185430464	-0.0972715231788079	-0.87194701986755	-0.272582781456954	0.146490066225167	0.0797350993377501				0.304529801324503	-0.0965298013245033	-0.917721854304636	1.64291390728477	0.4635761589404	0.784370860927152				0.948026490066225	0.147496688741722	0.149933774834437	-0.608211920529802	-2.46807947019868	0.782516556291392				0.351788079470199	-0.222834437086093	-0.852238410596026	0.0203973509933773	0.717615894039735	-1.03470198675497			
19	480	-0.232158940397351	0.114754966887417	-0.935523178807947	0.593377483443709	0.135364238410596	-0.904900662251656				0.944953642384106	0.0957880794701987	0.333139072847682	-1.24609271523179	0.587814569536424	-0.86596026490066				-0.250172185430464	-0.0972715231788079	-0.87194701986755	-0.552582781456954	0.146490066225167	-0.48026490066225				0.320529801324503	-0.112529801324503	-0.933721854304636	1.64291390728477	0.1835761589404	1.06437086092715				0.964026490066225	0.147496688741722	0.149933774834437	-0.328211920529802	0.891920529801325	0.782516556291392				0.351788079470199	-0.206834437086093	-0.868238410596026	-1.09960264900662	-0.122384105960265	-0.194701986754968			
20	500	-0.232158940397351	0.0987549668874172	-0.951523178807947	-0.246622516556291	0.135364238410596	-1.18490066225166				0.944953642384106	0.0797880794701987	0.333139072847682	-0.126092715231788	0.0278145695364242	-0.0259602649006601				-0.266172185430464	-0.0972715231788079	-0.87194701986755	-0.272582781456954	0.146490066225167	-0.20026490066225				0.320529801324503	-0.112529801324503	-0.933721854304636	1.08291390728477	-0.0964238410596001	1.34437086092715				0.948026490066225	0.147496688741722	0.133933774834437	-0.608211920529802	-1.90807947019868	0.782516556291392				0.367788079470199	-0.206834437086093	-0.868238410596026	-1.65960264900662	0.157615894039735	-0.754701986754968			
21	520	-0.216158940397351	0.114754966887417	-0.919523178807947	-3.88662251655629	0.975364238410596	-0.0649006622516557				0.944953642384106	0.0957880794701987	0.317139072847682	-0.686092715231788	0.867814569536424	-0.0259602649006601				-0.250172185430464	-0.0972715231788079	-0.88794701986755	1.40741721854305	0.426490066225167	-0.48026490066225				0.320529801324503	-0.0965298013245033	-0.917721854304636	0.802913907284768	0.1835761589404	0.504370860927152				0.964026490066225	0.131496688741722	0.149933774834437	0.511788079470198	-1.62807947019868	0.782516556291392				0.367788079470199	-0.222834437086093	-0.868238410596026	-0.539602649006623	-0.682384105960265	-1.31470198675497			
22	540	-0.216158940397351	0.0987549668874172	-0.935523178807947	-1.92662251655629	-0.424635761589404	-0.0649006622516557				0.944953642384106	0.0797880794701987	0.333139072847682	-3.48609271523179	1.98781456953642	-0.30596026490066				-0.250172185430464	-0.0972715231788079	-0.87194701986755	-0.272582781456954	0.706490066225167	-0.20026490066225				0.304529801324503	-0.0965298013245033	-0.917721854304636	-0.0370860927152318	-0.9364238410596	1.62437086092715				0.948026490066225	0.147496688741722	0.133933774834437	-2.0082119205298	-0.788079470198675	-0.337483443708608				0.351788079470199	-0.222834437086093	-0.852238410596026	-0.819602649006623	-0.122384105960265	-1.31470198675497			
23	560	-0.232158940397351	0.0987549668874172	-0.935523178807947	-0.806622516556291	-0.144635761589404	-0.904900662251656				0.960953642384106	0.0957880794701987	0.365139072847682	-0.406092715231788	-0.812185430463576	-0.86596026490066				-0.266172185430464	-0.0972715231788079	-0.87194701986755	-0.552582781456954	-0.413509933774833	0.0797350993377501				0.320529801324503	-0.0965298013245033	-0.917721854304636	0.522913907284768	-0.3764238410596	1.34437086092715				0.964026490066225	0.147496688741722	0.133933774834437	0.511788079470198	-1.62807947019868	0.502516556291392				0.351788079470199	-0.206834437086093	-0.852238410596026	-1.93960264900662	0.437615894039735	-0.754701986754968			
24	580	-0.248158940397351	0.0987549668874172	-0.935523178807947	0.0333774834437086	0.135364238410596	-1.18490066225166				0.960953642384106	0.0797880794701987	0.317139072847682	0.713907284768212	-0.252185430463576	-1.14596026490066				-0.266172185430464	-0.0972715231788079	-0.88794701986755	0.567417218543046	-0.693509933774834	-0.20026490066225				0.320529801324503	-0.112529801324503	-0.901721854304636	1.36291390728477	0.1835761589404	1.62437086092715				0.964026490066225	0.147496688741722	0.149933774834437	0.511788079470198	-0.788079470198675	1.06251655629139				0.367788079470199	-0.206834437086093	-0.868238410596026	-2.21960264900662	0.157615894039735	-0.754701986754968			
25	600	-0.232158940397351	0.0987549668874172	-0.935523178807947	-0.246622516556291	0.695364238410596	-1.46490066225166				0.944953642384106	0.0797880794701987	0.333139072847682	-0.686092715231788	0.867814569536424	-0.585960264900661				-0.266172185430464	-0.0972715231788079	-0.88794701986755	0.00741721854304636	0.426490066225167	0.35973509933775				0.304529801324503	-0.112529801324503	-0.917721854304636	0.802913907284768	1.3035761589404	1.90437086092715				0.964026490066225	0.147496688741722	0.133933774834437	0.511788079470198	-2.74807947019868	0.782516556291392				0.367788079470199	-0.222834437086093	-0.868238410596026	-1.37960264900662	0.437615894039735	-1.31470198675497			
26	620	-0.232158940397351	0.114754966887417	-0.935523178807947	0.593377483443709	0.415364238410596	-1.74490066225166				0.944953642384106	0.0797880794701987	0.333139072847682	-0.406092715231788	0.587814569536424	-0.585960264900661				-0.266172185430464	-0.0812715231788079	-0.87194701986755	0.567417218543046	0.986490066225167	0.0797350993377501				0.320529801324503	-0.0965298013245033	-0.917721854304636	1.08291390728477	1.5835761589404	0.784370860927152				0.964026490066225	0.147496688741722	0.149933774834437	0.511788079470198	-2.18807947019868	0.222516556291392				0.367788079470199	-0.206834437086093	-0.852238410596026	-1.09960264900662	0.997615894039735	-1.87470198675497			
27	640	-0.232158940397351	0.0987549668874172	-0.935523178807947	0.593377483443709	0.695364238410596	-1.74490066225166				0.944953642384106	0.0797880794701987	0.333139072847682	0.433907284768212	0.307814569536424	-0.30596026490066				-0.250172185430464	-0.0972715231788079	-0.87194701986755	-0.272582781456954	0.146490066225167	-0.48026490066225				0.320529801324503	-0.112529801324503	-0.933721854304636	1.92291390728477	0.4635761589404	0.504370860927152				0.964026490066225	0.131496688741722	0.149933774834437	1.0717880794702	-1.90807947019868	0.782516556291392				0.351788079470199	-0.206834437086093	-0.852238410596026	-1.09960264900662	0.997615894039735	-1.31470198675497			
28	660	-0.232158940397351	0.0987549668874172	-0.935523178807947	0.593377483443709	0.695364238410596	-1.46490066225166				0.944953642384106	0.0957880794701987	0.317139072847682	0.713907284768212	0.307814569536424	-0.86596026490066				-0.266172185430464	-0.0972715231788079	-0.87194701986755	-0.832582781456954	-0.133509933774833	0.0797350993377501				0.304529801324503	-0.128529801324503	-0.917721854304636	1.64291390728477	-0.0964238410596001	0.224370860927152				0.948026490066225	0.147496688741722	0.149933774834437	0.231788079470198	-2.18807947019868	0.222516556291392				0.351788079470199	-0.206834437086093	-0.852238410596026	-1.09960264900662	-0.122384105960265	-0.474701986754968			
29	680	-0.232158940397351	0.0987549668874172	-0.903523178807947	0.873377483443709	0.415364238410596	-1.74490066225166				0.960953642384106	0.0797880794701987	0.317139072847682	0.713907284768212	1.14781456953642	-0.0259602649006601				-0.266172185430464	-0.0972715231788079	-0.88794701986755	0.00741721854304636	0.706490066225167	-0.48026490066225				0.304529801324503	-0.128529801324503	-0.933721854304636	-0.0370860927152318	-1.2164238410596	0.784370860927152				0.948026490066225	0.147496688741722	0.149933774834437	-0.328211920529802	-3.02807947019868	-0.337483443708608				0.367788079470199	-0.222834437086093	-0.852238410596026	-1.65960264900662	-1.24238410596026	-0.474701986754968			
30	700	-0.232158940397351	0.0987549668874172	-0.935523178807947	0.593377483443709	0.695364238410596	-1.18490066225166				0.944953642384106	0.0957880794701987	0.333139072847682	0.153907284768212	1.70781456953642	-0.30596026490066				-0.266172185430464	-0.0972715231788079	-0.88794701986755	1.68741721854305	-0.133509933774833	-0.20026490066225				0.304529801324503	-0.0965298013245033	-0.901721854304636	-0.0370860927152318	-1.2164238410596	1.62437086092715				0.948026490066225	0.147496688741722	0.133933774834437	-1.4482119205298	-2.18807947019868	-0.0574834437086077				0.351788079470199	-0.206834437086093	-0.852238410596026	-1.65960264900662	-1.52238410596026	-0.754701986754968			
31	720	-0.216158940397351	0.0987549668874172	-0.935523178807947	0.873377483443709	0.135364238410596	-1.46490066225166				0.944953642384106	0.0957880794701987	0.333139072847682	-0.406092715231788	0.0278145695364242	-0.0259602649006601				-0.266172185430464	-0.0972715231788079	-0.85594701986755	0.847417218543046	0.706490066225167	0.35973509933775				0.304529801324503	-0.0965298013245033	-0.901721854304636	0.522913907284768	-0.0964238410596001	1.34437086092715				0.964026490066225	0.147496688741722	0.133933774834437	-0.608211920529802	-0.228079470198675	-0.617483443708608				0.351788079470199	-0.190834437086093	-0.852238410596026	-0.539602649006623	-0.402384105960265	-0.754701986754968			
32	740	-0.232158940397351	0.0987549668874172	-0.935523178807947	0.313377483443709	0.415364238410596	-0.904900662251656				0.944953642384106	0.0797880794701987	0.317139072847682	-0.406092715231788	1.42781456953642	-0.86596026490066				-0.250172185430464	-0.0812715231788079	-0.88794701986755	0.287417218543046	0.986490066225167	0.0797350993377501				0.288529801324503	-0.0965298013245033	-0.901721854304636	2.76291390728477	1.0235761589404	1.90437086092715				0.964026490066225	0.147496688741722	0.133933774834437	-0.888211920529802	-2.18807947019868	0.222516556291392				0.351788079470199	-0.206834437086093	-0.868238410596026	-0.819602649006623	0.997615894039735	-1.03470198675497			
33	760	-0.232158940397351	0.0987549668874172	-0.935523178807947	-0.246622516556291	0.415364238410596	-0.624900662251656				0.928953642384106	0.0957880794701987	0.333139072847682	-0.686092715231788	3.66781456953642	-1.42596026490066				-0.250172185430464	-0.0972715231788079	-0.87194701986755	-0.272582781456954	-0.413509933774833	-0.20026490066225				0.288529801324503	-0.112529801324503	-0.901721854304636	2.48291390728477	1.5835761589404	1.62437086092715				0.948026490066225	0.147496688741722	0.133933774834437	-2.0082119205298	-1.06807947019868	0.502516556291392				0.351788079470199	-0.206834437086093	-0.852238410596026	0.300397350993377	0.437615894039735	-1.03470198675497			
34	780	-0.232158940397351	0.0987549668874172	-0.951523178807947	-0.246622516556291	0.415364238410596	-0.904900662251656				0.944953642384106	0.0957880794701987	0.349139072847682	-0.406092715231788	2.26781456953642	-1.14596026490066				-0.266172185430464	-0.0972715231788079	-0.87194701986755	-0.552582781456954	0.146490066225167	-0.48026490066225				0.304529801324503	-0.112529801324503	-0.917721854304636	1.08291390728477	0.7435761589404	1.34437086092715				0.948026490066225	0.147496688741722	0.133933774834437	-0.888211920529802	-2.18807947019868	-0.0574834437086077				0.351788079470199	-0.222834437086093	-0.868238410596026	-0.819602649006623	-0.682384105960265	-1.87470198675497			
35	800	-0.216158940397351	0.0987549668874172	-0.951523178807947	0.313377483443709	0.415364238410596	-0.344900662251656				0.960953642384106	0.0957880794701987	0.333139072847682	-0.126092715231788	1.42781456953642	-0.0259602649006601				-0.250172185430464	-0.0812715231788079	-0.87194701986755	0.287417218543046	1.26649006622517	0.0797350993377501				0.304529801324503	-0.112529801324503	-0.917721854304636	-1.71708609271523	-0.9364238410596	0.224370860927152				0.964026490066225	0.131496688741722	0.133933774834437	-1.7282119205298	-0.508079470198675	-0.337483443708608				0.351788079470199	-0.206834437086093	-0.868238410596026	-0.819602649006623	-0.962384105960265	-0.754701986754968			
36	820	-0.232158940397351	0.0987549668874172	-0.935523178807947	-0.526622516556291	-0.144635761589404	-0.904900662251656				0.960953642384106	0.0957880794701987	0.333139072847682	-0.686092715231788	0.307814569536424	-0.0259602649006601				-0.250172185430464	-0.0812715231788079	-0.87194701986755	1.12741721854305	-0.133509933774833	0.35973509933775				0.320529801324503	-0.0965298013245033	-0.917721854304636	0.242913907284768	-0.9364238410596	1.06437086092715				0.964026490066225	0.147496688741722	0.133933774834437	-2.0082119205298	-0.788079470198675	0.222516556291392				0.367788079470199	-0.206834437086093	-0.868238410596026	-0.539602649006623	0.157615894039735	-0.194701986754968			
37	840	-0.232158940397351	0.114754966887417	-0.935523178807947	0.0333774834437086	0.695364238410596	-0.624900662251656				0.944953642384106	0.0957880794701987	0.333139072847682	0.713907284768212	0.587814569536424	-0.0259602649006601				-0.250172185430464	-0.0972715231788079	-0.88794701986755	0.567417218543046	0.706490066225167	-0.20026490066225				0.320529801324503	-0.0965298013245033	-0.917721854304636	-0.0370860927152318	-0.6564238410596	0.784370860927152				0.964026490066225	0.147496688741722	0.133933774834437	-1.4482119205298	-1.34807947019868	-0.0574834437086077				0.367788079470199	-0.206834437086093	-0.868238410596026	-1.09960264900662	0.437615894039735	-0.194701986754968			
38	860	-0.232158940397351	0.0987549668874172	-0.935523178807947	0.313377483443709	0.415364238410596	-0.904900662251656				0.944953642384106	0.0797880794701987	0.333139072847682	0.433907284768212	2.54781456953642	-0.585960264900661				-0.266172185430464	-0.0812715231788079	-0.87194701986755	0.847417218543046	0.426490066225167	0.0797350993377501				0.304529801324503	-0.112529801324503	-0.917721854304636	-0.597086092715232	-0.9364238410596	1.06437086092715				0.948026490066225	0.147496688741722	0.133933774834437	-1.4482119205298	-2.74807947019868	0.502516556291392				0.351788079470199	-0.190834437086093	-0.868238410596026	-0.819602649006623	0.717615894039735	0.0852980132450323			
39	880	-0.232158940397351	0.0987549668874172	-0.951523178807947	-1.08662251655629	0.695364238410596	-0.904900662251656				0.944953642384106	0.0957880794701987	0.349139072847682	-0.686092715231788	4.22781456953642	-0.0259602649006601				-0.266172185430464	-0.0812715231788079	-0.87194701986755	0.567417218543046	0.706490066225167	0.0797350993377501				0.304529801324503	-0.112529801324503	-0.901721854304636	-1.15708609271523	-0.6564238410596	1.34437086092715				0.948026490066225	0.147496688741722	0.133933774834437	-1.7282119205298	-2.46807947019868	1.06251655629139				0.351788079470199	-0.206834437086093	-0.852238410596026	0.300397350993377	-1.24238410596026	-0.194701986754968			
40	900	-0.216158940397351	0.0987549668874172	-0.935523178807947	0.0333774834437086	0.695364238410596	-1.18490066225166				0.944953642384106	0.0957880794701987	0.349139072847682	-0.126092715231788	1.70781456953642	0.25403973509934				-0.266172185430464	-0.0812715231788079	-0.87194701986755	0.287417218543046	0.146490066225167	-0.48026490066225				0.304529801324503	-0.0965298013245033	-0.901721854304636	-0.0370860927152318	0.4635761589404	1.62437086092715				0.948026490066225	0.147496688741722	0.133933774834437	-2.0082119205298	-1.90807947019868	-0.0574834437086077				0.351788079470199	-0.206834437086093	-0.868238410596026	-0.259602649006623	-0.962384105960265	0.365298013245032			
41	920	-0.232158940397351	0.0987549668874172	-0.951523178807947	0.313377483443709	0.415364238410596	-1.18490066225166				0.944953642384106	0.0797880794701987	0.333139072847682	0.433907284768212	-0.252185430463576	0.25403973509934				-0.266172185430464	-0.0972715231788079	-0.87194701986755	1.12741721854305	0.146490066225167	-0.20026490066225				0.304529801324503	-0.112529801324503	-0.917721854304636	1.08291390728477	0.1835761589404	1.90437086092715				0.964026490066225	0.147496688741722	0.133933774834437	-2.2882119205298	-1.62807947019868	-0.617483443708608				0.367788079470199	-0.206834437086093	-0.868238410596026	-1.09960264900662	-1.52238410596026	0.925298013245032			
42	940	-0.216158940397351	0.0987549668874172	-0.935523178807947	-0.526622516556291	0.135364238410596	-0.624900662251656				0.928953642384106	0.0797880794701987	0.333139072847682	0.153907284768212	1.42781456953642	0.53403973509934				-0.250172185430464	-0.0812715231788079	-0.87194701986755	1.12741721854305	0.426490066225167	-0.76026490066225				0.304529801324503	-0.112529801324503	-0.917721854304636	0.522913907284768	-0.9364238410596	1.06437086092715				0	0	0	0	0	0				0	0	0	0	0	0			
43	1060	-0.232158940397351	0.0987549668874172	-0.919523178807947	-0.246622516556291	0.135364238410596	-0.904900662251656				0.944953642384106	0.0957880794701987	0.333139072847682	-1.52609271523179	3.66781456953642	0.25403973509934				-0.250172185430464	-0.0812715231788079	-0.88794701986755	-0.272582781456954	0.426490066225167	0.0797350993377501				0	0	0	0	0	0				0	0	0	0	0	0				0	0	0	0	0	0			
44	1080	-0.216158940397351	0.0987549668874172	-0.935523178807947	0.313377483443709	0.695364238410596	-1.74490066225166				0.944953642384106	0.0957880794701987	0.349139072847682	-3.20609271523179	4.78781456953642	1.09403973509934				-0.250172185430464	-0.0972715231788079	-0.87194701986755	0.567417218543046	0.146490066225167	0.35973509933775				0.320529801324503	-0.0965298013245033	-0.917721854304636	-0.597086092715232	-0.6564238410596	0.224370860927152				0.948026490066225	0.131496688741722	0.133933774834437	-2.0082119205298	-0.228079470198675	-1.17748344370861				0.351788079470199	-0.206834437086093	-0.852238410596026	-0.539602649006623	0.157615894039735	-0.194701986754968			
45	1100	-0.232158940397351	0.114754966887417	-0.935523178807947	0.593377483443709	-0.144635761589404	-0.344900662251656				0.944953642384106	0.0957880794701987	0.365139072847682	-2.08609271523179	3.38781456953642	0.81403973509934				-0.266172185430464	-0.0972715231788079	-0.87194701986755	-0.272582781456954	0.146490066225167	0.35973509933775				0.304529801324503	-0.112529801324503	-0.917721854304636	-1.43708609271523	-0.9364238410596	0.504370860927152				0.964026490066225	0.147496688741722	0.133933774834437	-0.888211920529802	0.0519205298013249	-0.337483443708608				0.351788079470199	-0.206834437086093	-0.868238410596026	-0.259602649006623	0.157615894039735	0.365298013245032			
46	1120	-0.232158940397351	0.114754966887417	-0.951523178807947	0.313377483443709	-0.144635761589404	-1.18490066225166				0.960953642384106	0.0797880794701987	0.349139072847682	0.433907284768212	1.98781456953642	0.53403973509934				-0.266172185430464	-0.0972715231788079	-0.88794701986755	0.00741721854304636	-0.693509933774834	-0.48026490066225				0.320529801324503	-0.0965298013245033	-0.917721854304636	-1.15708609271523	1.3035761589404	1.62437086092715				0.964026490066225	0.147496688741722	0.149933774834437	0.231788079470198	-0.508079470198675	-0.337483443708608				0.367788079470199	-0.206834437086093	-0.868238410596026	-1.93960264900662	1.27761589403974	-0.754701986754968			
47	1140	-0.232158940397351	0.114754966887417	-0.935523178807947	-1.08662251655629	0.135364238410596	-1.46490066225166				0.944953642384106	0.0957880794701987	0.349139072847682	-0.686092715231788	2.82781456953642	-0.0259602649006601				-0.266172185430464	-0.0972715231788079	-0.88794701986755	0.567417218543046	0.146490066225167	-0.20026490066225				0.320529801324503	-0.0805298013245033	-0.901721854304636	-1.15708609271523	1.0235761589404	1.06437086092715				0.964026490066225	0.147496688741722	0.133933774834437	0.231788079470198	-0.228079470198675	0.782516556291392				0.383788079470199	-0.206834437086093	-0.884238410596026	-0.819602649006623	2.11761589403974	-0.754701986754968			
48	1160	-0.216158940397351	0.0987549668874172	-0.935523178807947	0.873377483443709	0.975364238410596	-1.18490066225166				0.944953642384106	0.0957880794701987	0.349139072847682	-2.08609271523179	1.42781456953642	0.81403973509934				-0.266172185430464	-0.0812715231788079	-0.87194701986755	0.567417218543046	1.26649006622517	0.35973509933775				0.320529801324503	-0.112529801324503	-0.917721854304636	0.802913907284768	1.3035761589404	1.34437086092715				0.964026490066225	0.147496688741722	0.149933774834437	-0.328211920529802	-0.228079470198675	0.222516556291392				0.367788079470199	-0.206834437086093	-0.868238410596026	0.300397350993377	2.11761589403974	-0.754701986754968			
49	1180	-0.216158940397351	0.0987549668874172	-0.935523178807947	0.593377483443709	0.415364238410596	-0.904900662251656				0.928953642384106	0.0957880794701987	0.365139072847682	-0.406092715231788	-0.252185430463576	1.09403973509934				-0.250172185430464	-0.0812715231788079	-0.87194701986755	0.567417218543046	0.426490066225167	-0.48026490066225				0.320529801324503	-0.112529801324503	-0.933721854304636	1.64291390728477	1.8635761589404	1.34437086092715				0.964026490066225	0.147496688741722	0.149933774834437	0.231788079470198	-0.508079470198675	-0.0574834437086077				0.367788079470199	-0.206834437086093	-0.852238410596026	-1.37960264900662	0.997615894039735	-0.474701986754968			
50	1200	-0.232158940397351	0.0987549668874172	-0.935523178807947	-0.246622516556291	0.135364238410596	-1.46490066225166				0.928953642384106	0.0797880794701987	0.349139072847682	1.55390728476821	-1.37218543046358	0.81403973509934				-0.250172185430464	-0.0972715231788079	-0.88794701986755	1.12741721854305	0.146490066225167	-0.20026490066225				0.320529801324503	-0.112529801324503	-0.917721854304636	-0.0370860927152318	0.7435761589404	0.504370860927152				0.948026490066225	0.131496688741722	0.133933774834437	-0.0482119205298018	-0.788079470198675	-0.337483443708608				0.367788079470199	-0.206834437086093	-0.852238410596026	-1.09960264900662	-0.122384105960265	-0.194701986754968			
51	1220	-0.232158940397351	0.0987549668874172	-0.935523178807947	0.593377483443709	-0.144635761589404	-1.46490066225166				0.944953642384106	0.0957880794701987	0.349139072847682	1.27390728476821	-0.812185430463576	0.81403973509934				-0.266172185430464	-0.0812715231788079	-0.88794701986755	-0.272582781456954	-0.133509933774833	-0.76026490066225				0.320529801324503	-0.112529801324503	-0.901721854304636	-1.15708609271523	-1.2164238410596	0.784370860927152				0.932026490066225	0.131496688741722	0.149933774834437	0.791788079470198	-0.508079470198675	-0.0574834437086077				0.367788079470199	-0.190834437086093	-0.836238410596026	0.0203973509933773	-1.24238410596026	-0.194701986754968			
52	1240	-0.232158940397351	0.0987549668874172	-0.935523178807947	0.313377483443709	0.135364238410596	-1.18490066225166				0.928953642384106	0.0957880794701987	0.349139072847682	-0.686092715231788	0.307814569536424	0.25403973509934				-0.266172185430464	-0.0812715231788079	-0.88794701986755	-0.272582781456954	0.986490066225167	-0.20026490066225				0.304529801324503	-0.0965298013245033	-0.901721854304636	-1.43708609271523	-1.7764238410596	1.34437086092715				0.948026490066225	0.131496688741722	0.133933774834437	0.511788079470198	-0.508079470198675	0.502516556291392				0.351788079470199	-0.206834437086093	-0.852238410596026	-0.819602649006623	-0.122384105960265	0.0852980132450323			
53	1260	-0.232158940397351	0.0987549668874172	-0.935523178807947	-0.246622516556291	0.415364238410596	-0.624900662251656				0.944953642384106	0.0797880794701987	0.349139072847682	-0.966092715231788	1.14781456953642	0.53403973509934				-0.266172185430464	-0.0972715231788079	-0.87194701986755	1.12741721854305	0.146490066225167	-0.48026490066225				0.304529801324503	-0.0965298013245033	-0.901721854304636	-0.877086092715232	-1.2164238410596	1.06437086092715				0.948026490066225	0.131496688741722	0.133933774834437	0.231788079470198	-0.508079470198675	-0.897483443708608				0.351788079470199	-0.190834437086093	-0.852238410596026	-0.259602649006623	-0.122384105960265	-0.194701986754968			
54	1280	-0.232158940397351	0.114754966887417	-0.935523178807947	-0.806622516556291	-0.144635761589404	-0.624900662251656				0.928953642384106	0.0797880794701987	0.365139072847682	0.713907284768212	0.307814569536424	0.81403973509934				-0.250172185430464	-0.0972715231788079	-0.87194701986755	1.40741721854305	0.426490066225167	-0.76026490066225				0.304529801324503	-0.112529801324503	-0.917721854304636	1.08291390728477	1.0235761589404	1.90437086092715				0.948026490066225	0.131496688741722	0.133933774834437	-0.888211920529802	-1.62807947019868	-0.617483443708608				0.367788079470199	-0.190834437086093	-0.868238410596026	-0.819602649006623	0.437615894039735	-1.59470198675497			
55	1300	-0.232158940397351	0.0987549668874172	-0.951523178807947	0.593377483443709	0.135364238410596	-0.904900662251656				0.928953642384106	0.0797880794701987	0.349139072847682	0.713907284768212	0.587814569536424	0.53403973509934				-0.250172185430464	-0.0972715231788079	-0.87194701986755	0.567417218543046	1.26649006622517	-0.48026490066225				0.304529801324503	-0.112529801324503	-0.917721854304636	0.802913907284768	1.0235761589404	1.06437086092715				0.948026490066225	0.147496688741722	0.149933774834437	-0.0482119205298018	0.331920529801325	-1.17748344370861				0.351788079470199	-0.190834437086093	-0.868238410596026	1.70039735099338	-0.122384105960265	-1.87470198675497			
56	1320	-0.232158940397351	0.0987549668874172	-0.951523178807947	0.313377483443709	0.415364238410596	-0.624900662251656				0.944953642384106	0.0957880794701987	0.365139072847682	1.55390728476821	2.26781456953642	0.53403973509934				-0.266172185430464	-0.0972715231788079	-0.88794701986755	-0.272582781456954	0.426490066225167	0.35973509933775				0.304529801324503	-0.0805298013245033	-0.917721854304636	0.522913907284768	1.5835761589404	-4.25562913907285				0.948026490066225	0.147496688741722	0.149933774834437	0.231788079470198	0.611920529801325	-1.45748344370861				0.351788079470199	-0.206834437086093	-0.868238410596026	0.580397350993377	-0.402384105960265	-2.43470198675497			
57	1340	-0.232158940397351	0.114754966887417	-0.935523178807947	-0.806622516556291	0.415364238410596	-0.344900662251656				0.944953642384106	0.0957880794701987	0.349139072847682	0.433907284768212	1.70781456953642	0.25403973509934				-0.250172185430464	-0.0972715231788079	-0.88794701986755	0.847417218543046	-0.133509933774833	-0.48026490066225				0.304529801324503	-0.0965298013245033	-0.917721854304636	0.522913907284768	1.0235761589404	0.224370860927152				0.948026490066225	0.131496688741722	0.117933774834437	1.3517880794702	-0.228079470198675	0.222516556291392				0.367788079470199	-0.206834437086093	-0.852238410596026	-0.259602649006623	-0.402384105960265	-1.59470198675497			
58	1360	-0.216158940397351	0.0987549668874172	-0.919523178807947	0.593377483443709	0.135364238410596	-0.624900662251656				0.944953642384106	0.0797880794701987	0.349139072847682	-0.966092715231788	1.14781456953642	0.81403973509934				-0.250172185430464	-0.0972715231788079	-0.87194701986755	1.12741721854305	0.426490066225167	-0.48026490066225				0.320529801324503	-0.112529801324503	-0.917721854304636	1.08291390728477	0.4635761589404	1.06437086092715				0.964026490066225	0.147496688741722	0.149933774834437	1.0717880794702	-0.228079470198675	-0.617483443708608				0.367788079470199	-0.190834437086093	-0.868238410596026	-0.539602649006623	0.157615894039735	0.0852980132450323			
59	1380	-0.232158940397351	0.0987549668874172	-0.951523178807947	-0.526622516556291	0.135364238410596	-1.18490066225166				0.944953642384106	0.0797880794701987	0.349139072847682	-0.406092715231788	-0.252185430463576	0.81403973509934				-0.250172185430464	-0.0812715231788079	-0.87194701986755	-0.272582781456954	0.146490066225167	-0.48026490066225				0.304529801324503	-0.0805298013245033	-0.917721854304636	0.802913907284768	1.0235761589404	0.224370860927152				0.964026490066225	0.147496688741722	0.133933774834437	-0.328211920529802	-1.06807947019868	-0.337483443708608				0.367788079470199	-0.206834437086093	-0.852238410596026	0.300397350993377	-0.402384105960265	-1.31470198675497			
60	1400	-0.232158940397351	0.0987549668874172	-0.951523178807947	-1.08662251655629	0.695364238410596	-1.46490066225166				0.944953642384106	0.0957880794701987	0.349139072847682	0.433907284768212	-0.532185430463576	1.09403973509934				-0.250172185430464	-0.0812715231788079	-0.88794701986755	0.00741721854304636	0.426490066225167	-0.76026490066225				0.304529801324503	-0.112529801324503	-0.917721854304636	0.802913907284768	1.3035761589404	-0.335629139072848				0.964026490066225	0.147496688741722	0.133933774834437	0.791788079470198	-0.788079470198675	0.502516556291392				0.367788079470199	-0.206834437086093	-0.868238410596026	0.860397350993377	0.437615894039735	-0.754701986754968			
61	1420	-0.232158940397351	0.0987549668874172	-0.951523178807947	-4.44662251655629	0.975364238410596	-0.904900662251656				0.944953642384106	0.0957880794701987	0.365139072847682	-0.126092715231788	0.587814569536424	0.81403973509934				-0.266172185430464	-0.0812715231788079	-0.88794701986755	-0.552582781456954	0.146490066225167	-0.20026490066225				0.304529801324503	-0.112529801324503	-0.917721854304636	-0.0370860927152318	0.4635761589404	-0.895629139072848				0.948026490066225	0.147496688741722	0.133933774834437	0.231788079470198	-0.228079470198675	-0.0574834437086077				0.367788079470199	-0.206834437086093	-0.868238410596026	2.82039735099338	0.437615894039735	-0.474701986754968			
62	1440	-0.232158940397351	0.0987549668874172	-0.935523178807947	0.313377483443709	0.135364238410596	-0.904900662251656				0.928953642384106	0.0797880794701987	0.365139072847682	-0.126092715231788	0.587814569536424	0.25403973509934				-0.266172185430464	-0.0972715231788079	-0.87194701986755	0.847417218543046	0.426490066225167	0.0797350993377501				0.320529801324503	-0.112529801324503	-0.901721854304636	0.802913907284768	1.0235761589404	-0.895629139072848				0.948026490066225	0.131496688741722	0.133933774834437	-0.608211920529802	-0.508079470198675	-0.617483443708608				0.351788079470199	-0.222834437086093	-0.852238410596026	0.0203973509933773	0.717615894039735	0.645298013245032			
63	1460	-0.216158940397351	0.0987549668874172	-0.935523178807947	-0.806622516556291	0.415364238410596	-0.624900662251656				0.944953642384106	0.0957880794701987	0.349139072847682	1.55390728476821	-1.37218543046358	1.37403973509934				-0.266172185430464	-0.0972715231788079	-0.87194701986755	0.847417218543046	0.706490066225167	-0.48026490066225				0.304529801324503	-0.112529801324503	-0.917721854304636	0.522913907284768	0.1835761589404	-0.0556291390728476				0.948026490066225	0.147496688741722	0.133933774834437	-0.888211920529802	-0.508079470198675	0.222516556291392				0.367788079470199	-0.190834437086093	-0.852238410596026	-1.09960264900662	0.997615894039735	1.48529801324503			
64	1480	-0.216158940397351	0.0987549668874172	-0.951523178807947	-1.08662251655629	0.415364238410596	-0.904900662251656				0.944953642384106	0.0957880794701987	0.349139072847682	0.993907284768212	0.0278145695364242	1.37403973509934				-0.250172185430464	-0.0812715231788079	-0.88794701986755	0.567417218543046	0.986490066225167	-0.48026490066225				0.320529801324503	-0.112529801324503	-0.901721854304636	1.36291390728477	0.1835761589404	0.784370860927152				0.932026490066225	0.147496688741722	0.133933774834437	-0.0482119205298018	-0.228079470198675	0.222516556291392				0.367788079470199	-0.190834437086093	-0.852238410596026	1.14039735099338	-0.122384105960265	2.04529801324503			
65	1500	-0.216158940397351	0.114754966887417	-0.951523178807947	-0.246622516556291	0.415364238410596	-0.904900662251656				0.928953642384106	0.0797880794701987	0.349139072847682	-0.686092715231788	0.587814569536424	1.37403973509934				-0.250172185430464	-0.0812715231788079	-0.87194701986755	0.567417218543046	-0.133509933774833	-0.76026490066225				0.304529801324503	-0.0965298013245033	-0.885721854304636	2.20291390728477	-0.9364238410596	1.90437086092715				0.948026490066225	0.147496688741722	0.149933774834437	-0.328211920529802	1.45192052980132	0.222516556291392				0.351788079470199	-0.206834437086093	-0.868238410596026	1.70039735099338	2.11761589403974	2.04529801324503			
66	1520	-0.216158940397351	0.0987549668874172	-0.951523178807947	-0.246622516556291	0.135364238410596	-0.624900662251656				0.928953642384106	0.0797880794701987	0.333139072847682	-0.686092715231788	1.14781456953642	2.49403973509934				-0.250172185430464	-0.0812715231788079	-0.87194701986755	0.287417218543046	-0.413509933774833	-1.32026490066225				0.304529801324503	-0.0645298013245033	-0.885721854304636	14.2429139072848	-7.3764238410596	3.58437086092715				0.948026490066225	0.147496688741722	0.117933774834437	-2.0082119205298	1.73192052980133	-0.0574834437086077				0.367788079470199	-0.190834437086093	-0.868238410596026	-0.259602649006623	-0.402384105960265	2.88529801324503			
67	1540	-0.216158940397351	0.0987549668874172	-0.951523178807947	-1.64662251655629	-0.424635761589404	-0.624900662251656				0.944953642384106	0.0797880794701987	0.349139072847682	0.713907284768212	1.70781456953642	2.21403973509934				-0.250172185430464	-0.0972715231788079	-0.88794701986755	-0.552582781456954	-0.413509933774833	-1.04026490066225				0.272529801324503	-0.0805298013245033	-0.965721854304636	18.4429139072848	-14.0964238410596	0.224370860927152				0.948026490066225	0.147496688741722	0.133933774834437	-1.1682119205298	3.41192052980132	-0.337483443708608				0.335788079470199	-0.222834437086093	-0.868238410596026	2.26039735099338	-3.20238410596026	7.64529801324503			
68	1560	-0.200158940397351	0.0987549668874172	-0.935523178807947	-1.36662251655629	-0.984635761589404	3.85509933774834				0.928953642384106	0.0957880794701987	0.349139072847682	0.713907284768212	3.38781456953642	1.93403973509934				-0.250172185430464	-0.0972715231788079	-0.88794701986755	0.287417218543046	-0.973509933774833	-1.88026490066225				0.272529801324503	-0.128529801324503	-0.965721854304636	14.5229139072848	-19.6964238410596	-5.93562913907285				0.964026490066225	0.147496688741722	0.0859337748344371	-0.888211920529802	3.13192052980133	0.222516556291392				0.335788079470199	-0.238834437086093	-0.884238410596026	-2.21960264900662	-7.12238410596027	13.525298013245			
69	1580	-0.200158940397351	0.0987549668874172	-0.951523178807947	-0.806622516556291	-0.144635761589404	0.215099337748344				0.928953642384106	0.0957880794701987	0.333139072847682	-1.52609271523179	3.38781456953642	1.37403973509934				-0.234172185430464	-0.0812715231788079	-0.87194701986755	-0.272582781456954	-0.133509933774833	-2.72026490066225				0.272529801324503	-0.160529801324503	-0.997721854304636	-0.597086092715232	-18.5764238410596	-7.33562913907285				0.932026490066225	0.147496688741722	0.117933774834437	-2.0082119205298	7.61192052980133	0.502516556291392				0.287788079470199	-0.206834437086093	-0.900238410596026	-12.8596026490066	-4.32238410596027	16.045298013245			
70	1600	-0.216158940397351	0.114754966887417	-0.903523178807947	-5.00662251655629	-0.424635761589404	1.61509933774834				0.928953642384106	0.0957880794701987	0.333139072847682	-3.48609271523179	2.82781456953642	2.49403973509934				-0.250172185430464	-0.0812715231788079	-0.87194701986755	0.567417218543046	-2.93350993377483	-3.84026490066225				0.272529801324503	-0.160529801324503	-0.997721854304636	-8.71708609271523	-18.5764238410596	-9.57562913907285				0.948026490066225	0.163496688741722	0.0699337748344371	-5.0882119205298	2.57192052980133	0.222516556291392				0.255788079470199	-0.206834437086093	-0.916238410596027	-12.2996026490066	-6.84238410596027	19.405298013245			
71	1620	-0.232158940397351	0.0987549668874172	-0.935523178807947	-2.48662251655629	-1.8246357615894	1.33509933774834				0.944953642384106	0.111788079470199	0.349139072847682	-3.76609271523179	6.18781456953642	4.17403973509934				-0.266172185430464	-0.0812715231788079	-0.90394701986755	0.287417218543046	-3.49350993377483	-4.40026490066225				0.208529801324503	-0.128529801324503	-0.965721854304636	-16.2770860927152	-22.7764238410596	-17.6956291390729				0.948026490066225	0.163496688741722	0.0699337748344371	-7.0482119205298	9.85192052980133	-2.01748344370861				0.255788079470199	-0.238834437086093	-0.916238410596027	-4.73960264900662	-13.2823841059603	29.205298013245			
72	1640	-0.232158940397351	0.114754966887417	-0.951523178807947	-2.20662251655629	-2.3846357615894	1.33509933774834				0.928953642384106	0.111788079470199	0.333139072847682	-5.16609271523179	10.9478145695364	5.29403973509934				-0.282172185430464	-0.0812715231788079	-0.90394701986755	0.847417218543046	-2.37350993377483	-4.96026490066225				0.160529801324503	-0.112529801324503	-0.933721854304636	-22.7170860927152	-22.4964238410596	-24.1356291390729				0.964026490066225	0.131496688741722	0.0539337748344371	-3.1282119205298	10.9719205298013	-1.73748344370861				0.271788079470199	-0.238834437086093	-0.900238410596026	0.300397350993377	-20.2823841059603	39.845298013245			
73	1660	-0.248158940397351	0.130754966887417	-0.951523178807947	0.313377483443709	0.415364238410596	1.89509933774834				0.912953642384106	0.0957880794701987	0.317139072847682	-5.16609271523179	19.9078145695364	5.85403973509934				-0.282172185430464	-0.0652715231788079	-0.88794701986755	1.96741721854305	0.146490066225167	-3.84026490066225				0.160529801324503	-0.128529801324503	-0.949721854304636	-25.2370860927152	-20.5364238410596	-21.8956291390728				0.948026490066225	0.147496688741722	0.0699337748344371	-3.9682119205298	14.0519205298013	-1.73748344370861				0.255788079470199	-0.206834437086093	-0.916238410596027	-5.57960264900662	-14.6823841059603	44.325298013245			
74	1680	-0.200158940397351	0.130754966887417	-0.935523178807947	-0.526622516556291	-1.2646357615894	2.45509933774835				0.944953642384106	0.0797880794701987	0.317139072847682	-5.44609271523179	26.3478145695364	5.29403973509934				-0.250172185430464	-0.0812715231788079	-0.87194701986755	3.92741721854305	1.26649006622517	-4.96026490066225				0.160529801324503	-0.112529801324503	-0.933721854304636	-17.1170860927152	-15.7764238410596	-18.8156291390729				0.948026490066225	0.147496688741722	0.0859337748344371	-2.8482119205298	15.7319205298013	0.782516556291392				0.255788079470199	-0.142834437086093	-0.900238410596026	-4.45960264900662	-3.48238410596027	41.525298013245			
75	1700	-0.200158940397351	0.130754966887417	-0.951523178807947	-1.64662251655629	-1.8246357615894	3.29509933774834				0.960953642384106	0.0797880794701987	0.333139072847682	-7.40609271523179	28.8678145695364	6.13403973509934				-0.234172185430464	-0.0972715231788079	-0.87194701986755	7.00741721854305	-0.693509933774834	-6.92026490066225				0.160529801324503	-0.0965298013245033	-0.949721854304636	-12.3570860927152	-10.7364238410596	-17.1356291390729				0.980026490066225	0.115496688741722	0.0859337748344371	-6.4882119205298	13.7719205298013	1.90251655629139				0.239788079470199	-0.158834437086093	-0.916238410596027	9.26039735099338	-7.68238410596027	42.365298013245			
76	1720	-0.232158940397351	0.130754966887417	-0.935523178807947	-3.04662251655629	-2.3846357615894	2.73509933774834				0.976953642384106	0.127788079470199	0.333139072847682	-4.04609271523179	27.1878145695364	10.8940397350993				-0.266172185430464	-0.113271523178808	-0.87194701986755	5.60741721854305	-3.77350993377483	-6.92026490066225				0.176529801324503	-0.128529801324503	-0.981721854304636	-8.15708609271523	-5.6964238410596	-16.5756291390728				0.980026490066225	0.147496688741722	0.0539337748344371	-8.1682119205298	10.1319205298013	1.62251655629139				0.223788079470199	-0.222834437086093	-0.900238410596026	17.6603973509934	-7.68238410596027	48.245298013245			
77	1740	-0.232158940397351	0.114754966887417	-0.951523178807947	-3.04662251655629	-4.3446357615894	0.495099337748344				0.960953642384106	0.0797880794701987	0.317139072847682	-1.52609271523179	36.1478145695364	19.2940397350993				-0.282172185430464	-0.0812715231788079	-0.90394701986755	1.40741721854305	-2.09350993377483	-7.76026490066225				0.160529801324503	-0.128529801324503	-0.997721854304636	-9.83708609271523	-7.9364238410596	-16.2956291390729				0.964026490066225	0.147496688741722	0.0379337748344371	-9.5682119205298	13.7719205298013	1.90251655629139				0.207788079470199	-0.190834437086093	-0.932238410596026	5.62039735099338	-0.962384105960265	50.205298013245			
78	1760	-0.216158940397351	0.114754966887417	-0.935523178807947	-8.08662251655629	-3.5046357615894	-0.0649006622516557				0.896953642384106	0.0317880794701987	0.365139072847682	-13.5660927152318	45.9478145695364	20.6940397350993				-0.266172185430464	-0.113271523178808	-0.90394701986755	2.80741721854305	0.146490066225167	-9.72026490066225				0.176529801324503	-0.144529801324503	-1.06172185430464	-11.2370860927152	-16.3364238410596	-15.1756291390728				0.948026490066225	0.147496688741722	0.0699337748344371	-5.9282119205298	18.8119205298013	3.30251655629139				0.207788079470199	-0.158834437086093	-0.964238410596026	4.50039735099338	-0.682384105960265	52.445298013245			
79	1780	-0.216158940397351	0.114754966887417	-0.951523178807947	-2.48662251655629	-2.1046357615894	-1.46490066225166				0.944953642384106	0.0637880794701987	0.381139072847682	-13.5660927152318	46.2278145695364	21.8140397350993				-0.234172185430464	-0.113271523178808	-0.87194701986755	5.04741721854305	-0.973509933774833	-10.2802649006622				0.224529801324503	-0.160529801324503	-1.10972185430464	-11.7970860927152	-25.2964238410596	-19.6556291390729				0.948026490066225	0.147496688741722	0.0699337748344371	-6.4882119205298	19.3719205298013	2.46251655629139				0.159788079470199	-0.174834437086093	-0.964238410596026	9.82039735099338	-9.36238410596027	56.925298013245			
80	1800	-0.232158940397351	0.130754966887417	-0.935523178807947	-5.00662251655629	-2.9446357615894	-0.624900662251656				1.07295364238411	0.143788079470199	0.317139072847682	-11.8860927152318	37.2678145695364	23.4940397350993				-0.202172185430464	-0.0812715231788079	-0.82394701986755	4.20741721854305	-4.33350993377483	-10.2802649006622				0.240529801324503	-0.208529801324503	-1.09372185430464	-28.3170860927152	-33.6964238410596	-26.0956291390729				0.980026490066225	0.147496688741722	0.0379337748344371	-3.1282119205298	23.2919205298013	1.90251655629139				0.191788079470199	-0.238834437086093	-1.01223841059603	15.4203973509934	-14.1223841059603	58.045298013245			
81	1820	-0.264158940397351	0.130754966887417	-0.935523178807947	-6.12662251655629	-1.8246357615894	-1.18490066225166				1.08895364238411	0.191788079470199	0.349139072847682	-13.0060927152318	29.7078145695364	35.2540397350993				-0.282172185430464	-0.0652715231788079	-0.88794701986755	0.847417218543046	-6.57350993377483	-9.44026490066225				0.160529801324503	-0.144529801324503	-1.10972185430464	-50.1570860927152	-54.9764238410596	-35.3356291390729				1.04402649006623	0.131496688741722	0.00593377483443711	-4.5282119205298	28.6119205298013	1.06251655629139				0.143788079470199	-0.238834437086093	-1.02823841059603	28.0203973509934	-18.0423841059603	67.285298013245			
82	1840	-0.296158940397351	0.114754966887417	-0.935523178807947	-0.526622516556291	2.3753642384106	0.495099337748344				0.896953642384106	-0.0322119205298013	0.445139072847682	-24.4860927152318	17.1078145695364	41.4140397350993				-0.346172185430464	-0.0972715231788079	-0.90394701986755	3.36741721854305	-3.77350993377483	-9.72026490066225				0.0645298013245033	-0.0965298013245033	-1.15772185430464	-50.9970860927152	-65.3364238410596	-47.0956291390729				1.06002649006623	0.163496688741722	-0.0100662251655629	-6.4882119205298	28.8919205298013	-2.29748344370861				0.0797880794701987	-0.254834437086093	-0.996238410596026	32.7803973509934	-18.8823841059603	76.245298013245			
83	1860	-0.328158940397351	0.0827549668874172	-0.903523178807947	0.873377483443709	4.0553642384106	0.775099337748344				0.960953642384106	0.0157880794701987	0.317139072847682	-24.2060927152318	17.1078145695364	35.2540397350993				-0.346172185430464	-0.0812715231788079	-0.90394701986755	7.28741721854305	-1.25350993377483	-8.88026490066225				0.0165298013245033	-0.112529801324503	-1.12572185430464	-61.9170860927152	-75.1364238410596	-51.8556291390729				0.980026490066225	0.131496688741722	0.00593377483443711	1.0717880794702	34.7719205298013	-3.69748344370861				0.0157880794701987	-0.270834437086093	-0.996238410596026	24.9403973509934	-25.8823841059603	86.325298013245			
84	1880	-0.296158940397351	0.0667549668874172	-0.919523178807947	-2.20662251655629	6.8553642384106	0.775099337748344				1.12095364238411	0.207788079470199	0.269139072847682	-6.00609271523179	21.0278145695364	34.4140397350993				-0.346172185430464	-0.0812715231788079	-0.83994701986755	11.207417218543	2.38649006622517	-9.72026490066225				-0.0314701986754967	-0.240529801324503	-1.02972185430464	-84.8770860927152	-82.9764238410596	-52.1356291390729				1.01202649006623	0.0674966887417219	-0.0420662251655629	4.1517880794702	37.2919205298013	-3.69748344370861				0.0637880794701987	-0.190834437086093	-0.932238410596026	22.4203973509934	-21.6823841059603	97.245298013245			
85	1900	-0.344158940397351	0.0827549668874172	-0.919523178807947	-12.5666225165563	8.2553642384106	0.775099337748344				0.960953642384106	-0.000211920529801304	0.221139072847682	3.23390728476821	15.1478145695364	41.1340397350993				-0.394172185430464	-0.0652715231788079	-0.85594701986755	10.087417218543	1.82649006622517	-9.72026490066225				-0.159470198675497	-0.0965298013245033	-0.965721854304636	-108.677086092715	-88.8564238410596	-56.0556291390729				1.06002649006623	0.0514966887417219	-0.0900662251655629	1.6317880794702	38.9719205298013	-5.09748344370861				-0.000211920529801336	-0.158834437086093	-0.948238410596026	33.0603973509934	-25.3223841059603	99.765298013245			
86	1920	-0.440158940397351	0.0667549668874172	-0.919523178807947	-11.1666225165563	10.2153642384106	-0.0649006622516557				0.992953642384106	-0.208211920529801	0.253139072847682	-29.2460927152318	30.8278145695364	43.3740397350993				-0.378172185430464	-0.0972715231788079	-0.85594701986755	12.047417218543	1.54649006622517	-9.44026490066225				-0.191470198675497	-0.0325298013245033	-0.933721854304636	-96.0770860927152	-81.2964238410596	-55.7756291390729				1.07602649006623	0.0834966887417219	-0.0100662251655629	5.5517880794702	42.3319205298013	-9.01748344370861				-0.0642119205298013	-0.206834437086093	-0.932238410596026	40.9003973509934	-18.0423841059603	101.165298013245			
87	1940	-0.456158940397351	0.0827549668874172	-0.839523178807947	-13.4066225165563	16.6553642384106	1.33509933774834				1.00895364238411	0.223788079470199	0.317139072847682	-25.6060927152318	42.0278145695364	22.6540397350993				0	0	0	0	0	0				-0.223470198675497	-0.0485298013245033	-0.917721854304636	-78.1570860927152	-67.8564238410596	-47.3756291390728				1.09202649006623	-0.0125033112582781	0.101933774834437	0.791788079470198	36.1719205298013	-6.77748344370861				-0.0482119205298013	-0.254834437086093	-0.964238410596026	47.3403973509934	-1.52238410596026	98.365298013245			
88	1960	0	0	0	0	0	0				0	0	0	0	0	0				0	0	0	0	0	0				-0.239470198675497	-0.0165298013245033	-0.853721854304636	-51.5570860927152	-48.2564238410596	-32.8156291390729				1.02802649006623	0.00349668874172187	0.0699337748344371	-5.6482119205298	26.0919205298013	-2.57748344370861				-0.0802119205298013	-0.302834437086093	-0.852238410596026	52.1003973509934	-4.32238410596027	102.005298013245			
89	2080	-0.344158940397351	0.114754966887417	-0.807523178807947	-35.2466225165563	47.1753642384106	18.6950993377483				0.880953642384106	-0.224211920529801	1.03713907284768	19.1939072847682	87.9478145695364	14.5340397350993				-0.410172185430464	-0.305271523178808	-0.96794701986755	34.1674172185431	39.6264900662252	-4.40026490066225				0	0	0	0	0	0				0.948026490066225	0.115496688741722	0.469933774834437	29.9117880794702	38.4119205298013	-2.29748344370861				0.0317880794701987	-0.478834437086093	-0.788238410596027	25.2203973509934	65.6776158940397	64.205298013245			
90	2100	-0.360158940397351	0.306754966887417	-1.09552317880795	-59.3266225165563	57.2553642384106	22.0550993377483				0.912953642384106	0.0157880794701987	1.37313907284768	-50.8060927152318	75.3478145695364	14.5340397350993				-0.490172185430464	-0.161271523178808	-1.03194701986755	51.5274172185431	57.8264900662252	-5.80026490066225				0.0165298013245033	0.0954701986754967	-1.02972185430464	-48.4770860927152	33.2235761589404	19.2643708609272				1.01202649006623	0.131496688741722	0.613933774834437	33.5517880794702	52.9719205298013	-15.7374834437086				0.191788079470199	-0.606834437086093	-0.740238410596026	15.4203973509934	68.7576158940397	49.085298013245			
91	2120	-0.344158940397351	0.338754966887417	-1.15952317880795	-37.2066225165563	65.0953642384106	34.3750993377484				0.864953642384106	-0.256211920529801	1.21313907284768	-2.08609271523179	79.5478145695364	18.4540397350993				-0.346172185430464	-0.273271523178808	-0.93594701986755	26.607417218543	59.7864900662252	3.15973509933775				-0.0794701986754967	0.479470198675497	-1.15772185430464	-38.9570860927152	50.8635761589404	37.7443708609272				1.09202649006623	0.227496688741722	0.869933774834437	31.0317880794702	56.0519205298013	-25.2574834437086				0.335788079470199	-0.750834437086093	-0.852238410596026	-5.01960264900662	80.7976158940397	26.125298013245			
92	2140	-0.248158940397351	0.322754966887417	-0.999523178807947	-36.0866225165563	76.0153642384106	39.6950993377484				1.05695364238411	-0.560211920529801	1.05313907284768	38.2339072847682	56.3078145695364	9.49403973509934				-0.330172185430464	-0.433271523178808	-0.95194701986755	15.127417218543	70.1464900662252	2.87973509933775				0.0965298013245033	0.479470198675497	-1.17372185430464	31.6029139072848	59.5435761589404	41.9443708609272				1.07602649006623	0.195496688741722	0.981933774834437	13.3917880794702	47.3719205298013	-23.5774834437086				0.511788079470199	-0.782834437086093	-0.996238410596026	-3.61960264900662	97.5976158940397	-6.91470198675497			
93	2160	-0.280158940397351	0.354754966887417	-0.983523178807947	-30.4866225165563	82.4553642384106	39.4150993377484				1.02495364238411	-0.336211920529801	1.29313907284768	6.31390728476821	38.6678145695364	-14.8659602649007				-0.202172185430464	-0.369271523178808	-1.14394701986755	-2.79258278145695	86.9464900662252	-1.60026490066225				0.320529801324503	0.287470198675497	-1.30172185430464	38.6029139072848	86.1435761589404	28.7843708609272				1.26802649006623	0.115496688741722	0.949933774834437	-10.6882119205298	52.1319205298013	-23.2974834437086				0.543788079470199	-0.878834437086093	-0.948238410596026	39.2203973509934	101.51761589404	-32.394701986755			
94	2180	-0.184158940397351	0.466754966887417	-1.03152317880795	-17.8866225165563	95.0553642384106	40.5350993377483				1.00895364238411	-0.0642119205298013	1.34113907284768	-11.8860927152318	37.2678145695364	-21.5859602649007				-0.138172185430464	-0.113271523178808	-1.07994701986755	-22.672582781457	88.6264900662252	-4.96026490066225				0.368529801324503	0.239470198675497	-1.46172185430464	0.522913907284768	95.1035761589404	37.1843708609272				1.31602649006623	0.291496688741722	0.837933774834437	-21.3282119205298	49.8919205298013	-24.9774834437086				0.527788079470199	-1.18283443708609	-0.820238410596026	76.7403973509934	80.7976158940397	-47.514701986755			
95	2200	0.087841059602649	0.402754966887417	-1.06352317880795	6.47337748344371	101.775364238411	44.1750993377484				0.960953642384106	-0.000211920529801304	1.10113907284768	9.95390728476821	20.1878145695364	-19.9059602649007				-0.138172185430464	-0.161271523178808	-1.09594701986755	-0.552582781456954	96.4664900662252	-10.5602649006623				0.320529801324503	0.431470198675497	-1.46172185430464	-3.67708609271523	93.1435761589404	32.1443708609272				1.26802649006623	0.371496688741722	0.773933774834437	-22.4482119205298	31.9719205298013	-26.6574834437086				0.527788079470199	-1.34283443708609	-0.948238410596026	69.4603973509934	81.6376158940397	-34.634701986755			
96	2220	0.215841059602649	0.290754966887417	-1.11152317880795	10.6733774834437	110.735364238411	42.4950993377484				1.05695364238411	-0.224211920529801	0.973139072847682	42.4339072847682	-1.37218543046358	-18.5059602649007				0.0378278145695364	-0.273271523178808	-1.03194701986755	3.64741721854305	109.346490066225	-15.8802649006623				0.320529801324503	0.351470198675497	-1.33372185430464	10.6029139072848	76.6235761589404	24.5843708609272				1.30002649006623	0.339496688741722	0.773933774834437	-28.3282119205298	30.8519205298013	-27.2174834437086				0.623788079470199	-1.19883443708609	-0.836238410596026	52.3803973509934	107.95761589404	-27.914701986755			
97	2240	0.167841059602649	0.306754966887417	-1.09552317880795	7.59337748344371	123.615364238411	41.9350993377484				1.08895364238411	-0.0802119205298013	1.10113907284768	11.9139072847682	-20.4121854304636	-22.4259602649007				0.117827814569536	-0.273271523178808	-1.09594701986755	-3.91258278145695	119.146490066225	-20.9202649006623				0.448529801324503	0.287470198675497	-1.36572185430464	-26.6370860927152	70.7435761589404	34.6643708609272				1.33202649006623	0.307496688741722	0.805933774834437	-19.6482119205298	15.1719205298013	-20.7774834437086				0.719788079470199	-1.03883443708609	-0.980238410596026	71.9803973509934	109.35761589404	-18.394701986755			
98	2260	0.183841059602649	0.322754966887417	-1.04752317880795	7.03337748344371	129.775364238411	44.4550993377484				1.07295364238411	-0.0162119205298013	1.35713907284768	12.7539072847682	-4.73218543046358	-14.8659602649007				0.0218278145695364	-0.289271523178808	-1.11194701986755	-9.51258278145695	128.386490066225	-22.0402649006623				0.496529801324503	0.303470198675497	-1.42972185430464	-43.4370860927152	81.3835761589404	41.6643708609272				1.25202649006623	0.483496688741722	0.789933774834437	-25.8082119205298	9.01192052980133	-18.2574834437086				0.623788079470199	-0.990834437086093	-0.980238410596026	61.3403973509934	111.31761589404	-11.114701986755			
99	2280	0.183841059602649	0.354754966887417	-1.01552317880795	12.3533774834437	142.375364238411	47.8150993377484				1.10495364238411	0.0637880794701987	1.21313907284768	16.9539072847682	-21.2521854304636	-12.6259602649007				0.0218278145695364	-0.289271523178808	-1.06394701986755	-15.392582781457	140.146490066225	-21.7602649006623				0.432529801324503	0.479470198675497	-1.30172185430464	-40.6370860927152	102.94357615894	43.0643708609272				1.22002649006623	0.483496688741722	0.757933774834437	-14.0482119205298	24.1319205298013	-18.8174834437086				0.719788079470199	-0.958834437086093	-0.804238410596027	46.2203973509934	108.79761589404	-16.154701986755			
100	2300	0.247841059602649	0.306754966887417	-0.951523178807947	26.6333774834437	153.015364238411	47.5350993377483				0.992953642384106	0.143788079470199	0.973139072847682	62.8739072847682	-61.0121854304636	-35.5859602649007				0.117827814569536	-0.241271523178808	-0.98394701986755	-17.352582781457	151.626490066225	-20.9202649006623				0.480529801324503	0.399470198675497	-1.28572185430464	-23.5570860927152	109.38357615894	57.3443708609272				1.22002649006623	0.403496688741722	0.869933774834437	-2.5682119205298	6.49192052980132	-13.2174834437086				0.831788079470199	-0.894834437086093	-0.820238410596026	13.1803973509934	123.35761589404	-9.43470198675497			
101	2320	0.343841059602649	0.242754966887417	-0.823523178807947	29.7133774834437	159.735364238411	44.1750993377484				1.13695364238411	-0.208211920529801	0.957139072847682	53.6339072847682	-61.0121854304636	-5.90596026490066				0.165827814569536	-0.193271523178808	-0.95194701986755	-19.032582781457	157.786490066225	-22.0402649006623				0.640529801324503	0.351470198675497	-1.23772185430464	-9.83708609271523	104.34357615894	64.3443708609272				1.15602649006623	0.371496688741722	0.853933774834437	-19.6482119205298	17.4119205298013	-20.4974834437086				0.879788079470199	-0.910834437086093	-0.804238410596027	6.46039735099338	130.63761589404	-21.474701986755			
102	2340	0.391841059602649	0.194754966887417	-0.855523178807947	22.9933774834437	165.055364238411	43.3350993377484				1.21695364238411	-0.272211920529801	1.00513907284768	16.1139072847682	-59.3321854304636	-14.0259602649007				0.213827814569536	-0.0972715231788079	-0.90394701986755	-24.632582781457	157.786490066225	-25.6802649006623				0.864529801324503	0.463470198675497	-1.14172185430464	-17.3970860927152	104.62357615894	62.1043708609272				1.15602649006623	0.403496688741722	0.821933774834437	-21.3282119205298	11.8119205298013	-14.6174834437086				0.975788079470199	-0.926834437086093	-0.772238410596026	3.94039735099338	133.15761589404	-34.914701986755			
103	2360	0.423841059602649	0.146754966887417	-0.791523178807947	14.5933774834437	167.575364238411	40.8150993377484				1.24895364238411	-0.0802119205298013	0.749139072847682	26.1939072847682	-69.9721854304636	-23.2659602649007				0.181827814569536	-0.0972715231788079	-0.87194701986755	-31.352582781457	157.786490066225	-26.8002649006623				0.896529801324503	0.463470198675497	-0.933721854304636	-25.7970860927152	95.1035761589404	64.9043708609272				1.20402649006623	0.323496688741722	0.773933774834437	-19.0882119205298	-12.8280794701987	0.222516556291392				0.991788079470199	-0.910834437086093	-0.740238410596026	12.9003973509934	114.67761589404	-49.754701986755			
104	2380	0.359841059602649	0.162754966887417	-0.759523178807947	15.1533774834437	170.655364238411	33.2550993377483				0.976953642384106	0.0957880794701987	0.653139072847682	28.7139072847682	-110.852185430464	-42.0259602649007				0.197827814569536	-0.177271523178808	-0.80794701986755	-31.632582781457	166.746490066225	-27.0802649006623				0.784529801324503	0.383470198675497	-1.09372185430464	0.242913907284768	72.1435761589404	66.8643708609272				1.17202649006623	0.355496688741722	0.693933774834437	-19.0882119205298	-25.7080794701987	6.66251655629139				1.0077880794702	-0.814834437086093	-0.692238410596026	19.9003973509934	96.7576158940397	-66.834701986755			
105	2400	0.359841059602649	0.226754966887417	-0.663523178807947	15.1533774834437	176.535364238411	25.1350993377483				0.720953642384106	0.127788079470199	0.653139072847682	43.8339072847682	-143.332185430464	-43.9859602649007				0.357827814569536	-0.289271523178808	-0.72794701986755	-43.672582781457	169.546490066225	-24.5602649006623				0.784529801324503	0.303470198675497	-1.02972185430464	36.0829139072848	65.1435761589404	68.2643708609272				0.948026490066225	0.355496688741722	0.661933774834437	-12.6482119205298	-37.7480794701987	8.62251655629139				0.991788079470199	-0.622834437086093	-0.644238410596026	31.3803973509934	58.1176158940397	-80.554701986755			
106	2420	0.471841059602649	0.242754966887417	-0.583523178807947	36.4333774834437	181.295364238411	20.0950993377483				0.912953642384106	-0.0962119205298013	0.493139072847682	54.4739072847682	-152.292185430464	-7.58596026490066				0.421827814569536	-0.129271523178808	-0.64794701986755	-52.632582781457	172.066490066225	-21.7602649006623				0.912529801324503	0.143470198675497	-0.837721854304636	15.0829139072848	63.7435761589404	50.9043708609272				0.852026490066225	0.323496688741722	0.677933774834437	-22.1682119205298	-42.2280794701987	6.10251655629139				0.863788079470199	-0.494834437086093	-0.692238410596026	3.66039735099338	44.3976158940397	-83.914701986755			
107	2440	0.631841059602649	0.130754966887417	-0.519523178807947	53.7933774834437	191.935364238411	17.2950993377483				1.02495364238411	-0.0962119205298013	0.237139072847682	30.6739072847682	-140.812185430464	-8.42596026490066				0.517827814569536	0.110728476821192	-0.58394701986755	-45.352582781457	172.906490066225	-20.6402649006623				0.816529801324503	0.0954701986754967	-0.629721854304636	-12.9170860927152	48.3435761589404	57.6243708609272				0.884026490066225	0.211496688741722	0.517933774834437	-11.8082119205298	-58.7480794701987	11.9825165562914				0.655788079470199	-0.686834437086093	-0.756238410596026	-43.6596026490066	-24.7623841059603	-76.914701986755			
108	2460	0.743841059602649	0.0187549668874172	-0.487523178807947	36.4333774834437	197.535364238411	13.0950993377483				1.02495364238411	0.0957880794701987	0.125139072847682	38.2339072847682	-102.452185430464	11.4540397350993				0.485827814569536	0.174728476821192	-0.58394701986755	-18.192582781457	168.706490066225	-15.6002649006622				0.560529801324503	0.0154701986754967	-0.549721854304636	2.48291390728477	25.6635761589404	90.3843708609272				0.772026490066225	0.195496688741722	0.341933774834437	-7.6082119205298	-84.7880794701987	23.4625165562914				0.479788079470199	-0.718834437086093	-0.580238410596026	-91.2596026490066	-34.2823841059603	-47.794701986755			
109	2480	0.711841059602649	-0.0132450331125828	-0.391523178807947	33.6333774834437	196.975364238411	10.2950993377483				0.784953642384106	0.0317880794701987	0.413139072847682	44.3939072847682	-163.492185430464	-1.98596026490066				0.581827814569536	0.142728476821192	-0.50394701986755	21.567417218543	168.426490066225	-16.1602649006623				0.368529801324503	0.271470198675497	-0.677721854304636	18.1629139072848	4.9435761589404	94.0243708609272				0.692026490066225	0.131496688741722	0.309933774834437	-4.8082119205298	-67.7080794701987	27.1025165562914				0.543788079470199	-0.622834437086093	-0.308238410596026	-89.0196026490066	-2.36238410596027	-36.594701986755			
110	2500	0.679841059602649	0.0507549668874172	-0.375523178807947	36.1533774834437	198.935364238411	6.37509933774834				0.320953642384106	-0.0962119205298013	0.349139072847682	7.71390728476821	-188.412185430464	-25.2259602649007				0.645827814569536	-0.0972715231788079	-0.50394701986755	24.647417218543	164.226490066225	-21.2002649006623				0.336529801324503	0.351470198675497	-0.501721854304636	39.4429139072848	-6.2564238410596	52.0243708609272				0.580026490066225	0.0514966887417219	0.357933774834437	-2.2882119205298	-81.1480794701987	25.7025165562914				0.463788079470199	-0.334834437086093	-0.452238410596026	-139.139602649007	-2.64238410596027	-24.274701986755			
111	2520	0.711841059602649	0.0507549668874172	-0.247523178807947	35.0333774834437	208.455364238411	4.97509933774835				0.0649536423841059	-0.0482119205298013	0.141139072847682	-14.6860927152318	-111.412185430464	-2.54596026490066				0.661827814569536	-0.145271523178808	-0.40794701986755	-6.43258278145695	161.426490066225	-24.2802649006623				0.400529801324503	0.207470198675497	-0.293721854304636	42.5229139072848	-10.4564238410596	22.9043708609272				0.404026490066225	0.0674966887417219	0.229933774834437	-9.0082119205298	-107.748079470199	26.2625165562914				0.303788079470199	-0.0628344370860927	-0.516238410596026	-111.979602649007	-31.7623841059603	-24.834701986755			
112	2540	0.759841059602649	0.00275496688741723	-0.295523178807947	49.8733774834437	204.255364238411	4.97509933774835				0.464953642384106	-0.0482119205298013	0.0131390728476822	-28.6860927152318	-43.0921854304636	5.29403973509934				0.613827814569536	-0.0492715231788079	-0.31194701986755	-17.632582781457	162.266490066225	-18.6802649006623				0.224529801324503	0.0154701986754967	-0.117721854304636	60.4429139072848	-25.0164238410596	31.3043708609272				0.324026490066225	0.0994966887417219	0.117933774834437	-5.3682119205298	-113.628079470199	28.2225165562914				0.207788079470199	0.00116556291390731	-0.244238410596026	-47.0196026490066	-68.7223841059603	-18.954701986755			
113	2560	0.839841059602649	-0.0132450331125828	-0.231523178807947	25.5133774834437	214.895364238411	14.2150993377483				0.640953642384106	0.191788079470199	0.0931390728476822	-1.80609271523179	-86.7721854304636	-7.02596026490066				0.629827814569536	0.0467284768211921	-0.35994701986755	-9.51258278145695	147.426490066225	-20.3602649006623				0.0485298013245033	-0.0325298013245033	-0.101721854304636	59.3229139072848	-28.6564238410596	28.5043708609272				0.260026490066225	0.0674966887417219	0.101933774834437	-7.0482119205298	-117.828079470199	31.3025165562914				0.127788079470199	-0.0308344370860927	-0.0362384105960265	-23.7796026490066	-68.4423841059603	-13.074701986755			
114	2580	0.871841059602649	0.0507549668874172	-0.119523178807947	35.0333774834437	207.335364238411	13.3750993377483				0.512953642384106	0.0637880794701987	0.253139072847682	25.0739072847682	-128.492185430464	-11.2259602649007				0.597827814569536	0.0947284768211921	-0.27994701986755	11.207417218543	145.466490066225	-24.5602649006623				-0.127470198675497	-0.000529801324503289	-0.165721854304636	28.2429139072848	-39.8564238410596	28.2243708609272				0.228026490066225	0.115496688741722	0.0379337748344371	-4.5282119205298	-101.028079470199	32.4225165562914				0.143788079470199	-0.110834437086093	-0.0682384105960265	-36.6596026490066	-42.6823841059603	-22.594701986755			
115	2600	0.871841059602649	0.146754966887417	-0.119523178807947	66.6733774834437	189.975364238411	7.49509933774834				0.112953642384106	-0.0962119205298013	0.413139072847682	27.8739072847682	-106.372185430464	-0.30596026490066				0.597827814569536	0.0947284768211921	-0.21594701986755	-1.39258278145695	140.706490066225	-21.7602649006623				-0.159470198675497	0.0154701986754967	-0.405721854304636	49.5229139072848	-55.2564238410596	30.1843708609272				0.180026490066225	0.0514966887417219	-0.0100662251655629	0.791788079470198	-93.1880794701987	32.1425165562914				0.159788079470199	0.0171655629139073	-0.132238410596026	-50.3796026490066	-27.2823841059603	-38.834701986755			
116	2620	0.743841059602649	0.242754966887417	-0.039523178807947	94.3933774834437	172.615364238411	12.8150993377483				0.128953642384106	-0.0162119205298013	0.221139072847682	24.7939072847682	-100.492185430464	-1.70596026490066				0.725827814569536	-0.0972715231788079	-0.18394701986755	-1.39258278145695	117.746490066225	-18.6802649006623				-0.0794701986754967	-0.0485298013245033	-0.405721854304636	102.442913907285	-36.4964238410596	31.0243708609272				0.180026490066225	-0.0765033112582781	0.0219337748344371	3.5917880794702	-71.9080794701987	27.1025165562914				0.111788079470199	0.193165562913907	-0.180238410596026	-59.6196026490066	-21.4023841059603	-49.754701986755			
117	2640	0.599841059602649	0.338754966887417	0.040476821192053	62.7533774834437	169.815364238411	-6.22490066225166				0.288953642384106	0.127788079470199	0.189139072847682	7.15390728476821	-59.0521854304636	-3.94596026490066				0.773827814569536	-0.145271523178808	-0.21594701986755	12.607417218543	111.306490066225	-23.1602649006623				-0.0314701986754967	-0.112529801324503	-0.517721854304636	106.642913907285	-33.1364238410596	32.9843708609272				0.276026490066225	-0.0125033112582781	0.0699337748344371	0.791788079470198	-57.6280794701987	20.3825165562914				0.0797880794701987	0.193165562913907	-0.276238410596026	-39.1796026490066	-19.4423841059603	-64.594701986755			
118	2660	0.807841059602649	-0.141245033112583	0.072476821192053	62.7533774834437	164.215364238411	1.05509933774834				0.416953642384106	0.175788079470199	0.189139072847682	-4.88609271523179	-67.7321854304636	-6.74596026490066				0.725827814569536	-0.161271523178808	-0.21594701986755	-4.47258278145695	93.6664900662252	-25.1202649006623				0.0965298013245033	-0.240529801324503	-0.581721854304636	106.362913907285	-44.6164238410596	40.5443708609272				0.404026490066225	0.0674966887417219	0.00593377483443711	-10.9682119205298	-53.7080794701987	14.2225165562914				0.159788079470199	0.113165562913907	-0.340238410596026	-16.7796026490066	-22.2423841059603	-74.954701986755			
119	2680	0.967841059602649	-0.397245033112583	0.088476821192053	57.7133774834437	132.015364238411	25.4150993377483				0.400953642384106	0.175788079470199	0.0611390728476822	5.47390728476821	-63.5321854304636	-4.50596026490066				0.725827814569536	-0.0812715231788079	-0.0399470198675496	-16.232582781457	95.3464900662252	-22.0402649006623				0.192529801324503	-0.272529801324503	-0.629721854304636	70.5229139072848	-56.0964238410596	35.7843708609272				0.436026490066225	0.147496688741722	-0.106066225165563	-29.4482119205298	-47.8280794701987	9.74251655629139				0.303788079470199	-0.0468344370860927	-0.404238410596026	-32.4596026490066	-30.3623841059603	-75.794701986755			
120	2700	0.935841059602649	-0.141245033112583	0.136476821192053	-14.2466225165563	97.2953642384106	13.0950993377483				0.576953642384106	0.0637880794701987	0.237139072847682	18.3539072847682	7.86781456953642	0.81403973509934				0.821827814569536	0.0147284768211921	-0.00794701986754963	1.68741721854305	89.1864900662252	-16.4402649006623				0.192529801324503	-0.224529801324503	-0.645721854304636	-19.6370860927152	-78.2164238410596	28.5043708609272				0.500026490066225	0.179496688741722	-0.0740662251655629	-19.3682119205298	-31.3080794701987	10.5825165562914				0.367788079470199	-0.174834437086093	-0.548238410596027	-93.7796026490066	-32.3223841059603	-75.514701986755			
121	2720	0.951841059602649	0.242754966887417	-0.055523178807947	-65.2066225165563	86.9353642384106	-17.9849006622517				0.800953642384106	0.111788079470199	0.365139072847682	6.59390728476821	30.8278145695364	8.09403973509934				1.02982781456954	0.0307284768211921	-0.0399470198675496	17.647417218543	65.3864900662252	-6.92026490066225				0.208529801324503	-0.0645298013245033	-0.693721854304636	-32.5170860927152	-76.2564238410596	41.3843708609272				0.644026490066225	0.163496688741722	0.0699337748344371	-1.7282119205298	-12.2680794701987	6.94251655629139				0.383788079470199	-0.0148344370860927	-0.612238410596026	-96.0196026490066	-35.1223841059603	-70.754701986755			
122	2740	1.11184105960265	0.146754966887417	0.072476821192053	-14.8066225165563	76.2953642384106	-7.34490066225166				0.848953642384106	0.0637880794701987	0.301139072847682	-3.20609271523179	-9.49218543046358	9.77403973509934				1.09382781456954	0.0147284768211921	-0.0399470198675496	35.287417218543	42.4264900662252	-4.68026490066225				0.304529801324503	-0.0165298013245033	-0.805721854304636	0.522913907284768	-61.9764238410596	39.1443708609272				0.788026490066225	0.0994966887417219	0.229933774834437	8.0717880794702	-15.0680794701987	3.86251655629139				0.431788079470199	0.0651655629139073	-0.676238410596026	-41.6996026490066	-44.3623841059603	-71.314701986755			
123	2760	1.15984105960265	0.0667549668874172	0.072476821192053	-4.44662251655629	27.8553642384106	11.9750993377483				0.784953642384106	0.0637880794701987	0.253139072847682	-11.8860927152318	-5.57218543046358	7.25403973509934				1.06182781456954	-0.0812715231788079	-0.00794701986754963	50.1274172185431	23.6664900662252	-6.92026490066225				0.352529801324503	-0.0805298013245033	-0.853721854304636	10.0429139072848	-44.0564238410596	16.1843708609272				0.916026490066225	0.179496688741722	0.133933774834437	-16.0082119205298	-27.3880794701987	0.782516556291392				0.559788079470199	-0.0788344370860927	-0.692238410596026	-9.77960264900662	-24.4823841059603	-61.794701986755			
124	2780	1.09584105960265	0.0987549668874172	0.184476821192053	14.3133774834437	15.5353642384106	8.33509933774834				0.992953642384106	0.111788079470199	0.333139072847682	-0.966092715231788	14.8678145695364	10.3340397350993				1.06182781456954	-0.113271523178808	0.0400529801324504	47.0474172185431	13.8664900662252	-9.44026490066225				0.368529801324503	-0.112529801324503	-0.837721854304636	-2.83708609271523	-32.5764238410596	2.46437086092715				0.948026490066225	0.163496688741722	-0.0260662251655629	-5.3682119205298	-15.6280794701987	3.02251655629139				0.687788079470199	-0.302834437086093	-0.756238410596026	2.82039735099338	3.23761589403974	-45.554701986755			
125	2800	1.03184105960265	0.0827549668874172	0.200476821192053	21.0333774834437	-0.144635761589404	1.33509933774834				1.08895364238411	0.0477880794701987	0.317139072847682	3.23390728476821	7.58781456953643	9.49403973509934				0.981827814569536	-0.0172715231788079	0.12005298013245	40.8874172185431	20.3064900662252	-12.2402649006623				0.320529801324503	-0.128529801324503	-0.949721854304636	2.48291390728477	-23.0564238410596	-6.21562913907285				0.900026490066225	0.115496688741722	0.117933774834437	8.9117880794702	7.89192052980133	3.30251655629139				0.687788079470199	-0.366834437086093	-0.852238410596026	6.18039735099338	4.91761589403974	-23.434701986755			
126	2820	0.967841059602649	0.0347549668874172	0.312476821192053	10.3933774834437	13.5753642384106	1.05509933774834				1.00895364238411	0.0157880794701987	0.285139072847682	2.95390728476821	7.86781456953642	3.05403973509934				0.997827814569536	-0.0332715231788079	0.13605298013245	23.807417218543	20.0264900662252	-6.36026490066225				0.272529801324503	-0.112529801324503	-0.981721854304636	-1.99708609271523	-14.9364238410596	-20.7756291390729				0.996026490066225	0.0354966887417219	0.245933774834437	12.8317880794702	20.2119205298013	2.46251655629139				0.607788079470199	-0.238834437086093	-0.868238410596026	31.6603973509934	-34.0023841059603	3.16529801324503			
127	2840	0.935841059602649	0.00275496688741723	0.328476821192053	13.1933774834437	7.9753642384106	-0.0649006622516557				1.00895364238411	0.0477880794701987	0.269139072847682	0.713907284768212	0.867814569536424	5.01403973509934				1.07782781456954	-0.0972715231788079	0.10405298013245	17.647417218543	24.5064900662252	3.99973509933775				0.304529801324503	-0.192529801324503	-0.901721854304636	6.96291390728477	-7.3764238410596	-30.0156291390729				0.996026490066225	0.0354966887417219	0.245933774834437	-3.4082119205298	15.7319205298013	-0.337483443708608				0.655788079470199	-0.254834437086093	-0.772238410596026	54.6203973509934	-62.5623841059603	23.045298013245			
128	2860	0.935841059602649	-0.0292450331125828	0.344476821192053	10.3933774834437	10.7753642384106	-2.02490066225166				0.928953642384106	0.0477880794701987	0.189139072847682	4.07390728476821	0.867814569536424	7.81403973509934				1.04582781456954	-0.0812715231788079	0.0560529801324504	3.36741721854305	23.9464900662252	2.31973509933775				0.368529801324503	-0.192529801324503	-0.853721854304636	2.20291390728477	-1.4964238410596	-24.6956291390729				0.948026490066225	0.115496688741722	0.181933774834437	-12.6482119205298	13.2119205298013	-0.897483443708608				0.687788079470199	-0.286834437086093	-0.724238410596026	18.7803973509934	-42.9623841059603	22.485298013245			
129	2880	0.951841059602649	0.0827549668874172	0.344476821192053	-1.08662251655629	8.8153642384106	-6.78490066225166				0.912953642384106	0.0317880794701987	0.141139072847682	4.63390728476821	10.6678145695364	8.65403973509934				0.965827814569536	-0.0652715231788079	0.00805298013245037	-12.312582781457	23.3864900662252	-1.88026490066225				0.352529801324503	-0.160529801324503	-0.773721854304636	-3.95708609271523	10.5435761589404	-14.8956291390728				0.948026490066225	0.0834966887417219	0.149933774834437	-8.1682119205298	17.4119205298013	3.30251655629139				0.639788079470199	-0.110834437086093	-0.740238410596026	-13.4196026490066	-25.0423841059603	17.165298013245			
130	2900	0.967841059602649	0.146754966887417	0.280476821192053	8.71337748344371	14.6953642384106	-5.94490066225166				0.976953642384106	-0.0162119205298013	0.253139072847682	1.55390728476821	21.5878145695364	6.13403973509934				0.917827814569536	-0.0332715231788079	0.0400529801324504	-2.51258278145695	21.7064900662252	-3.28026490066225				0.256529801324503	-0.112529801324503	-0.821721854304636	-3.95708609271523	17.8235761589404	-10.4156291390728				0.932026490066225	0.0354966887417219	0.165933774834437	-10.9682119205298	16.8519205298013	5.26251655629139				0.543788079470199	-0.0148344370860927	-0.676238410596026	10.9403973509934	-27.8423841059603	11.285298013245			
131	2920	0.919841059602649	0.0987549668874172	0.312476821192053	17.1133774834437	15.5353642384106	-6.22490066225166				0.880953642384106	-0.0162119205298013	0.269139072847682	-7.40609271523179	9.54781456953642	4.17403973509934				0.933827814569536	0.0467284768211921	0.0880529801324504	3.08741721854305	24.2264900662252	-0.76026490066225				0.256529801324503	-0.0965298013245033	-0.853721854304636	10.0429139072848	20.9035761589404	-6.77562913907285				0.900026490066225	0.0674966887417219	0.149933774834437	-7.3282119205298	16.2919205298013	5.54251655629139				0.495788079470199	-0.0628344370860927	-0.628238410596026	33.0603973509934	-20.0023841059603	4.00529801324503			
132	2940	0.871841059602649	-0.0292450331125828	0.248476821192053	22.7133774834437	10.2153642384106	-7.34490066225166				0.832953642384106	0.0317880794701987	0.125139072847682	-10.2060927152318	12.9078145695364	1.93403973509934				0.933827814569536	0.0307284768211921	0.0720529801324504	2.52741721854305	22.5464900662252	-0.20026490066225				0.352529801324503	-0.128529801324503	-0.853721854304636	5.56291390728477	16.7035761589404	-7.33562913907285				0.836026490066225	0.115496688741722	0.133933774834437	-4.8082119205298	18.8119205298013	6.38251655629139				0.479788079470199	-0.0948344370860927	-0.644238410596026	30.2603973509934	-0.682384105960265	-3.27470198675497			
133	2960	0.887841059602649	-0.0772450331125828	0.392476821192053	20.4733774834437	16.3753642384106	-5.38490066225166				0	0	0	0	0	0				0	0	0	0	0	0				0.400529801324503	-0.160529801324503	-0.837721854304636	3.60291390728477	6.6235761589404	-4.81562913907285				0	0	0	0	0	0				0.479788079470199	-0.142834437086093	-0.676238410596026	34.4603973509934	8.83761589403974	-1.87470198675497			
134	3080	0.951841059602649	0.0507549668874172	0.200476821192053	8.15337748344371	-2.9446357615894	-3.14490066225166				1.00895364238411	0.0957880794701987	0.237139072847682	-4.88609271523179	17.6678145695364	3.05403973509934				1.01382781456954	0.0627284768211921	-0.0239470198675496	0.00741721854304636	1.26649006622517	-0.20026490066225				0	0	0	0	0	0				0.948026490066225	0.0674966887417219	0.293933774834437	-4.2482119205298	23.2919205298013	0.782516556291392				0	0	0	0	0	0			
135	3100	0.999841059602649	0.0827549668874172	0.200476821192053	8.99337748344371	-1.5446357615894	-3.42490066225166				1.04095364238411	0.0797880794701987	0.205139072847682	3.79390728476821	14.5878145695364	0.81403973509934				1.01382781456954	0.0787284768211921	0.00805298013245037	7.00741721854305	5.18649006622517	-0.20026490066225				0.384529801324503	-0.0485298013245033	-0.885721854304636	-3.39708609271523	-3.1764238410596	-5.09562913907285				0.996026490066225	0.0674966887417219	0.309933774834437	-2.0082119205298	22.4519205298013	0.782516556291392				0.607788079470199	-0.206834437086093	-0.740238410596026	18.5003973509934	-21.4023841059603	13.805298013245			
136	3120	1.04784105960265	0.0827549668874172	0.200476821192053	7.87337748344371	-4.0646357615894	-3.42490066225166				1.04095364238411	0.0797880794701987	0.253139072847682	10.5139072847682	19.0678145695364	0.81403973509934				1.01382781456954	0.0467284768211921	-0.0239470198675496	3.64741721854305	12.7464900662252	0.63973509933775				0.464529801324503	-0.0325298013245033	-0.933721854304636	4.72291390728477	-1.2164238410596	-9.01562913907285				0.996026490066225	0.131496688741722	0.309933774834437	-4.2482119205298	19.0919205298013	1.90251655629139				0.575788079470199	-0.286834437086093	-0.676238410596026	23.5403973509934	-13.2823841059603	7.92529801324503			
137	3140	1.03184105960265	0.0507549668874172	0.232476821192053	-4.16662251655629	0.135364238410596	-0.0649006622516557				1.02495364238411	0.0797880794701987	0.221139072847682	10.5139072847682	11.2278145695364	1.65403973509934				1.01382781456954	0.0147284768211921	-0.0239470198675496	8.12741721854305	13.5864900662252	0.0797350993377501				0.480529801324503	-0.0965298013245033	-0.933721854304636	0.802913907284768	0.7435761589404	-7.33562913907285				0.980026490066225	0.163496688741722	0.277933774834437	-1.4482119205298	16.5719205298013	1.34251655629139				0.591788079470199	-0.302834437086093	-0.660238410596027	2.82039735099338	6.03761589403974	3.16529801324503			
138	3160	1.01584105960265	0.0507549668874172	0.184476821192053	-3.88662251655629	-3.7846357615894	-0.904900662251656				1.02495364238411	0.0317880794701987	0.173139072847682	-8.80609271523179	12.6278145695364	4.17403973509934				0.981827814569536	-0.0332715231788079	-0.0559470198675496	12.047417218543	13.0264900662252	-1.60026490066225				0.432529801324503	-0.112529801324503	-0.949721854304636	-5.63708609271523	3.5435761589404	-7.89562913907285				0.996026490066225	0.131496688741722	0.277933774834437	3.3117880794702	19.3719205298013	-0.617483443708608				0.591788079470199	-0.238834437086093	-0.724238410596026	-1.37960264900662	9.11761589403974	4.84529801324503			
139	3180	0.983841059602649	0.0667549668874172	0.184476821192053	-5.56662251655629	-4.3446357615894	-3.98490066225166				1.00895364238411	0.0477880794701987	0.269139072847682	-16.9260927152318	15.7078145695364	3.89403973509934				0.981827814569536	-0.0172715231788079	-0.0719470198675496	1.96741721854305	8.26649006622517	-1.04026490066225				0.384529801324503	-0.0485298013245033	-0.885721854304636	-3.95708609271523	6.3435761589404	-11.2556291390728				0.980026490066225	0.0674966887417219	0.293933774834437	0.231788079470198	15.7319205298013	-1.17748344370861				0.559788079470199	-0.222834437086093	-0.724238410596026	25.2203973509934	-4.04238410596027	5.96529801324503			
140	3200	0.983841059602649	0.0667549668874172	0.168476821192053	-11.1666225165563	-5.4646357615894	-5.10490066225166				0.960953642384106	0.0317880794701987	0.237139072847682	-5.72609271523179	4.78781456953642	2.77403973509934				0.965827814569536	-0.0172715231788079	-0.10394701986755	-3.63258278145695	7.70649006622517	-0.76026490066225				0.368529801324503	-0.0485298013245033	-0.869721854304636	3.88291390728477	5.2235761589404	-7.89562913907285				0.948026490066225	0.0674966887417219	0.293933774834437	0.791788079470198	7.89192052980133	-0.617483443708608				0.575788079470199	-0.350834437086093	-0.676238410596026	23.2603973509934	0.437615894039735	0.645298013245032			
141	3220	0.935841059602649	0.0667549668874172	0.136476821192053	-11.1666225165563	-6.8646357615894	-3.42490066225166				0.912953642384106	0.0317880794701987	0.189139072847682	1.83390728476821	6.18781456953642	1.37403973509934				0.949827814569536	-0.0492715231788079	-0.10394701986755	-8.11258278145695	4.90649006622517	2.03973509933775				0.352529801324503	-0.0805298013245033	-0.901721854304636	4.72291390728477	2.7035761589404	-5.09562913907285				0.932026490066225	0.0834966887417219	0.293933774834437	-2.8482119205298	4.81192052980133	0.782516556291392				0.607788079470199	-0.398834437086093	-0.740238410596026	-1.93960264900662	13.0376158940397	0.0852980132450323			
142	3240	0.919841059602649	0.0507549668874172	0.168476821192053	-5.56662251655629	-4.0646357615894	-2.02490066225166				0.976953642384106	0.0477880794701987	0.237139072847682	-0.966092715231788	8.14781456953643	-0.0259602649006601				0.981827814569536	-0.00127152317880793	-0.10394701986755	-6.99258278145695	2.10649006622517	2.59973509933775				0.384529801324503	-0.112529801324503	-0.885721854304636	4.16291390728477	4.9435761589404	-5.65562913907285				0.932026490066225	0.0674966887417219	0.293933774834437	-1.4482119205298	6.77192052980133	1.62251655629139				0.591788079470199	-0.334834437086093	-0.756238410596026	4.50039735099338	4.07761589403974	5.68529801324503			
143	3260	0.935841059602649	0.0667549668874172	0.168476821192053	-6.12662251655629	-0.704635761589404	-1.74490066225166				0.976953642384106	0.0317880794701987	0.253139072847682	-2.92609271523179	5.34781456953642	-0.86596026490066				0.997827814569536	0.0147284768211921	-0.10394701986755	-0.832582781456954	-1.53350993377483	1.19973509933775				0.384529801324503	-0.112529801324503	-0.837721854304636	2.48291390728477	4.6635761589404	-5.65562913907285				0.932026490066225	0.0674966887417219	0.261933774834437	-3.1282119205298	3.69192052980133	0.222516556291392				0.543788079470199	-0.270834437086093	-0.724238410596026	10.3803973509934	-8.24238410596027	14.365298013245			
144	3280	0.967841059602649	0.0507549668874172	0.168476821192053	-4.72662251655629	-2.3846357615894	-0.624900662251656				0.976953642384106	0.0317880794701987	0.269139072847682	-4.88609271523179	1.70781456953642	-1.42596026490066				0.981827814569536	-0.00127152317880793	-0.10394701986755	4.76741721854305	-7.69350993377483	0.35973509933775				0.352529801324503	-0.0965298013245033	-0.853721854304636	-0.877086092715232	2.4235761589404	-1.17562913907285				0.900026490066225	0.0994966887417219	0.261933774834437	-6.7682119205298	1.45192052980132	1.34251655629139				0.511788079470199	-0.270834437086093	-0.676238410596026	5.06039735099338	-6.84238410596027	13.805298013245			
145	3300	0.935841059602649	0.0187549668874172	0.216476821192053	-7.80662251655629	-3.5046357615894	2.17509933774834				0.928953642384106	0.0157880794701987	0.205139072847682	-4.04609271523179	-4.45218543046358	0.25403973509934				0.933827814569536	0.0147284768211921	-0.10394701986755	0.567417218543046	-9.93350993377483	-1.60026490066225				0.352529801324503	-0.0805298013245033	-0.869721854304636	0.242913907284768	-0.3764238410596	3.58437086092715				0.884026490066225	0.0994966887417219	0.277933774834437	-2.8482119205298	0.611920529801325	2.74251655629139				0.495788079470199	-0.254834437086093	-0.644238410596026	-0.539602649006623	6.87761589403974	7.64529801324503			
146	3320	0.935841059602649	0.0187549668874172	0.184476821192053	-5.28662251655629	-2.3846357615894	1.33509933774834				0.944953642384106	0.0317880794701987	0.189139072847682	-8.52609271523179	6.18781456953642	-1.42596026490066				0.933827814569536	-0.00127152317880793	-0.10394701986755	-1.95258278145695	-7.13350993377484	-0.76026490066225				0.368529801324503	-0.112529801324503	-0.917721854304636	-0.877086092715232	-1.4964238410596	1.34437086092715				0.916026490066225	0.0514966887417219	0.261933774834437	1.3517880794702	2.29192052980133	1.62251655629139				0.511788079470199	-0.222834437086093	-0.676238410596026	-5.29960264900662	12.7576158940397	3.16529801324503			
147	3340	0.951841059602649	0.0507549668874172	0.216476821192053	-3.60662251655629	-1.8246357615894	0.215099337748344				0.992953642384106	0.0797880794701987	0.285139072847682	-11.3260927152318	6.46781456953642	-0.86596026490066				0.981827814569536	-0.0332715231788079	-0.0719470198675496	-5.59258278145695	-9.37350993377483	-0.76026490066225				0.400529801324503	-0.144529801324503	-0.901721854304636	-5.63708609271523	-2.3364238410596	-2.29562913907285				0.948026490066225	0.0514966887417219	0.245933774834437	-1.1682119205298	-0.228079470198675	-0.337483443708608				0.543788079470199	-0.270834437086093	-0.724238410596026	3.66039735099338	5.47761589403974	0.645298013245032			
148	3360	0.967841059602649	0.0667549668874172	0.216476821192053	-4.44662251655629	-2.9446357615894	1.61509933774834				0.992953642384106	0.111788079470199	0.253139072847682	-6.00609271523179	-1.65218543046358	-0.30596026490066				0.981827814569536	-0.00127152317880793	-0.0239470198675496	-3.07258278145695	-8.25350993377483	-1.04026490066225				0.384529801324503	-0.112529801324503	-0.885721854304636	-12.9170860927152	-2.3364238410596	-1.73562913907285				0.948026490066225	0.0994966887417219	0.245933774834437	-6.4882119205298	3.97192052980133	-1.45748344370861				0.527788079470199	-0.286834437086093	-0.740238410596026	10.9403973509934	1.83761589403974	-3.55470198675497			
149	3380	0.967841059602649	0.0507549668874172	0.184476821192053	1.43337748344371	-3.5046357615894	2.73509933774834				0.992953642384106	0.0957880794701987	0.173139072847682	-0.406092715231788	-2.77218543046358	-1.14596026490066				0.965827814569536	-0.00127152317880793	-0.0239470198675496	-0.832582781456954	-6.85350993377483	0.0797350993377501				0.352529801324503	-0.0645298013245033	-0.869721854304636	-9.83708609271523	-3.1764238410596	1.34437086092715				0.948026490066225	0.115496688741722	0.277933774834437	-2.5682119205298	4.53192052980133	-1.45748344370861				0.527788079470199	-0.286834437086093	-0.740238410596026	1.70039735099338	11.9176158940397	-5.79470198675497			
150	3400	0.967841059602649	0.0667549668874172	0.216476821192053	3.39337748344371	-1.8246357615894	2.17509933774834				1.00895364238411	0.0317880794701987	0.189139072847682	5.47390728476821	-2.77218543046358	-1.98596026490066				0.981827814569536	-0.00127152317880793	-0.0399470198675496	1.96741721854305	-4.89350993377483	2.03973509933775				0.352529801324503	-0.0645298013245033	-0.917721854304636	-3.39708609271523	0.7435761589404	1.90437086092715				0.964026490066225	0.0834966887417219	0.261933774834437	-0.328211920529802	2.29192052980133	-1.17748344370861				0.559788079470199	-0.270834437086093	-0.788238410596027	-5.57960264900662	7.71761589403974	-2.43470198675497			
151	3420	0.983841059602649	0.0827549668874172	0.232476821192053	1.99337748344371	-1.8246357615894	1.61509933774834				0.992953642384106	0.0477880794701987	0.173139072847682	5.19390728476821	-2.77218543046358	-1.14596026490066				0.997827814569536	-0.00127152317880793	-0.0559470198675496	6.72741721854305	-3.21350993377483	2.31973509933775				0.384529801324503	-0.0645298013245033	-0.917721854304636	-1.71708609271523	2.4235761589404	0.504370860927152				0.980026490066225	0.0834966887417219	0.261933774834437	0.511788079470198	1.17192052980133	-0.337483443708608				0.575788079470199	-0.302834437086093	-0.804238410596027	3.38039735099338	-8.24238410596027	1.76529801324503			
152	3440	0.983841059602649	0.0347549668874172	0.216476821192053	3.39337748344371	-1.5446357615894	1.33509933774834				0.992953642384106	0.0477880794701987	0.237139072847682	1.55390728476821	1.70781456953642	0.53403973509934				0.997827814569536	-0.0172715231788079	-0.0559470198675496	6.44741721854305	-2.37350993377483	1.47973509933775				0.400529801324503	-0.0965298013245033	-0.933721854304636	-3.67708609271523	1.5835761589404	-0.615629139072848				0.964026490066225	0.0994966887417219	0.245933774834437	-0.328211920529802	0.331920529801325	0.502516556291392				0.543788079470199	-0.270834437086093	-0.756238410596026	7.86039735099338	-8.52238410596027	0.925298013245032			
153	3460	0.983841059602649	0.0187549668874172	0.200476821192053	3.95337748344371	-2.9446357615894	-0.0649006622516557				1.00895364238411	0.0317880794701987	0.237139072847682	1.55390728476821	-1.65218543046358	2.21403973509934				0.997827814569536	-0.0332715231788079	-0.0719470198675496	7.56741721854305	-1.25350993377483	0.0797350993377501				0.352529801324503	-0.112529801324503	-0.933721854304636	-5.63708609271523	1.5835761589404	-0.615629139072848				0.980026490066225	0.0994966887417219	0.229933774834437	1.0717880794702	1.45192052980132	-0.0574834437086077				0.527788079470199	-0.222834437086093	-0.740238410596026	-2.77960264900662	3.23761589403974	-2.43470198675497			
154	3480	0.999841059602649	0.00275496688741723	0.184476821192053	2.55337748344371	-2.6646357615894	-1.18490066225166				0.976953642384106	0.0157880794701987	0.221139072847682	2.95390728476821	-3.05218543046358	0.53403973509934				0.981827814569536	-0.0172715231788079	-0.0559470198675496	5.32741721854305	0.146490066225167	-0.76026490066225				0.320529801324503	-0.112529801324503	-0.917721854304636	-3.39708609271523	2.9835761589404	-2.57562913907285				0.964026490066225	0.0674966887417219	0.229933774834437	3.5917880794702	1.17192052980133	-0.337483443708608				0.527788079470199	-0.222834437086093	-0.756238410596026	1.98039735099338	2.39761589403974	-4.95470198675497			
