No	Time	12-AccX	12-AccY	12-AccZ	12-GyroX	12-GyroY	12-GyroZ	13-AccX	13-AccY	13-AccZ	13-GyroX	13-GyroY	13-GyroZ	14-AccX	14-AccY	14-AccZ	14-GyroX	14-GyroY	14-GyroZ	15-AccX	15-AccY	15-AccZ	15-GyroX	15-GyroY	15-GyroZ	16-AccX	16-AccY	16-AccZ	16-GyroX	16-GyroY	16-GyroZ	17-AccX	17-AccY	17-AccZ	17-GyroX	17-GyroY	17-GyroZ
0	120	-0.216158940397351	0.0827549668874172	-0.951523178807947	0.313377483443709	0.135364238410596	-1.46490066225166				0.992953642384106	0.111788079470199	0.0611390728476822	-1.52609271523179	3.66781456953642	0.25403973509934				-0.170172185430464	0.270728476821192	-0.87194701986755	-1.95258278145695	0.706490066225167	0.0797350993377501				0	0	0	0	0	0				0.948026490066225	0.0194966887417219	0.213933774834437	-0.328211920529802	-0.228079470198675	-0.897483443708608				0.383788079470199	-0.270834437086093	-0.820238410596026	-0.819602649006623	-0.682384105960265	-1.03470198675497			
1	140	-0.216158940397351	0.0827549668874172	-0.951523178807947	0.0333774834437086	0.975364238410596	-1.18490066225166				0.992953642384106	0.111788079470199	0.0771390728476822	0.993907284768212	-0.252185430463576	0.25403973509934				-0.186172185430464	0.286728476821192	-0.87194701986755	0.567417218543046	-0.973509933774833	-0.20026490066225				0.480529801324503	-0.192529801324503	-0.805721854304636	-1.43708609271523	-0.3764238410596	-1.17562913907285				0.948026490066225	0.0354966887417219	0.213933774834437	-0.0482119205298018	-0.228079470198675	-0.617483443708608				0.383788079470199	-0.254834437086093	-0.820238410596026	-0.539602649006623	-0.122384105960265	-0.474701986754968			
2	160	-0.232158940397351	0.0827549668874172	-0.935523178807947	0.0333774834437086	0.135364238410596	-1.18490066225166				0.976953642384106	0.111788079470199	0.0451390728476822	0.433907284768212	-1.37218543046358	0.81403973509934				-0.170172185430464	0.254728476821192	-0.87194701986755	0.847417218543046	-0.133509933774833	-0.20026490066225				0.496529801324503	-0.192529801324503	-0.805721854304636	-1.43708609271523	-0.6564238410596	-0.895629139072848				0.948026490066225	0.0194966887417219	0.213933774834437	1.0717880794702	0.331920529801325	-0.337483443708608				0.383788079470199	-0.270834437086093	-0.820238410596026	0.580397350993377	0.717615894039735	-1.31470198675497			
3	180	-0.232158940397351	0.0827549668874172	-0.935523178807947	0.0333774834437086	-0.144635761589404	-0.904900662251656				0.976953642384106	0.111788079470199	0.0451390728476822	-0.686092715231788	-0.812185430463576	0.81403973509934				-0.186172185430464	0.270728476821192	-0.87194701986755	-1.67258278145695	0.426490066225167	-0.20026490066225				0.480529801324503	-0.192529801324503	-0.805721854304636	0.522913907284768	-0.6564238410596	-0.895629139072848				0.964026490066225	0.0354966887417219	0.213933774834437	-0.608211920529802	-0.788079470198675	-0.337483443708608				0.383788079470199	-0.254834437086093	-0.836238410596026	0.300397350993377	1.55761589403974	-1.87470198675497			
4	200	-0.232158940397351	0.0827549668874172	-0.951523178807947	0.0333774834437086	-0.144635761589404	-1.74490066225166				0.976953642384106	0.111788079470199	0.0291390728476822	-1.52609271523179	0.0278145695364242	1.09403973509934				-0.170172185430464	0.270728476821192	-0.87194701986755	0.567417218543046	0.146490066225167	-0.48026490066225				0.496529801324503	-0.192529801324503	-0.821721854304636	2.76291390728477	1.5835761589404	-0.0556291390728476				0.948026490066225	0.0194966887417219	0.213933774834437	0.511788079470198	-1.34807947019868	0.502516556291392				0.383788079470199	-0.270834437086093	-0.820238410596026	0.860397350993377	0.157615894039735	-2.15470198675497			
5	220	-0.232158940397351	0.0987549668874172	-0.951523178807947	-0.246622516556291	0.415364238410596	-1.18490066225166				0.992953642384106	0.127788079470199	0.0611390728476822	-1.80609271523179	0.307814569536424	0.25403973509934				-0.202172185430464	0.286728476821192	-0.88794701986755	1.68741721854305	-0.693509933774834	-0.76026490066225				0.496529801324503	-0.192529801324503	-0.805721854304636	1.92291390728477	-0.0964238410596001	-0.895629139072848				0.948026490066225	0.0194966887417219	0.213933774834437	-0.0482119205298018	-1.62807947019868	-0.897483443708608				0.383788079470199	-0.270834437086093	-0.836238410596026	0.580397350993377	-0.962384105960265	-2.15470198675497			
6	240	-0.232158940397351	0.0827549668874172	-0.935523178807947	-0.246622516556291	0.695364238410596	-0.904900662251656				0.992953642384106	0.111788079470199	0.0451390728476822	-0.966092715231788	-1.09218543046358	0.53403973509934				-0.186172185430464	0.270728476821192	-0.88794701986755	0.567417218543046	0.426490066225167	-0.20026490066225				0.496529801324503	-0.192529801324503	-0.821721854304636	-0.877086092715232	-1.2164238410596	-1.73562913907285				0.948026490066225	0.0194966887417219	0.197933774834437	-0.0482119205298018	-1.62807947019868	0.502516556291392				0.367788079470199	-0.270834437086093	-0.836238410596026	0.0203973509933773	-0.962384105960265	-1.03470198675497			
7	260	-0.216158940397351	0.0987549668874172	-0.935523178807947	-0.246622516556291	0.695364238410596	-0.904900662251656				0.976953642384106	0.111788079470199	0.0611390728476822	0.433907284768212	-0.252185430463576	1.09403973509934				-0.186172185430464	0.270728476821192	-0.85594701986755	-1.95258278145695	2.10649006622517	0.0797350993377501				0.496529801324503	-0.192529801324503	-0.821721854304636	0.242913907284768	-1.2164238410596	-0.895629139072848				0.948026490066225	0.0354966887417219	0.213933774834437	-0.888211920529802	-1.34807947019868	0.502516556291392				0.383788079470199	-0.254834437086093	-0.820238410596026	-0.539602649006623	-0.402384105960265	-0.474701986754968			
8	280	-0.216158940397351	0.0987549668874172	-0.935523178807947	-0.806622516556291	0.135364238410596	-0.904900662251656				0.992953642384106	0.111788079470199	0.0451390728476822	0.713907284768212	-1.37218543046358	1.09403973509934				-0.170172185430464	0.270728476821192	-0.87194701986755	-0.552582781456954	0.706490066225167	-0.20026490066225				0.496529801324503	-0.192529801324503	-0.821721854304636	2.20291390728477	-0.9364238410596	-0.335629139072848				0.948026490066225	0.0194966887417219	0.213933774834437	-0.0482119205298018	-1.06807947019868	-0.0574834437086077				0.383788079470199	-0.254834437086093	-0.852238410596026	0.580397350993377	0.437615894039735	-0.194701986754968			
9	300	-0.216158940397351	0.0827549668874172	-0.935523178807947	0.313377483443709	-0.144635761589404	-0.624900662251656				0.976953642384106	0.111788079470199	0.0451390728476822	0.433907284768212	-0.252185430463576	0.25403973509934				-0.170172185430464	0.286728476821192	-0.87194701986755	1.68741721854305	0.706490066225167	-0.48026490066225				0.496529801324503	-0.192529801324503	-0.821721854304636	1.92291390728477	0.1835761589404	-0.0556291390728476				0.948026490066225	0.0194966887417219	0.213933774834437	0.511788079470198	-1.34807947019868	1.34251655629139				0.367788079470199	-0.270834437086093	-0.836238410596026	1.70039735099338	0.437615894039735	-1.03470198675497			
10	320	-0.232158940397351	0.0987549668874172	-0.951523178807947	0.593377483443709	-0.424635761589404	-0.344900662251656				0.992953642384106	0.127788079470199	0.0451390728476822	0.713907284768212	1.70781456953642	0.81403973509934				-0.186172185430464	0.270728476821192	-0.87194701986755	1.40741721854305	0.426490066225167	0.35973509933775				0.480529801324503	-0.208529801324503	-0.805721854304636	1.36291390728477	0.4635761589404	0.504370860927152				0.932026490066225	0.0194966887417219	0.213933774834437	1.6317880794702	-0.788079470198675	0.782516556291392				0.351788079470199	-0.286834437086093	-0.836238410596026	1.98039735099338	0.437615894039735	-0.194701986754968			
11	340	-0.232158940397351	0.0987549668874172	-0.951523178807947	0.873377483443709	0.415364238410596	-0.904900662251656				1.00895364238411	0.111788079470199	0.0611390728476822	0.993907284768212	1.98781456953642	0.53403973509934				0	0	0	0	0	0				0.480529801324503	-0.208529801324503	-0.821721854304636	-0.317086092715232	0.1835761589404	-0.335629139072848				0.948026490066225	0.0194966887417219	0.213933774834437	1.3517880794702	0.0519205298013249	1.06251655629139				0.367788079470199	-0.270834437086093	-0.820238410596026	-1.09960264900662	0.157615894039735	1.20529801324503			
12	360	0	0	0	0	0	0				0.992953642384106	0.111788079470199	0.0611390728476822	0.433907284768212	-1.37218543046358	-0.30596026490066				-0.170172185430464	0.286728476821192	-0.87194701986755	-0.552582781456954	0.706490066225167	0.35973509933775				0.480529801324503	-0.192529801324503	-0.821721854304636	-0.597086092715232	2.1435761589404	0.504370860927152				0.948026490066225	0.0194966887417219	0.213933774834437	1.0717880794702	1.45192052980132	0.502516556291392				0.367788079470199	-0.254834437086093	-0.836238410596026	-1.65960264900662	1.55761589403974	1.76529801324503			
13	380	-0.216158940397351	0.0827549668874172	-0.919523178807947	0.313377483443709	0.695364238410596	-0.624900662251656				0.976953642384106	0.111788079470199	0.0451390728476822	0.713907284768212	-1.37218543046358	0.81403973509934				-0.170172185430464	0.270728476821192	-0.87194701986755	0.287417218543046	0.146490066225167	0.63973509933775				0.496529801324503	-0.176529801324503	-0.805721854304636	0.522913907284768	2.4235761589404	-0.0556291390728476				0.948026490066225	0.0194966887417219	0.213933774834437	2.4717880794702	0.331920529801325	-0.337483443708608				0.383788079470199	-0.254834437086093	-0.836238410596026	1.98039735099338	2.39761589403974	1.20529801324503			
14	400	-0.200158940397351	0.0827549668874172	-0.935523178807947	-1.08662251655629	-0.144635761589404	-0.904900662251656				0.976953642384106	0.111788079470199	0.0291390728476822	1.55390728476821	-1.93218543046358	-0.0259602649006601				-0.170172185430464	0.270728476821192	-0.85594701986755	0.287417218543046	0.426490066225167	0.91973509933775				0.496529801324503	-0.192529801324503	-0.789721854304636	1.36291390728477	2.9835761589404	-0.615629139072848				0.948026490066225	0.0354966887417219	0.213933774834437	1.9117880794702	2.57192052980133	0.222516556291392				0.367788079470199	-0.254834437086093	-0.820238410596026	2.82039735099338	2.67761589403974	-0.474701986754968			
15	420	-0.216158940397351	0.0827549668874172	-0.951523178807947	-0.806622516556291	0.135364238410596	-0.624900662251656				0.976953642384106	0.111788079470199	0.0451390728476822	1.55390728476821	-1.37218543046358	0.53403973509934				-0.170172185430464	0.286728476821192	-0.87194701986755	0.00741721854304636	0.426490066225167	0.35973509933775				0.496529801324503	-0.192529801324503	-0.789721854304636	2.48291390728477	2.9835761589404	-0.335629139072848				0.932026490066225	0.0194966887417219	0.181933774834437	0.231788079470198	-1.34807947019868	0.502516556291392				0.367788079470199	-0.254834437086093	-0.820238410596026	2.54039735099338	3.51761589403974	-1.31470198675497			
16	440	-0.216158940397351	0.0987549668874172	-0.951523178807947	0.0333774834437086	0.415364238410596	-0.0649006622516557				0.976953642384106	0.111788079470199	0.0451390728476822	0.993907284768212	0.587814569536424	1.37403973509934				-0.154172185430464	0.286728476821192	-0.88794701986755	2.52741721854305	-0.413509933774833	-0.20026490066225				0.496529801324503	-0.192529801324503	-0.805721854304636	2.20291390728477	1.5835761589404	-1.17562913907285				0.932026490066225	0.0194966887417219	0.213933774834437	0.791788079470198	0.0519205298013249	-0.0574834437086077				0.383788079470199	-0.254834437086093	-0.820238410596026	1.42039735099338	2.95761589403974	-1.03470198675497			
17	460	-0.232158940397351	0.0827549668874172	-0.951523178807947	-1.08662251655629	0.695364238410596	-1.18490066225166				0.992953642384106	0.111788079470199	0.0611390728476822	-2.92609271523179	0.867814569536424	1.09403973509934				-0.170172185430464	0.270728476821192	-0.87194701986755	3.36741721854305	0.706490066225167	-0.20026490066225				0.480529801324503	-0.192529801324503	-0.821721854304636	1.36291390728477	-0.3764238410596	-1.17562913907285				0.932026490066225	0.0354966887417219	0.213933774834437	0.791788079470198	0.891920529801325	0.222516556291392				0.383788079470199	-0.270834437086093	-0.836238410596026	0.860397350993377	0.717615894039735	-0.474701986754968			
18	480	-0.216158940397351	0.0827549668874172	-0.935523178807947	-0.246622516556291	0.135364238410596	-0.904900662251656				0.992953642384106	0.111788079470199	0.0771390728476822	-0.966092715231788	-1.93218543046358	0.53403973509934				-0.170172185430464	0.270728476821192	-0.87194701986755	3.36741721854305	0.426490066225167	-0.76026490066225				0.496529801324503	-0.192529801324503	-0.805721854304636	-1.43708609271523	-0.6564238410596	-1.73562913907285				0.948026490066225	0.0354966887417219	0.213933774834437	1.9117880794702	3.41192052980132	0.222516556291392				0.383788079470199	-0.254834437086093	-0.836238410596026	1.14039735099338	0.157615894039735	-1.31470198675497			
19	500	-0.216158940397351	0.0987549668874172	-0.951523178807947	-0.526622516556291	-0.424635761589404	-0.624900662251656				0.992953642384106	0.111788079470199	0.0451390728476822	2.39390728476821	-4.45218543046358	0.81403973509934				-0.170172185430464	0.286728476821192	-0.85594701986755	2.80741721854305	-0.413509933774833	-0.76026490066225				0.512529801324503	-0.192529801324503	-0.821721854304636	-1.43708609271523	0.1835761589404	-1.73562913907285				0.964026490066225	0.0194966887417219	0.213933774834437	3.0317880794702	3.69192052980133	-0.0574834437086077				0.399788079470199	-0.254834437086093	-0.836238410596026	1.98039735099338	0.997615894039735	-1.87470198675497			
20	520	-0.216158940397351	0.0987549668874172	-0.951523178807947	-0.806622516556291	0.135364238410596	-0.344900662251656				0.976953642384106	0.127788079470199	0.0451390728476822	4.35390728476821	-2.49218543046358	1.65403973509934				-0.170172185430464	0.270728476821192	-0.87194701986755	4.76741721854305	-1.25350993377483	-0.20026490066225				0.512529801324503	-0.192529801324503	-0.805721854304636	0.522913907284768	-0.3764238410596	-0.615629139072848				0.964026490066225	0.0194966887417219	0.213933774834437	1.9117880794702	3.13192052980133	-0.337483443708608				0.399788079470199	-0.270834437086093	-0.820238410596026	2.54039735099338	1.55761589403974	-3.55470198675497			
21	540	-0.232158940397351	0.0987549668874172	-0.951523178807947	0.873377483443709	0.695364238410596	-0.0649006622516557				0.992953642384106	0.127788079470199	0.0451390728476822	4.35390728476821	-0.812185430463576	1.37403973509934				-0.186172185430464	0.270728476821192	-0.88794701986755	3.92741721854305	0.426490066225167	-0.48026490066225				0.512529801324503	-0.192529801324503	-0.821721854304636	1.08291390728477	-1.2164238410596	-2.01562913907285				0.964026490066225	0.0354966887417219	0.229933774834437	1.3517880794702	0.611920529801325	-0.0574834437086077				0.399788079470199	-0.270834437086093	-0.820238410596026	1.98039735099338	0.997615894039735	-2.99470198675497			
22	560	-0.216158940397351	0.0827549668874172	-0.935523178807947	1.15337748344371	0.975364238410596	-0.904900662251656				0.992953642384106	0.111788079470199	0.0611390728476822	1.27390728476821	0.867814569536424	1.09403973509934				-0.170172185430464	0.270728476821192	-0.88794701986755	2.24741721854305	0.146490066225167	0.0797350993377501				0.496529801324503	-0.192529801324503	-0.821721854304636	0.802913907284768	-0.6564238410596	-1.73562913907285				0.948026490066225	0.0354966887417219	0.229933774834437	3.0317880794702	0.331920529801325	-0.337483443708608				0.399788079470199	-0.286834437086093	-0.820238410596026	0.300397350993377	0.437615894039735	-1.59470198675497			
23	580	-0.232158940397351	0.0827549668874172	-0.919523178807947	0.313377483443709	0.415364238410596	-1.18490066225166				0.992953642384106	0.111788079470199	0.0611390728476822	2.11390728476821	-1.93218543046358	0.81403973509934				-0.186172185430464	0.254728476821192	-0.87194701986755	3.92741721854305	-0.693509933774834	-0.48026490066225				0.496529801324503	-0.208529801324503	-0.821721854304636	-1.15708609271523	-0.6564238410596	-1.45562913907285				0.964026490066225	0.0194966887417219	0.229933774834437	3.3117880794702	0.611920529801325	-0.897483443708608				0.399788079470199	-0.270834437086093	-0.836238410596026	-0.819602649006623	0.157615894039735	-0.754701986754968			
24	600	-0.232158940397351	0.0987549668874172	-0.935523178807947	-0.526622516556291	0.135364238410596	-0.904900662251656				1.00895364238411	0.111788079470199	0.0451390728476822	4.07390728476821	-4.17218543046358	0.81403973509934				-0.186172185430464	0.254728476821192	-0.87194701986755	5.60741721854305	-1.25350993377483	0.35973509933775				0.480529801324503	-0.192529801324503	-0.821721854304636	-1.15708609271523	-0.0964238410596001	-0.895629139072848				0.964026490066225	0.0194966887417219	0.197933774834437	1.9117880794702	2.01192052980133	-0.337483443708608				0.399788079470199	-0.254834437086093	-0.836238410596026	0.0203973509933773	-0.122384105960265	-1.87470198675497			
25	620	-0.216158940397351	0.0827549668874172	-0.951523178807947	0.0333774834437086	0.415364238410596	-0.344900662251656				0.992953642384106	0.111788079470199	0.0291390728476822	5.19390728476821	-3.33218543046358	1.37403973509934				-0.186172185430464	0.270728476821192	-0.88794701986755	4.76741721854305	-0.973509933774833	1.19973509933775				0.480529801324503	-0.192529801324503	-0.805721854304636	-0.597086092715232	-1.4964238410596	-0.0556291390728476				0.948026490066225	0.0354966887417219	0.229933774834437	1.0717880794702	2.01192052980133	-0.337483443708608				0.399788079470199	-0.270834437086093	-0.836238410596026	1.98039735099338	0.157615894039735	-3.55470198675497			
26	640	-0.216158940397351	0.0827549668874172	-0.951523178807947	0.873377483443709	0.975364238410596	-0.344900662251656				0.976953642384106	0.111788079470199	0.0291390728476822	4.91390728476821	-1.65218543046358	2.21403973509934				-0.170172185430464	0.270728476821192	-0.85594701986755	3.64741721854305	0.706490066225167	1.19973509933775				0.496529801324503	-0.192529801324503	-0.821721854304636	-0.317086092715232	-1.4964238410596	-0.335629139072848				0.932026490066225	0.0194966887417219	0.213933774834437	0.791788079470198	0.891920529801325	-0.337483443708608				0.367788079470199	-0.270834437086093	-0.836238410596026	1.98039735099338	-0.122384105960265	-2.43470198675497			
27	660	-0.216158940397351	0.0667549668874172	-0.951523178807947	0.0333774834437086	1.2553642384106	-0.0649006622516557				0.992953642384106	0.0957880794701987	0.0451390728476822	3.23390728476821	-1.37218543046358	1.65403973509934				-0.170172185430464	0.254728476821192	-0.85594701986755	5.60741721854305	-0.133509933774833	0.91973509933775				0.480529801324503	-0.192529801324503	-0.805721854304636	-0.597086092715232	-1.2164238410596	-0.335629139072848				0.964026490066225	0.0194966887417219	0.213933774834437	0.511788079470198	0.0519205298013249	-0.0574834437086077				0.383788079470199	-0.270834437086093	-0.836238410596026	0.580397350993377	-0.122384105960265	-1.59470198675497			
28	680	-0.232158940397351	0.0827549668874172	-0.935523178807947	0.0333774834437086	0.135364238410596	-0.0649006622516557				0.976953642384106	0.111788079470199	0.0291390728476822	3.23390728476821	-1.93218543046358	0.81403973509934				-0.170172185430464	0.270728476821192	-0.87194701986755	8.12741721854305	-1.25350993377483	0.63973509933775				0.480529801324503	-0.192529801324503	-0.805721854304636	-0.877086092715232	-0.9364238410596	-0.0556291390728476				0.948026490066225	0.0194966887417219	0.229933774834437	0.231788079470198	2.29192052980133	-0.617483443708608				0.367788079470199	-0.254834437086093	-0.836238410596026	0.300397350993377	-0.122384105960265	-1.87470198675497			
29	700	-0.232158940397351	0.0827549668874172	-0.935523178807947	-0.526622516556291	-0.144635761589404	-0.0649006622516557				0.976953642384106	0.111788079470199	0.0291390728476822	2.39390728476821	-0.252185430463576	0.81403973509934				-0.170172185430464	0.270728476821192	-0.87194701986755	4.76741721854305	0.426490066225167	0.91973509933775				0.480529801324503	-0.192529801324503	-0.805721854304636	-0.597086092715232	-0.9364238410596	-0.0556291390728476				0.948026490066225	0.0194966887417219	0.213933774834437	-0.0482119205298018	3.97192052980133	-0.617483443708608				0.367788079470199	-0.254834437086093	-0.836238410596026	1.42039735099338	-1.52238410596026	-1.59470198675497			
30	720	-0.232158940397351	0.0827549668874172	-0.951523178807947	-0.246622516556291	0.695364238410596	0.215099337748344				0.992953642384106	0.111788079470199	0.0451390728476822	1.83390728476821	0.0278145695364242	1.09403973509934				-0.186172185430464	0.254728476821192	-0.87194701986755	1.68741721854305	-0.133509933774833	1.47973509933775				0.496529801324503	-0.192529801324503	-0.805721854304636	0.522913907284768	-0.3764238410596	0.504370860927152				0.948026490066225	0.0194966887417219	0.213933774834437	1.0717880794702	2.85192052980133	0.502516556291392				0.367788079470199	-0.270834437086093	-0.820238410596026	2.26039735099338	-0.402384105960265	-2.15470198675497			
31	740	-0.232158940397351	0.0827549668874172	-0.951523178807947	0.593377483443709	0.135364238410596	0.215099337748344				0.992953642384106	0.0957880794701987	0.0611390728476822	1.55390728476821	1.98781456953642	0.53403973509934				-0.186172185430464	0.254728476821192	-0.88794701986755	2.52741721854305	0.426490066225167	0.91973509933775				0.496529801324503	-0.208529801324503	-0.821721854304636	1.36291390728477	-1.2164238410596	0.784370860927152				0.948026490066225	0.0194966887417219	0.229933774834437	2.7517880794702	2.85192052980133	-0.0574834437086077				0.367788079470199	-0.270834437086093	-0.820238410596026	1.70039735099338	0.437615894039735	-3.27470198675497			
32	760	-0.232158940397351	0.0667549668874172	-0.951523178807947	0.0333774834437086	0.695364238410596	0.495099337748344				1.00895364238411	0.111788079470199	0.0451390728476822	1.55390728476821	3.38781456953642	0.81403973509934				-0.170172185430464	0.238728476821192	-0.88794701986755	3.92741721854305	1.26649006622517	1.75973509933775				0.496529801324503	-0.208529801324503	-0.837721854304636	-0.597086092715232	-1.4964238410596	-0.895629139072848				0.964026490066225	0.0194966887417219	0.229933774834437	1.6317880794702	1.73192052980133	-0.0574834437086077				0.367788079470199	-0.286834437086093	-0.820238410596026	1.42039735099338	1.27761589403974	-3.55470198675497			
33	780	-0.232158940397351	0.0827549668874172	-0.903523178807947	-0.246622516556291	0.135364238410596	0.495099337748344				0.976953642384106	0.0957880794701987	0.0451390728476822	2.11390728476821	2.26781456953642	0.53403973509934				-0.202172185430464	0.238728476821192	-0.90394701986755	1.12741721854305	0.426490066225167	2.59973509933775				0.496529801324503	-0.192529801324503	-0.821721854304636	-1.71708609271523	-0.9364238410596	-1.17562913907285				0.948026490066225	0.0194966887417219	0.213933774834437	1.6317880794702	2.01192052980133	-0.337483443708608				0.383788079470199	-0.270834437086093	-0.836238410596026	0.300397350993377	1.27761589403974	-3.27470198675497			
34	800	-0.216158940397351	0.0827549668874172	-0.951523178807947	-0.246622516556291	1.2553642384106	0.775099337748344				0.976953642384106	0.0957880794701987	0.0291390728476822	0.993907284768212	2.26781456953642	1.65403973509934				-0.186172185430464	0.254728476821192	-0.88794701986755	0.847417218543046	0.706490066225167	3.71973509933775				0.496529801324503	-0.176529801324503	-0.821721854304636	-2.83708609271523	-2.8964238410596	-2.85562913907285				0.948026490066225	0.0194966887417219	0.229933774834437	1.3517880794702	2.01192052980133	-1.45748344370861				0.383788079470199	-0.254834437086093	-0.836238410596026	0.580397350993377	1.27761589403974	-3.55470198675497			
35	820	-0.232158940397351	0.0827549668874172	-0.951523178807947	-0.246622516556291	1.2553642384106	0.775099337748344				0.992953642384106	0.111788079470199	0.0291390728476822	0.153907284768212	2.54781456953642	0.81403973509934				-0.186172185430464	0.270728476821192	-0.87194701986755	4.20741721854305	-0.413509933774833	1.75973509933775				0.496529801324503	-0.176529801324503	-0.805721854304636	-2.27708609271523	-3.7364238410596	-2.85562913907285				0.964026490066225	0.0194966887417219	0.229933774834437	1.9117880794702	0.891920529801325	-1.17748344370861				0.367788079470199	-0.254834437086093	-0.836238410596026	1.70039735099338	1.27761589403974	-4.67470198675497			
36	840	-0.216158940397351	0.0827549668874172	-0.951523178807947	-0.806622516556291	2.0953642384106	0.495099337748344				0.976953642384106	0.111788079470199	0.0291390728476822	2.11390728476821	1.70781456953642	1.09403973509934				-0.170172185430464	0.254728476821192	-0.88794701986755	10.647417218543	-0.973509933774833	1.47973509933775				0.496529801324503	-0.192529801324503	-0.821721854304636	-1.15708609271523	-4.0164238410596	-3.69562913907285				0.948026490066225	0.0194966887417219	0.229933774834437	2.1917880794702	0.0519205298013249	-0.337483443708608				0.383788079470199	-0.286834437086093	-0.836238410596026	1.98039735099338	2.11761589403974	-5.23470198675497			
37	860	-0.216158940397351	0.0827549668874172	-0.935523178807947	-0.526622516556291	1.2553642384106	-0.624900662251656				0.992953642384106	0.111788079470199	0.0451390728476822	1.55390728476821	2.82781456953642	1.93403973509934				-0.170172185430464	0.254728476821192	-0.87194701986755	12.607417218543	-2.37350993377483	-0.20026490066225				0.496529801324503	-0.192529801324503	-0.821721854304636	-1.71708609271523	-4.0164238410596	-4.25562913907285				0.948026490066225	0.0194966887417219	0.229933774834437	3.8717880794702	0.0519205298013249	-0.337483443708608				0.399788079470199	-0.286834437086093	-0.836238410596026	1.42039735099338	1.83761589403974	-4.39470198675497			
38	880	-0.216158940397351	0.0987549668874172	-0.935523178807947	-0.806622516556291	0.415364238410596	-0.624900662251656				0.976953642384106	0.111788079470199	0.0291390728476822	1.55390728476821	2.82781456953642	1.37403973509934				-0.170172185430464	0.254728476821192	-0.85594701986755	12.887417218543	-1.53350993377483	1.47973509933775				0.496529801324503	-0.192529801324503	-0.805721854304636	-2.27708609271523	-3.1764238410596	-3.13562913907285				0.948026490066225	0.0194966887417219	0.229933774834437	3.8717880794702	0.611920529801325	-0.617483443708608				0.383788079470199	-0.286834437086093	-0.836238410596026	0.580397350993377	-0.122384105960265	-4.39470198675497			
39	900	-0.216158940397351	0.114754966887417	-0.935523178807947	-1.08662251655629	0.415364238410596	-0.624900662251656				0.960953642384106	0.0957880794701987	0.0291390728476822	0.993907284768212	3.38781456953642	2.21403973509934				-0.170172185430464	0.270728476821192	-0.87194701986755	10.927417218543	0.146490066225167	0.63973509933775				0.464529801324503	-0.192529801324503	-0.789721854304636	-1.15708609271523	-1.7764238410596	-2.57562913907285				0.948026490066225	0.0194966887417219	0.229933774834437	4.1517880794702	1.73192052980133	-0.0574834437086077				0.383788079470199	-0.270834437086093	-0.820238410596026	-1.09960264900662	0.157615894039735	-2.71470198675497			
40	920	-0.216158940397351	0.0987549668874172	-0.951523178807947	0.593377483443709	2.3753642384106	-0.904900662251656				0.976953642384106	0.111788079470199	0.0451390728476822	0.433907284768212	6.18781456953642	0.81403973509934				-0.170172185430464	0.270728476821192	-0.88794701986755	8.96741721854305	-1.25350993377483	-0.76026490066225				0.480529801324503	-0.160529801324503	-0.805721854304636	-0.317086092715232	-1.2164238410596	-2.29562913907285				0.948026490066225	0.0354966887417219	0.229933774834437	3.8717880794702	1.73192052980133	-0.617483443708608				0.383788079470199	-0.254834437086093	-0.820238410596026	-1.09960264900662	-0.962384105960265	-2.43470198675497			
41	940	-0.216158940397351	0.0827549668874172	-0.951523178807947	1.99337748344371	1.8153642384106	-0.344900662251656				0.992953642384106	0.111788079470199	0.0451390728476822	-0.126092715231788	6.46781456953642	1.93403973509934				-0.170172185430464	0.270728476821192	-0.88794701986755	10.367417218543	-0.413509933774833	-1.60026490066225				0.480529801324503	-0.160529801324503	-0.821721854304636	0.242913907284768	-1.4964238410596	-2.29562913907285				0	0	0	0	0	0				0	0	0	0	0	0			
42	960	-0.216158940397351	0.0827549668874172	-0.919523178807947	0.873377483443709	2.0953642384106	-0.624900662251656				0	0	0	0	0	0				0	0	0	0	0	0				0	0	0	0	0	0				0	0	0	0	0	0				0	0	0	0	0	0			
43	1060	0	0	0	0	0	0				0	0	0	0	0	0				0	0	0	0	0	0				0	0	0	0	0	0				0	0	0	0	0	0				0.383788079470199	-0.270834437086093	-0.836238410596026	4.50039735099338	-0.402384105960265	-4.11470198675497			
44	1080	0	0	0	0	0	0				0.976953642384106	0.111788079470199	0.0611390728476822	1.83390728476821	3.38781456953642	1.09403973509934				-0.170172185430464	0.222728476821192	-0.85594701986755	1.12741721854305	3.50649006622517	-1.60026490066225				0.512529801324503	-0.176529801324503	-0.805721854304636	0.522913907284768	1.0235761589404	-5.65562913907285				0.948026490066225	0.0354966887417219	0.245933774834437	4.4317880794702	1.73192052980133	0.222516556291392				0.399788079470199	-0.270834437086093	-0.820238410596026	0.0203973509933773	0.997615894039735	-2.71470198675497			
45	1100	-0.216158940397351	0.0987549668874172	-0.951523178807947	0.873377483443709	0.695364238410596	-1.74490066225166				0.992953642384106	0.127788079470199	0.0451390728476822	5.47390728476821	-0.252185430463576	1.09403973509934				-0.154172185430464	0.206728476821192	-0.87194701986755	0.567417218543046	0.986490066225167	-0.76026490066225				0.496529801324503	-0.160529801324503	-0.805721854304636	0.242913907284768	0.7435761589404	-5.37562913907285				0.948026490066225	0.0354966887417219	0.229933774834437	3.5917880794702	0.891920529801325	0.222516556291392				0.399788079470199	-0.270834437086093	-0.836238410596026	-1.37960264900662	2.11761589403974	-2.43470198675497			
46	1120	-0.216158940397351	0.0827549668874172	-0.935523178807947	0.873377483443709	0.695364238410596	-1.18490066225166				0.976953642384106	0.111788079470199	0.0291390728476822	4.63390728476821	-4.45218543046358	0.81403973509934				-0.170172185430464	0.222728476821192	-0.90394701986755	0.847417218543046	-1.53350993377483	0.0797350993377501				0.496529801324503	-0.160529801324503	-0.805721854304636	2.76291390728477	0.4635761589404	-3.97562913907285				0.948026490066225	0.0354966887417219	0.245933774834437	3.3117880794702	0.331920529801325	1.34251655629139				0.399788079470199	-0.270834437086093	-0.820238410596026	1.70039735099338	-0.122384105960265	-2.99470198675497			
47	1140	-0.216158940397351	0.0667549668874172	-0.935523178807947	0.873377483443709	0.135364238410596	-1.18490066225166				0.960953642384106	0.0957880794701987	0.0451390728476822	-0.126092715231788	-1.93218543046358	0.25403973509934				-0.186172185430464	0.222728476821192	-0.88794701986755	-2.51258278145695	1.26649006622517	0.0797350993377501				0.496529801324503	-0.176529801324503	-0.805721854304636	5.28291390728477	2.1435761589404	-4.53562913907285				0.948026490066225	0.0354966887417219	0.245933774834437	3.0317880794702	-1.06807947019868	0.782516556291392				0.399788079470199	-0.286834437086093	-0.820238410596026	1.98039735099338	0.717615894039735	-2.15470198675497			
48	1160	-0.232158940397351	0.0667549668874172	-0.935523178807947	0.593377483443709	-0.424635761589404	-1.18490066225166				0.976953642384106	0.0797880794701987	0.0771390728476822	0.153907284768212	3.10781456953642	1.65403973509934				-0.186172185430464	0.206728476821192	-0.85594701986755	-5.59258278145695	2.10649006622517	0.0797350993377501				0.496529801324503	-0.176529801324503	-0.821721854304636	5.28291390728477	2.1435761589404	-4.81562913907285				0.948026490066225	0.0194966887417219	0.245933774834437	3.3117880794702	-1.90807947019868	0.222516556291392				0.399788079470199	-0.286834437086093	-0.804238410596027	1.42039735099338	0.437615894039735	-1.59470198675497			
49	1180	-0.216158940397351	0.0827549668874172	-0.951523178807947	0.593377483443709	0.695364238410596	-1.46490066225166				0.992953642384106	0.0797880794701987	0.0771390728476822	2.95390728476821	1.98781456953642	2.77403973509934				-0.154172185430464	0.206728476821192	-0.85594701986755	-9.23258278145695	1.54649006622517	-0.48026490066225				0.496529801324503	-0.176529801324503	-0.805721854304636	2.76291390728477	2.1435761589404	-4.81562913907285				0.932026490066225	0.0354966887417219	0.245933774834437	2.1917880794702	-0.508079470198675	0.222516556291392				0.399788079470199	-0.270834437086093	-0.820238410596026	-0.539602649006623	2.39761589403974	-0.474701986754968			
50	1200	-0.200158940397351	0.0827549668874172	-0.935523178807947	-0.806622516556291	0.135364238410596	-1.46490066225166				1.00895364238411	0.0957880794701987	0.0451390728476822	4.35390728476821	-5.01218543046358	1.65403973509934				-0.170172185430464	0.222728476821192	-0.88794701986755	-7.55258278145695	0.706490066225167	-0.76026490066225				0.496529801324503	-0.176529801324503	-0.805721854304636	1.36291390728477	1.3035761589404	-3.69562913907285				0.948026490066225	0.0194966887417219	0.229933774834437	2.1917880794702	0.0519205298013249	1.06251655629139				0.415788079470199	-0.270834437086093	-0.804238410596027	0.860397350993377	1.55761589403974	-0.754701986754968			
51	1220	-0.216158940397351	0.0827549668874172	-0.935523178807947	0.593377483443709	-0.424635761589404	-1.18490066225166				0.976953642384106	0.111788079470199	0.0291390728476822	1.55390728476821	-6.69218543046358	1.09403973509934				-0.170172185430464	0.254728476821192	-0.88794701986755	-6.71258278145695	2.10649006622517	0.0797350993377501				0.480529801324503	-0.176529801324503	-0.805721854304636	1.64291390728477	-0.3764238410596	-2.57562913907285				0.948026490066225	0.0194966887417219	0.245933774834437	0.791788079470198	-0.788079470198675	0.502516556291392				0.415788079470199	-0.286834437086093	-0.804238410596027	1.42039735099338	0.997615894039735	-0.474701986754968			
52	1240	-0.216158940397351	0.0827549668874172	-0.951523178807947	1.15337748344371	-0.704635761589404	-1.46490066225166				0.960953642384106	0.0957880794701987	0.0611390728476822	0.713907284768212	-2.49218543046358	1.09403973509934				-0.186172185430464	0.254728476821192	-0.87194701986755	-3.63258278145695	1.82649006622517	-0.20026490066225				0.496529801324503	-0.192529801324503	-0.805721854304636	3.04291390728477	0.7435761589404	-2.01562913907285				0.948026490066225	0.0194966887417219	0.245933774834437	-0.0482119205298018	-1.06807947019868	0.782516556291392				0.415788079470199	-0.286834437086093	-0.804238410596027	1.70039735099338	0.717615894039735	-1.03470198675497			
53	1260	-0.232158940397351	0.0827549668874172	-0.935523178807947	0.593377483443709	-0.144635761589404	-0.904900662251656				0.992953642384106	0.0957880794701987	0.0771390728476822	4.07390728476821	-0.812185430463576	1.09403973509934				-0.154172185430464	0.238728476821192	-0.85594701986755	-1.67258278145695	0.426490066225167	-0.76026490066225				0.496529801324503	-0.192529801324503	-0.805721854304636	4.44291390728477	2.9835761589404	-0.895629139072848				0.948026490066225	0.0354966887417219	0.245933774834437	-0.608211920529802	-0.788079470198675	1.34251655629139				0.415788079470199	-0.270834437086093	-0.820238410596026	0.0203973509933773	-0.122384105960265	0.365298013245032			
54	1280	-0.216158940397351	0.0987549668874172	-0.935523178807947	-0.246622516556291	0.135364238410596	-1.46490066225166				1.02495364238411	0.111788079470199	0.0611390728476822	4.91390728476821	-5.57218543046358	0.25403973509934				-0.170172185430464	0.238728476821192	-0.88794701986755	-3.35258278145695	-1.53350993377483	-1.32026490066225				0.496529801324503	-0.192529801324503	-0.805721854304636	5.28291390728477	4.6635761589404	0.504370860927152				0.948026490066225	0.0194966887417219	0.229933774834437	-0.888211920529802	0.331920529801325	-0.0574834437086077				0.399788079470199	-0.286834437086093	-0.836238410596026	0.0203973509933773	-0.682384105960265	0.365298013245032			
55	1300	-0.216158940397351	0.0827549668874172	-0.935523178807947	0.313377483443709	-0.424635761589404	-0.344900662251656				0.992953642384106	0.111788079470199	0.0291390728476822	1.83390728476821	-8.09218543046358	-1.70596026490066				-0.186172185430464	0.254728476821192	-0.88794701986755	-6.71258278145695	0.706490066225167	-0.76026490066225				0.512529801324503	-0.176529801324503	-0.805721854304636	5.00291390728477	3.5435761589404	1.06437086092715				0.948026490066225	0.0354966887417219	0.245933774834437	-0.608211920529802	0.891920529801325	0.502516556291392				0.399788079470199	-0.270834437086093	-0.820238410596026	0.580397350993377	-0.682384105960265	-1.03470198675497			
56	1320	-0.216158940397351	0.0667549668874172	-0.951523178807947	0.873377483443709	-0.984635761589404	-0.344900662251656				0.976953642384106	0.0957880794701987	0.0291390728476822	0.713907284768212	-7.53218543046358	-0.30596026490066				-0.186172185430464	0.238728476821192	-0.88794701986755	-4.75258278145695	0.986490066225167	-0.48026490066225				0.512529801324503	-0.176529801324503	-0.821721854304636	3.32291390728477	2.4235761589404	0.504370860927152				0.948026490066225	0.0354966887417219	0.245933774834437	-1.1682119205298	0.0519205298013249	0.782516556291392				0.399788079470199	-0.270834437086093	-0.820238410596026	1.14039735099338	-0.122384105960265	-1.31470198675497			
57	1340	-0.232158940397351	0.0827549668874172	-0.951523178807947	0.593377483443709	0.135364238410596	-1.74490066225166				0.976953642384106	0.0957880794701987	0.0451390728476822	2.39390728476821	-5.85218543046358	1.09403973509934				-0.186172185430464	0.222728476821192	-0.88794701986755	-7.27258278145696	0.986490066225167	-0.20026490066225				0.512529801324503	-0.176529801324503	-0.821721854304636	3.04291390728477	1.0235761589404	-0.0556291390728476				0.948026490066225	0.0194966887417219	0.229933774834437	-1.1682119205298	-1.62807947019868	0.502516556291392				0.399788079470199	-0.286834437086093	-0.820238410596026	0.860397350993377	-0.122384105960265	-1.59470198675497			
58	1360	-0.232158940397351	0.0827549668874172	-0.951523178807947	1.15337748344371	0.415364238410596	-2.30490066225166				0.992953642384106	0.0797880794701987	0.0291390728476822	2.11390728476821	-4.45218543046358	1.09403973509934				-0.154172185430464	0.238728476821192	-0.87194701986755	-11.192582781457	2.10649006622517	0.91973509933775				0.512529801324503	-0.192529801324503	-0.821721854304636	2.76291390728477	1.3035761589404	1.06437086092715				0.964026490066225	0.0194966887417219	0.229933774834437	-0.328211920529802	-1.06807947019868	1.34251655629139				0.383788079470199	-0.270834437086093	-0.820238410596026	-1.65960264900662	0.157615894039735	-0.474701986754968			
59	1380	-0.216158940397351	0.0987549668874172	-0.935523178807947	0.313377483443709	0.695364238410596	-1.46490066225166				0.992953642384106	0.0957880794701987	0.0131390728476822	0.433907284768212	-6.41218543046358	-1.42596026490066				-0.186172185430464	0.254728476821192	-0.87194701986755	-9.23258278145695	-0.413509933774833	0.91973509933775				0.512529801324503	-0.192529801324503	-0.821721854304636	2.20291390728477	0.1835761589404	2.18437086092715				0.948026490066225	0.0194966887417219	0.229933774834437	-0.888211920529802	-2.18807947019868	0.782516556291392				0.383788079470199	-0.270834437086093	-0.820238410596026	-1.37960264900662	-0.122384105960265	-0.474701986754968			
60	1400	-0.216158940397351	0.0827549668874172	-0.919523178807947	0.313377483443709	0.135364238410596	-1.46490066225166				0.960953642384106	0.127788079470199	0.0291390728476822	-0.966092715231788	-7.25218543046358	-1.14596026490066				-0.186172185430464	0.286728476821192	-0.87194701986755	-3.35258278145695	-1.25350993377483	0.35973509933775				0.496529801324503	-0.192529801324503	-0.805721854304636	1.36291390728477	-0.0964238410596001	0.504370860927152				0.948026490066225	0.0194966887417219	0.229933774834437	-0.888211920529802	-4.42807947019868	-0.0574834437086077				0.383788079470199	-0.270834437086093	-0.820238410596026	-0.819602649006623	0.717615894039735	-1.31470198675497			
61	1420	-0.216158940397351	0.0827549668874172	-0.951523178807947	-1.08662251655629	-1.5446357615894	-2.02490066225166				0.960953642384106	0.127788079470199	0.0131390728476822	-0.966092715231788	-6.69218543046358	-0.0259602649006601				-0.154172185430464	0.254728476821192	-0.87194701986755	1.96741721854305	-0.413509933774833	-0.20026490066225				0.496529801324503	-0.192529801324503	-0.805721854304636	1.36291390728477	-0.6564238410596	1.90437086092715				0.932026490066225	0.0354966887417219	0.213933774834437	-1.1682119205298	-4.42807947019868	0.782516556291392				0.383788079470199	-0.270834437086093	-0.836238410596026	0.300397350993377	-0.682384105960265	-1.31470198675497			
62	1440	-0.216158940397351	0.0667549668874172	-0.951523178807947	-1.08662251655629	-1.5446357615894	-1.46490066225166				1.00895364238411	0.0957880794701987	0.0291390728476822	0.433907284768212	-5.29218543046358	1.09403973509934				-0.154172185430464	0.254728476821192	-0.88794701986755	1.68741721854305	-0.133509933774833	-0.48026490066225				0.496529801324503	-0.192529801324503	-0.805721854304636	1.36291390728477	-0.6564238410596	2.46437086092715				0.932026490066225	0.0354966887417219	0.229933774834437	-0.888211920529802	-3.02807947019868	-0.337483443708608				0.383788079470199	-0.270834437086093	-0.820238410596026	0.580397350993377	-2.36238410596027	-1.31470198675497			
63	1460	-0.216158940397351	0.0827549668874172	-0.951523178807947	0.313377483443709	-0.144635761589404	-1.18490066225166				0.976953642384106	0.111788079470199	0.0291390728476822	-0.686092715231788	-6.13218543046358	-0.585960264900661				-0.154172185430464	0.254728476821192	-0.85594701986755	0.287417218543046	-0.693509933774834	-0.76026490066225				0.480529801324503	-0.192529801324503	-0.805721854304636	1.36291390728477	-0.9364238410596	2.18437086092715				0.932026490066225	0.0194966887417219	0.213933774834437	-1.4482119205298	-2.18807947019868	0.222516556291392				0.383788079470199	-0.254834437086093	-0.820238410596026	-1.37960264900662	-3.20238410596026	-0.194701986754968			
64	1480	-0.216158940397351	0.0827549668874172	-0.935523178807947	-0.526622516556291	-0.424635761589404	-1.46490066225166				0.960953642384106	0.111788079470199	0.0131390728476822	-2.92609271523179	-8.09218543046358	-1.14596026490066				-0.154172185430464	0.238728476821192	-0.88794701986755	1.12741721854305	-3.49350993377483	-0.48026490066225				0.480529801324503	-0.176529801324503	-0.805721854304636	1.64291390728477	-1.4964238410596	1.34437086092715				0.916026490066225	0.0194966887417219	0.229933774834437	-0.0482119205298018	0.0519205298013249	0.782516556291392				0.383788079470199	-0.238834437086093	-0.820238410596026	-0.819602649006623	-3.48238410596027	-0.194701986754968			
65	1500	-0.216158940397351	0.0667549668874172	-0.919523178807947	-2.20662251655629	-1.5446357615894	-1.74490066225166				0.976953642384106	0.111788079470199	0.0131390728476822	-4.04609271523179	-5.57218543046358	-0.585960264900661				-0.170172185430464	0.254728476821192	-0.87194701986755	-1.39258278145695	-2.37350993377483	-0.48026490066225				0.480529801324503	-0.192529801324503	-0.805721854304636	-1.15708609271523	-2.6164238410596	0.224370860927152				0.932026490066225	0.0354966887417219	0.229933774834437	-0.0482119205298018	-0.788079470198675	-0.337483443708608				0.383788079470199	-0.254834437086093	-0.820238410596026	1.42039735099338	-4.04238410596027	-2.99470198675497			
66	1520	-0.216158940397351	0.0827549668874172	-0.951523178807947	-1.92662251655629	-2.3846357615894	-2.30490066225166				0.976953642384106	0.127788079470199	0.0291390728476822	-1.24609271523179	-0.252185430463576	1.09403973509934				-0.186172185430464	0.238728476821192	-0.85594701986755	-1.39258278145695	-1.25350993377483	0.63973509933775				0.480529801324503	-0.208529801324503	-0.805721854304636	-0.0370860927152318	-1.4964238410596	1.06437086092715				0.932026490066225	0.0354966887417219	0.213933774834437	-0.888211920529802	0.0519205298013249	-0.337483443708608				0.383788079470199	-0.254834437086093	-0.820238410596026	1.14039735099338	-3.76238410596027	-3.83470198675497			
67	1540	-0.216158940397351	0.0987549668874172	-0.967523178807947	-1.64662251655629	-0.984635761589404	-1.74490066225166				0.992953642384106	0.0957880794701987	0.0291390728476822	0.433907284768212	-0.252185430463576	0.25403973509934				-0.170172185430464	0.254728476821192	-0.87194701986755	-2.23258278145695	-0.413509933774833	1.19973509933775				0.480529801324503	-0.192529801324503	-0.805721854304636	-0.317086092715232	0.4635761589404	1.34437086092715				0.948026490066225	0.0354966887417219	0.213933774834437	-1.7282119205298	2.57192052980133	-0.0574834437086077				0.383788079470199	-0.254834437086093	-0.820238410596026	0.0203973509933773	-3.48238410596027	-3.55470198675497			
68	1560	-0.200158940397351	0.0827549668874172	-0.935523178807947	0.593377483443709	-0.424635761589404	-1.46490066225166				0.976953642384106	0.0797880794701987	-0.00286092715231785	-0.686092715231788	-4.17218543046358	0.53403973509934				-0.138172185430464	0.254728476821192	-0.87194701986755	-5.31258278145695	0.426490066225167	0.63973509933775				0.480529801324503	-0.192529801324503	-0.805721854304636	1.08291390728477	0.1835761589404	3.02437086092715				0.916026490066225	0.0354966887417219	0.213933774834437	-2.0082119205298	2.57192052980133	0.502516556291392				0.383788079470199	-0.238834437086093	-0.820238410596026	-1.09960264900662	-3.48238410596027	-5.23470198675497			
69	1580	-0.184158940397351	0.0667549668874172	-0.919523178807947	0.873377483443709	-2.3846357615894	-2.86490066225166				0.944953642384106	0.0797880794701987	-0.0188609271523178	-6.84609271523179	-8.93218543046358	1.65403973509934				-0.0901721854304636	0.206728476821192	-0.83994701986755	-8.39258278145695	0.706490066225167	0.63973509933775				0.464529801324503	-0.176529801324503	-0.805721854304636	2.48291390728477	-1.4964238410596	3.02437086092715				0.916026490066225	0.0354966887417219	0.197933774834437	-1.7282119205298	3.41192052980132	1.06251655629139				0.367788079470199	-0.222834437086093	-0.836238410596026	-0.819602649006623	-4.88238410596027	-6.63470198675497			
70	1600	-0.248158940397351	0.0507549668874172	-0.935523178807947	-2.48662251655629	-4.6246357615894	-4.82490066225166				0.944953642384106	0.0797880794701987	-0.00286092715231785	-13.2860927152318	-4.17218543046358	2.49403973509934				-0.122172185430464	0.190728476821192	-0.85594701986755	-14.272582781457	1.82649006622517	1.75973509933775				0.432529801324503	-0.176529801324503	-0.821721854304636	1.92291390728477	-4.8564238410596	3.58437086092715				0.932026490066225	0.00349668874172187	0.213933774834437	-0.328211920529802	-0.228079470198675	3.02251655629139				0.367788079470199	-0.238834437086093	-0.852238410596026	0.860397350993377	-7.68238410596027	-8.31470198675497			
71	1620	-0.264158940397351	0.0507549668874172	-0.967523178807947	-4.44662251655629	-2.6646357615894	-5.10490066225166				0.960953642384106	0.0637880794701987	0.0291390728476822	-16.0860927152318	4.50781456953642	1.65403973509934				-0.106172185430464	0.302728476821192	-0.87194701986755	-20.152582781457	0.986490066225167	-1.32026490066225				0.464529801324503	-0.192529801324503	-0.821721854304636	1.08291390728477	-5.4164238410596	2.46437086092715				0.916026490066225	0.0194966887417219	0.213933774834437	-5.3682119205298	2.29192052980133	0.222516556291392				0.367788079470199	-0.238834437086093	-0.852238410596026	1.98039735099338	-11.0423841059603	-10.274701986755			
72	1640	-0.280158940397351	0.0667549668874172	-0.999523178807947	-0.526622516556291	1.2553642384106	-5.38490066225166				1.05695364238411	0.0477880794701987	0.0771390728476822	-21.1260927152318	-1.65218543046358	-0.30596026490066				-0.106172185430464	0.270728476821192	-0.88794701986755	-12.872582781457	0.426490066225167	-1.88026490066225				0.416529801324503	-0.224529801324503	-0.837721854304636	2.20291390728477	-4.8564238410596	1.62437086092715				0.884026490066225	0.00349668874172187	0.197933774834437	-5.3682119205298	3.97192052980133	2.46251655629139				0.351788079470199	-0.222834437086093	-0.868238410596026	-0.259602649006623	-13.2823841059603	-12.234701986755			
73	1660	-0.248158940397351	0.0347549668874172	-0.983523178807947	12.6333774834437	-1.2646357615894	-4.54490066225166				1.18495364238411	0.0797880794701987	0.0131390728476822	-16.0860927152318	-59.3321854304636	-3.10596026490066				-0.202172185430464	0.350728476821192	-0.87194701986755	-8.39258278145695	-0.413509933774833	-1.88026490066225				0.384529801324503	-0.272529801324503	-0.853721854304636	1.08291390728477	-3.7364238410596	3.30437086092715				0.948026490066225	-0.0285033112582781	0.165933774834437	-3.1282119205298	8.17192052980133	3.02251655629139				0.335788079470199	-0.238834437086093	-0.900238410596026	-3.05960264900662	-19.4423841059603	-14.754701986755			
74	1680	-0.120158940397351	0.114754966887417	-0.855523178807947	0.593377483443709	-4.3446357615894	0.495099337748344				0.928953642384106	0.207788079470199	-0.194860927152318	-17.4860927152318	-54.2921854304636	-2.82596026490066				-0.282172185430464	0.414728476821192	-0.83994701986755	7.84741721854305	-4.89350993377483	-7.20026490066225				0.400529801324503	-0.272529801324503	-0.901721854304636	-0.877086092715232	-2.3364238410596	8.62437086092715				1.02802649006623	-0.0125033112582781	0.181933774834437	-5.0882119205298	11.8119205298013	-1.73748344370861				0.319788079470199	-0.254834437086093	-0.916238410596027	-1.93960264900662	-23.0823841059603	-15.314701986755			
75	1700	-0.280158940397351	0.0987549668874172	-0.839523178807947	-10.8866225165563	-5.1846357615894	5.25509933774834				0.944953642384106	0.239788079470199	-0.0828609271523179	-8.80609271523179	-31.8921854304636	-2.82596026490066				-0.282172185430464	0.286728476821192	-0.87194701986755	14.567417218543	-6.29350993377483	-3.84026490066225				0.384529801324503	-0.256529801324503	-0.933721854304636	4.44291390728477	-1.2164238410596	10.0243708609272				1.02802649006623	0.0194966887417219	0.133933774834437	-12.6482119205298	13.2119205298013	-3.97748344370861				0.319788079470199	-0.318834437086093	-0.916238410596027	1.70039735099338	-20.0023841059603	-12.234701986755			
76	1720	-0.232158940397351	0.0667549668874172	-1.11152317880795	-10.6066225165563	-3.2246357615894	9.17509933774834				1.18495364238411	0.175788079470199	-0.162860927152318	5.47390728476821	-51.4921854304636	-5.62596026490066				-0.186172185430464	0.222728476821192	-0.93594701986755	-1.11258278145695	-0.693509933774834	-1.88026490066225				0.368529801324503	-0.272529801324503	-0.949721854304636	5.00291390728477	3.2635761589404	10.3043708609272				1.02802649006623	0.0514966887417219	0.0859337748344371	-16.0082119205298	19.0919205298013	-4.53748344370861				0.287788079470199	-0.350834437086093	-0.916238410596027	-1.09960264900662	-13.8423841059603	-8.31470198675497			
77	1740	-0.184158940397351	0.114754966887417	-1.04752317880795	-10.6066225165563	8.5353642384106	13.3750993377483				1.08895364238411	0.127788079470199	-0.338860927152318	-16.6460927152318	-84.2521854304636	-11.5059602649007				-0.266172185430464	0.286728476821192	-0.93594701986755	-14.832582781457	2.94649006622517	-3.28026490066225				0.368529801324503	-0.272529801324503	-0.965721854304636	0.522913907284768	7.4635761589404	9.74437086092715				1.02802649006623	-0.0125033112582781	0.117933774834437	-12.6482119205298	23.8519205298013	-4.81748344370861				0.223788079470199	-0.350834437086093	-0.884238410596026	-7.25960264900662	-9.64238410596027	4.56529801324503			
78	1760	-0.296158940397351	0.0987549668874172	-0.871523178807947	-9.76662251655629	1.8153642384106	10.2950993377483				0.768953642384106	0.175788079470199	-0.258860927152318	-49.4060927152318	-71.9321854304636	-9.54596026490066				-0.330172185430464	0.318728476821192	-0.95194701986755	-24.632582781457	6.30649006622517	-0.76026490066225				0.320529801324503	-0.256529801324503	-0.933721854304636	-7.03708609271523	7.1835761589404	6.38437086092715				0.980026490066225	-0.0125033112582781	0.133933774834437	-13.7682119205298	24.9719205298013	-5.65748344370861				0.127788079470199	-0.302834437086093	-0.868238410596026	-14.5396026490066	-4.88238410596027	19.965298013245			
79	1780	-0.408158940397351	0.0667549668874172	-0.951523178807947	-3.32662251655629	-3.5046357615894	4.97509933774835				0.944953642384106	0.143788079470199	-0.0668609271523178	-34.5660927152318	0.0278145695364242	8.93403973509934				-0.234172185430464	0.238728476821192	-0.88794701986755	-23.512582781457	8.54649006622517	2.03973509933775				0.304529801324503	-0.288529801324503	-0.933721854304636	-18.7970860927152	7.4635761589404	4.14437086092715				0.996026490066225	0.0354966887417219	0.0859337748344371	-10.6882119205298	25.2519205298013	-7.05748344370861				0.127788079470199	-0.254834437086093	-0.916238410596027	-12.5796026490066	5.75761589403974	34.245298013245			
80	1800	-0.360158940397351	0.0987549668874172	-0.983523178807947	-7.80662251655629	2.9353642384106	2.73509933774834				1.10495364238411	0.0157880794701987	-0.00286092715231785	-10.7660927152318	9.54781456953642	8.93403973509934				-0.202172185430464	0.254728476821192	-0.88794701986755	-20.992582781457	10.2264900662252	3.15973509933775				0.320529801324503	-0.320529801324503	-0.981721854304636	-23.5570860927152	11.9435761589404	8.06437086092715				0.996026490066225	0.0354966887417219	0.133933774834437	-10.1282119205298	32.8119205298013	-8.17748344370861				0.191788079470199	-0.238834437086093	-0.964238410596026	0.860397350993377	13.3176158940397	45.165298013245			
81	1820	-0.248158940397351	0.130754966887417	-0.839523178807947	-13.9666225165563	9.3753642384106	1.61509933774834				0.864953642384106	0.111788079470199	-0.258860927152318	-13.0060927152318	10.6678145695364	7.81403973509934				-0.298172185430464	0.318728476821192	-0.83994701986755	-12.872582781457	4.62649006622517	0.0797350993377501				0.400529801324503	-0.288529801324503	-0.965721854304636	-26.6370860927152	11.9435761589404	13.1043708609272				1.02802649006623	-0.0285033112582781	0.149933774834437	-6.7682119205298	36.1719205298013	-7.33748344370861				0.239788079470199	-0.238834437086093	-0.980238410596026	8.42039735099338	17.2376158940397	48.805298013245			
82	1840	-0.248158940397351	0.130754966887417	-0.839523178807947	-19.2866225165563	11.8953642384106	1.89509933774834				0.896953642384106	0.159788079470199	-0.338860927152318	-12.7260927152318	34.1878145695364	11.7340397350993				-0.346172185430464	0.366728476821192	-0.87194701986755	11.487417218543	-4.05350993377483	-1.32026490066225				0.432529801324503	-0.320529801324503	-0.933721854304636	-46.5170860927152	-0.6564238410596	15.6243708609272				1.06002649006623	-0.0285033112582781	0.149933774834437	-6.2082119205298	31.9719205298013	-5.09748344370861				0.287788079470199	-0.270834437086093	-1.02823841059603	7.86039735099338	15.5576158940397	48.805298013245			
83	1860	-0.216158940397351	0.114754966887417	-0.983523178807947	-7.80662251655629	9.0953642384106	1.61509933774834				0.976953642384106	0.175788079470199	-0.274860927152318	-0.406092715231788	49.8678145695364	15.9340397350993				-0.346172185430464	0.286728476821192	-0.90394701986755	49.0074172185431	-7.97350993377484	-1.60026490066225				0.416529801324503	-0.304529801324503	-0.949721854304636	-37.5570860927152	-5.4164238410596	22.3443708609272				1.04402649006623	0.00349668874172187	0.213933774834437	-6.2082119205298	27.2119205298013	-3.41748344370861				0.287788079470199	-0.302834437086093	-1.07623841059603	9.82039735099338	5.75761589403974	52.165298013245			
84	1880	-0.200158940397351	0.146754966887417	-0.999523178807947	-3.60662251655629	7.4153642384106	-0.624900662251656				0.992953642384106	0.111788079470199	-0.178860927152318	5.47390728476821	43.9878145695364	17.0540397350993				-0.330172185430464	0.286728476821192	-0.88794701986755	81.767417218543	-14.4135099337748	-8.88026490066225				0.480529801324503	-0.224529801324503	-0.981721854304636	-22.7170860927152	-4.2964238410596	31.8643708609272				0.996026490066225	0.0354966887417219	0.197933774834437	-9.5682119205298	26.6519205298013	-2.29748344370861				0.287788079470199	-0.302834437086093	-1.04423841059603	5.06039735099338	0.157615894039735	55.805298013245			
85	1900	-0.296158940397351	0.0987549668874172	-0.935523178807947	-10.8866225165563	5.1753642384106	-3.98490066225166				1.02495364238411	0.111788079470199	-0.178860927152318	4.63390728476821	42.3078145695364	16.2140397350993				-0.250172185430464	0.0467284768211921	-0.99994701986755	159.047417218543	-28.1335099337748	-26.5202649006623				0.528529801324503	-0.160529801324503	-0.981721854304636	-26.0770860927152	-14.3764238410596	31.8643708609272				1.04402649006623	0.0194966887417219	0.245933774834437	-3.4082119205298	29.4519205298013	-1.45748344370861				0.271788079470199	-0.254834437086093	-1.07623841059603	-3.89960264900662	-7.96238410596027	53.285298013245			
86	1920	-0.312158940397351	0.0987549668874172	-0.951523178807947	-13.9666225165563	7.6953642384106	-3.98490066225166				1.12095364238411	0.175788079470199	-0.226860927152318	3.23390728476821	49.3078145695364	15.6540397350993				-0.314172185430464	-0.193271523178808	-1.20794701986755	251.727417218543	-53.3335099337748	-20.9202649006623				0.576529801324503	-0.112529801324503	-1.01372185430464	-27.4770860927152	-30.3364238410596	22.3443708609272				1.10802649006623	0.00349668874172187	0.245933774834437	2.4717880794702	21.8919205298013	-0.617483443708608				0.255788079470199	-0.206834437086093	-1.12423841059603	-2.21960264900662	-14.6823841059603	45.165298013245			
87	1940	-0.312158940397351	0.146754966887417	-0.935523178807947	-24.0466225165563	7.4153642384106	-0.904900662251656				1.20095364238411	0.175788079470199	-0.258860927152318	8.55390728476821	66.3878145695364	18.1740397350993				-0.330172185430464	-0.193271523178808	-1.39994701986755	307.447417218543	-93.6535099337748	-26.8002649006623				0.544529801324503	-0.0805298013245033	-0.997721854304636	-22.7170860927152	-41.8164238410596	6.94437086092715				1.20402649006623	-0.0125033112582781	0.229933774834437	-4.5282119205298	14.8919205298013	-0.337483443708608				0.223788079470199	-0.222834437086093	-1.18823841059603	17.3803973509934	-23.0823841059603	35.085298013245			
88	1960	-0.264158940397351	0.146754966887417	-0.919523178807947	-25.4466225165563	12.1753642384106	0.215099337748344				0.960953642384106	0.111788079470199	-0.418860927152318	4.91390728476821	80.1078145695364	6.41403973509934				-0.282172185430464	-0.0652715231788079	-0.42394701986755	125.727417218543	-39.3335099337748	-53.1202649006623				0.528529801324503	-0.112529801324503	-1.01372185430464	-19.6370860927152	-53.0164238410596	-8.73562913907285				1.25202649006623	0.00349668874172187	0.213933774834437	-1.7282119205298	3.13192052980133	3.30251655629139				0.159788079470199	-0.302834437086093	-1.22023841059603	48.4603973509934	-25.8823841059603	28.365298013245			
89	2080	0	0	0	0	0	0				0	0	0	0	0	0				0	0	0	0	0	0				0.0805298013245033	-0.240529801324503	-0.901721854304636	-57.1570860927152	-112.93642384106	-31.1356291390729				1.15602649006623	-0.0125033112582781	-0.0580662251655629	104.67178807947	-53.7080794701987	25.1425165562914				0.239788079470199	-0.574834437086093	-0.980238410596026	-94.8996026490066	-85.5223841059603	139.805298013245			
90	2100	0	0	0	0	0	0				0	0	0	0	0	0				0	0	0	0	0	0				0.208529801324503	0.111470198675497	-0.549721854304636	-42.8770860927152	-94.7364238410596	-58.0156291390729				1.09202649006623	-0.204503311258278	0.325933774834437	124.55178807947	-32.4280794701987	24.5825165562914				0.127788079470199	-0.302834437086093	-0.692238410596026	-100.219602649007	-105.12238410596	126.645298013245			
91	2120	0	0	0	0	0	0				0.816953642384106	0.127788079470199	0.733139072847682	2.67390728476821	77.3078145695364	22.6540397350993				-0.474172185430464	0.126728476821192	-1.09594701986755	71.687417218543	42.1464900662252	-1.04026490066225				0.224529801324503	0.0314701986754967	-0.597721854304636	10.6029139072848	-70.3764238410596	-28.0556291390728				0.836026490066225	-0.0125033112582781	0.549933774834437	92.9117880794702	-59.0280794701987	18.1425165562914				0.111788079470199	-0.222834437086093	-0.548238410596027	-65.2196026490066	-56.6823841059603	100.325298013245			
92	2140	-0.296158940397351	0.178754966887417	-0.967523178807947	-26.2866225165563	55.2953642384106	27.9350993377483				1.20095364238411	-0.128211920529801	0.941139072847682	-5.16609271523179	71.4278145695364	37.4940397350993				-0.282172185430464	-0.0332715231788079	-0.91994701986755	52.0874172185431	46.9064900662252	-14.4802649006623				-0.0954701986754967	-0.0325298013245033	-0.757721854304636	61.8429139072848	-51.0564238410596	-8.73562913907285				0.724026490066225	0.0194966887417219	0.565933774834437	51.4717880794702	-62.9480794701987	10.3025165562914				0.175788079470199	-0.126834437086093	-0.756238410596026	-13.9796026490066	-52.2023841059603	69.525298013245			
93	2160	-0.392158940397351	0.290754966887417	-1.03152317880795	-37.2066225165563	61.1753642384106	31.5750993377483				1.37695364238411	-0.320211920529801	0.813139072847682	-19.7260927152318	46.5078145695364	23.7740397350993				-0.330172185430464	-0.00127152317880793	-1.04794701986755	37.5274172185431	48.0264900662252	-17.8402649006623				0.0965298013245033	-0.112529801324503	-0.933721854304636	85.0829139072848	18.6635761589404	11.9843708609272				0.948026490066225	-0.0605033112582781	0.517933774834437	60.9917880794702	-50.9080794701987	3.30251655629139				0.287788079470199	-0.126834437086093	-0.612238410596026	33.6203973509934	-41.5623841059603	32.285298013245			
94	2180	-0.552158940397351	0.274754966887417	-1.17552317880795	-39.1666225165563	73.4953642384106	37.1750993377484				1.31295364238411	-0.160211920529801	1.02113907284768	-26.7260927152318	-8.37218543046358	-11.7859602649007				-0.506172185430464	-0.177271523178808	-1.17594701986755	51.5274172185431	67.3464900662252	-27.0802649006623				0.384529801324503	-0.144529801324503	-1.18972185430464	139.682913907285	34.3435761589404	28.2243708609272				1.04402649006623	-0.0605033112582781	0.741933774834437	90.1117880794702	-22.3480794701987	5.82251655629139				0.367788079470199	-0.606834437086093	-0.516238410596026	26.0603973509934	-2.64238410596027	-3.83470198675497			
95	2200	-0.408158940397351	0.402754966887417	-1.06352317880795	-3.04662251655629	72.9353642384106	38.5750993377483				1.08895364238411	-0.144211920529801	1.19713907284768	-14.9660927152318	-27.1321854304636	-29.9859602649007				-0.506172185430464	-0.321271523178808	-1.04794701986755	8.12741721854305	77.9864900662252	-27.6402649006623				0.768529801324503	-0.272529801324503	-1.34972185430464	58.7629139072848	14.7435761589404	-1.17562913907285				1.07602649006623	0.195496688741722	0.885933774834437	22.0717880794702	6.21192052980133	-9.29748344370861				0.543788079470199	-0.958834437086093	-0.788238410596027	-19.8596026490066	43.5576158940397	-23.994701986755			
96	2220	-0.136158940397351	0.402754966887417	-0.967523178807947	27.7533774834437	79.6553642384106	38.5750993377483				1.23295364238411	-0.0802119205298013	1.06913907284768	25.0739072847682	-27.9721854304636	-21.0259602649007				-0.218172185430464	-0.289271523178808	-0.88794701986755	-54.032582781457	88.6264900662252	-18.4002649006623				0.640529801324503	-0.336529801324503	-1.18972185430464	-36.1570860927152	5.7835761589404	-20.4956291390729				1.26802649006623	0.371496688741722	0.533933774834437	-9.2882119205298	-0.508079470198675	-8.17748344370861				0.559788079470199	-1.03883443708609	-0.852238410596026	-19.0196026490066	55.0376158940397	-21.754701986755			
97	2240	0.151841059602649	0.354754966887417	-0.983523178807947	16.2733774834437	92.2553642384106	38.8550993377483				1.32895364238411	-0.0162119205298013	0.685139072847682	51.3939072847682	-49.8121854304636	-22.4259602649007				-0.0741721854304636	0.0307284768211921	-1.03194701986755	-78.672582781457	96.4664900662252	-11.9602649006623				0.528529801324503	-0.112529801324503	-0.981721854304636	-14.3170860927152	43.5835761589404	-3.13562913907285				1.33202649006623	0.0994966887417219	0.501933774834437	5.2717880794702	-3.30807947019868	-2.01748344370861				0.431788079470199	-0.878834437086093	-1.14023841059603	-51.4996026490066	46.0776158940397	-27.074701986755			
98	2260	0.199841059602649	0.306754966887417	-1.03152317880795	8.15337748344371	104.855364238411	30.4550993377483				1.39295364238411	0.0317880794701987	0.509139072847682	21.4339072847682	-94.8921854304636	-39.5059602649007				0.101827814569536	0.190728476821192	-1.04794701986755	-41.712582781457	104.866490066225	-13.3602649006623				0.288529801324503	-0.000529801324503289	-0.853721854304636	29.3629139072848	65.1435761589404	9.46437086092715				1.25202649006623	-0.0445033112582781	0.421933774834437	-19.3682119205298	-20.6680794701987	0.222516556291392				0.495788079470199	-0.446834437086093	-1.28423841059603	-37.7796026490066	41.8776158940397	-33.514701986755			
99	2280	0.215841059602649	0.466754966887417	-0.999523178807947	14.5933774834437	111.855364238411	17.8550993377483				1.07295364238411	0.159788079470199	0.445139072847682	10.7939072847682	-108.052185430464	-47.3459602649007				0.245827814569536	0.0307284768211921	-0.98394701986755	-16.512582781457	112.426490066225	-16.7202649006623				0.0965298013245033	-0.000529801324503289	-0.917721854304636	58.2029139072848	78.0235761589404	9.46437086092715				1.12402649006623	0.00349668874172187	0.277933774834437	-31.1282119205298	-25.9880794701987	1.06251655629139				0.191788079470199	-0.430834437086093	-0.964238410596026	10.6603973509934	46.9176158940397	-23.154701986755			
100	2300	0.407841059602649	0.450754966887417	-0.983523178807947	51.8333774834437	127.255364238411	10.5750993377483				1.08895364238411	0.271788079470199	0.605139072847682	44.6739072847682	-88.7321854304636	-26.3459602649007				0.261827814569536	-0.0652715231788079	-0.91994701986755	-0.552582781456954	120.826490066225	-15.0402649006623				0.112529801324503	-0.0485298013245033	-0.981721854304636	51.2029139072848	80.8235761589404	15.0643708609272				1.04402649006623	0.0994966887417219	0.181933774834437	-50.7282119205298	-6.94807947019868	1.06251655629139				0.0637880794701987	-0.398834437086093	-0.900238410596026	-4.45960264900662	64.2776158940397	-31.274701986755			
101	2320	0.583841059602649	0.258754966887417	-0.871523178807947	79.8333774834437	133.975364238411	15.3350993377483				1.18495364238411	0.0957880794701987	0.541139072847682	65.6739072847682	-91.2521854304636	-22.9859602649007				0.261827814569536	-0.0972715231788079	-0.90394701986755	2.52741721854305	123.626490066225	-12.5202649006623				0.192529801324503	-0.224529801324503	-1.01372185430464	61.0029139072848	94.5435761589404	24.8643708609272				1.10802649006623	0.195496688741722	0.0539337748344371	-74.8082119205298	11.5319205298013	-4.25748344370861				0.127788079470199	-0.270834437086093	-0.916238410596027	-14.2596026490066	74.3576158940397	-43.314701986755			
102	2340	0.599841059602649	0.114754966887417	-0.887523178807947	61.3533774834437	144.055364238411	14.4950993377483				1.05695364238411	-0.128211920529801	0.253139072847682	49.7139072847682	-80.0521854304636	-17.9459602649007				0.357827814569536	-0.129271523178808	-0.88794701986755	-6.71258278145695	126.426490066225	-11.6802649006622				0.336529801324503	-0.464529801324503	-1.02972185430464	80.8829139072848	109.38357615894	22.6243708609272				1.07602649006623	0.0514966887417219	-0.0260662251655629	-56.8882119205298	12.3719205298013	-3.69748344370861				0.127788079470199	-0.174834437086093	-0.852238410596026	-14.2596026490066	90.0376158940397	-44.434701986755			
103	2360	0.519841059602649	-0.0132450331125828	-0.823523178807947	30.8333774834437	146.855364238411	8.89509933774834				0.976953642384106	0.0317880794701987	0.141139072847682	32.3539072847682	-58.2121854304636	-16.2659602649007				0.453827814569536	-0.0972715231788079	-0.83994701986755	-15.392582781457	127.826490066225	-9.44026490066225				0.512529801324503	-0.496529801324503	-0.901721854304636	69.1229139072848	115.26357615894	9.18437086092715				0.980026490066225	-0.0765033112582781	0.0539337748344371	-51.2882119205298	24.4119205298013	-5.09748344370861				0.0157880794701987	-0.190834437086093	-0.804238410596027	-34.9796026490066	108.79761589404	-44.154701986755			
104	2380	0.535841059602649	0.0507549668874172	-0.775523178807947	12.6333774834437	147.975364238411	-1.46490066225166				0.896953642384106	0.271788079470199	0.109139072847682	7.15390728476821	-55.9721854304636	-13.4659602649007				0.485827814569536	-0.0332715231788079	-0.77594701986755	-23.792582781457	130.346490066225	-14.2002649006623				0.496529801324503	-0.288529801324503	-0.757721854304636	30.7629139072848	98.1835761589404	-6.21562913907285				1.01202649006623	-0.0125033112582781	0.101933774834437	-62.7682119205298	16.5719205298013	-11.2574834437086				0.0957880794701987	-0.110834437086093	-0.820238410596026	-60.4596026490066	121.39761589404	-51.714701986755			
105	2400	0.519841059602649	0.0667549668874172	-0.775523178807947	9.55337748344371	144.895364238411	5.25509933774834				0.784953642384106	0.207788079470199	-0.0508609271523178	-25.6060927152318	-59.3321854304636	-7.02596026490066				0.453827814569536	0.0467284768211921	-0.71194701986755	-17.912582781457	131.746490066225	-19.8002649006623				0.464529801324503	-0.256529801324503	-0.709721854304636	36.6429139072848	91.4635761589404	-6.21562913907285				1.01202649006623	0.115496688741722	0.0379337748344371	-61.0882119205298	-24.5880794701987	-12.0974834437086				0.255788079470199	0.0331655629139073	-0.836238410596026	-85.3796026490066	128.67761589404	-66.554701986755			
106	2420	0.583841059602649	0.0827549668874172	-0.711523178807947	11.2333774834437	138.455364238411	5.53509933774834				0.880953642384106	0.207788079470199	-0.00286092715231785	-18.3260927152318	-24.0521854304636	0.81403973509934				0.469827814569536	0.142728476821192	-0.66394701986755	0.847417218543046	135.106490066225	-19.2402649006623				0.480529801324503	-0.336529801324503	-0.725721854304636	60.4429139072848	88.1035761589404	-7.05562913907285				0.836026490066225	0.179496688741722	-0.0260662251655629	-48.4882119205298	-35.2280794701987	-6.77748344370861				0.303788079470199	0.0331655629139073	-0.852238410596026	-37.2196026490066	130.07761589404	-66.274701986755			
107	2440	0.647841059602649	0.0507549668874172	-0.663523178807947	7.31337748344371	132.575364238411	10.0150993377483				0.768953642384106	0.255788079470199	0.221139072847682	21.9939072847682	-32.1721854304636	5.01403973509934				0.453827814569536	0.0947284768211921	-0.67994701986755	19.607417218543	137.626490066225	-17.8402649006623				0.496529801324503	-0.320529801324503	-0.693721854304636	59.8829139072848	79.1435761589404	-16.5756291390728				0.756026490066225	0.163496688741722	0.0379337748344371	-14.8882119205298	-21.5080794701987	-0.897483443708608				0.175788079470199	-0.158834437086093	-0.756238410596026	-6.97960264900662	128.67761589404	-46.394701986755			
108	2460	0.647841059602649	0.0827549668874172	-0.583523178807947	5.91337748344371	122.215364238411	11.4150993377483				0.768953642384106	0.191788079470199	0.0771390728476822	48.3139072847682	-69.4121854304636	3.61403973509934				0.437827814569536	0.0147284768211921	-0.63194701986755	37.8074172185431	138.466490066225	-18.4002649006623				0.496529801324503	-0.336529801324503	-0.565721854304636	36.6429139072848	73.5435761589404	-18.5356291390728				0.756026490066225	0.0674966887417219	0.0859337748344371	-0.328211920529802	-12.8280794701987	-1.73748344370861				0.207788079470199	-0.254834437086093	-0.676238410596026	-51.7796026490066	133.99761589404	-37.154701986755			
109	2480	0.551841059602649	0.194754966887417	-0.615523178807947	9.55337748344371	111.855364238411	11.9750993377483				0.832953642384106	-0.0482119205298013	-0.210860927152318	37.1139072847682	-78.3721854304636	1.37403973509934				0.421827814569536	-0.113271523178808	-0.58394701986755	26.8874172185431	133.986490066225	-23.7202649006623				0.464529801324503	-0.384529801324503	-0.549721854304636	26.0029139072848	61.5035761589404	-25.2556291390729				0.740026490066225	-0.0285033112582781	0.0219337748344371	-2.5682119205298	-23.7480794701987	-1.73748344370861				0.479788079470199	-0.0308344370860927	-0.772238410596026	-71.6596026490066	118.31761589404	-43.594701986755			
110	2500	0.519841059602649	0.162754966887417	-0.631523178807947	16.5533774834437	107.935364238411	12.8150993377483				0.736953642384106	0.143788079470199	0.0131390728476822	8.55390728476821	-38.3321854304636	-1.42596026490066				0.485827814569536	-0.0492715231788079	-0.50394701986755	19.8874172185431	136.226490066225	-28.4802649006623				0.400529801324503	-0.368529801324503	-0.501721854304636	22.3629139072848	52.5435761589404	-30.8556291390729				0.708026490066225	-0.0605033112582781	-0.0260662251655629	1.3517880794702	-24.5880794701987	3.02251655629139				0.399788079470199	0.0491655629139073	-0.756238410596026	-32.1796026490066	105.99761589404	-37.994701986755			
111	2520	0.423841059602649	0.162754966887417	-0.631523178807947	20.4733774834437	110.735364238411	12.8150993377483				0.496953642384106	0.207788079470199	-0.00286092715231785	18.6339072847682	-43.9321854304636	13.6940397350993				0.581827814569536	0.0147284768211921	-0.53594701986755	2.80741721854305	134.266490066225	-18.9602649006623				0.368529801324503	-0.368529801324503	-0.533721854304636	18.4429139072848	44.4235761589404	-30.0156291390729				0.676026490066225	0.0194966887417219	-0.0100662251655629	-13.4882119205298	-23.4680794701987	-0.897483443708608				0.303788079470199	-0.0468344370860927	-0.788238410596027	-5.29960264900662	94.5176158940398	-29.874701986755			
112	2540	0.503841059602649	0.0187549668874172	-0.599523178807947	21.3133774834437	117.735364238411	13.6550993377483				0.528953642384106	-0.0802119205298013	0.0291390728476822	7.43390728476821	-37.4921854304636	4.73403973509934				0.565827814569536	-0.0332715231788079	-0.50394701986755	12.607417218543	141.826490066225	-15.6002649006622				0.384529801324503	-0.240529801324503	-0.517721854304636	17.3229139072848	36.0235761589404	-23.5756291390728				0.692026490066225	0.0834966887417219	0.00593377483443711	-6.2082119205298	-25.4280794701987	-0.0574834437086077				0.367788079470199	-0.254834437086093	-0.644238410596026	-11.7396026490066	81.0776158940397	-13.914701986755			
113	2560	0.647841059602649	-0.0132450331125828	-0.535523178807947	8.99337748344371	117.735364238411	9.73509933774834				0.704953642384106	-0.0322119205298013	-0.162860927152318	3.23390728476821	-35.2521854304636	-1.14596026490066				0.485827814569536	-0.129271523178808	-0.56794701986755	20.447417218543	129.786490066225	-20.6402649006623				0.416529801324503	-0.288529801324503	-0.485721854304636	21.8029139072848	41.3435761589404	-12.6556291390728				0.724026490066225	-0.0605033112582781	0.0859337748344371	6.9517880794702	-24.5880794701987	3.58251655629139				0.479788079470199	-0.206834437086093	-0.612238410596026	-38.0596026490066	74.0776158940397	-8.03470198675497			
114	2580	0.631841059602649	0.130754966887417	-0.567523178807947	-5.56662251655629	111.575364238411	7.77509933774834				0.816953642384106	0.0957880794701987	0.0771390728476822	2.11390728476821	-17.8921854304636	3.33403973509934				0.533827814569536	-0.209271523178808	-0.51994701986755	-2.79258278145695	128.106490066225	-11.9602649006623				0.400529801324503	-0.432529801324503	-0.453721854304636	22.6429139072848	41.9035761589404	-8.45562913907285				0.644026490066225	-0.0925033112582781	0.0859337748344371	-6.4882119205298	-31.3080794701987	4.42251655629139				0.559788079470199	0.0331655629139073	-0.676238410596026	-44.2196026490066	59.7976158940397	-15.314701986755			
115	2600	0.551841059602649	0.178754966887417	-0.519523178807947	-2.76662251655629	112.695364238411	11.4150993377483				0.800953642384106	0.0957880794701987	0.0611390728476822	5.47390728476821	-18.4521854304636	5.01403973509934				0.661827814569536	-0.257271523178808	-0.47194701986755	-42.272582781457	132.866490066225	11.5597350993378				0.368529801324503	-0.384529801324503	-0.437721854304636	6.40291390728477	32.1035761589404	-14.3356291390729				0.612026490066225	-0.0285033112582781	0.00593377483443711	-19.9282119205298	-22.0680794701987	4.70251655629139				0.511788079470199	0.0331655629139073	-0.676238410596026	-33.5796026490066	46.0776158940397	-15.314701986755			
116	2620	0.647841059602649	0.178754966887417	-0.503523178807947	16.8333774834437	114.935364238411	9.17509933774834				0.560953642384106	0.0957880794701987	-0.0508609271523178	17.5139072847682	-35.2521854304636	-5.62596026490066				0.709827814569536	-0.401271523178808	-0.42394701986755	-59.912582781457	115.506490066225	30.3197350993378				0.464529801324503	-0.192529801324503	-0.421721854304636	14.2429139072848	25.1035761589404	-10.9756291390728				0.676026490066225	0.00349668874172187	0.0379337748344371	-19.6482119205298	-8.34807947019868	4.42251655629139				0.463788079470199	-0.110834437086093	-0.532238410596027	-11.7396026490066	38.7976158940397	-5.51470198675497			
117	2640	0.711841059602649	0.178754966887417	-0.471523178807947	20.1933774834437	107.375364238411	5.53509933774834				0.544953642384106	-0.0482119205298013	-0.0988609271523179	-3.20609271523179	-21.5321854304636	-11.2259602649007				0.517827814569536	-0.257271523178808	-0.47194701986755	-68.032582781457	95.9064900662252	25.2797350993378				0.560529801324503	-0.208529801324503	-0.405721854304636	26.8429139072848	23.9835761589404	-0.0556291390728476				0.756026490066225	0.0354966887417219	0.117933774834437	-17.6882119205298	-16.4680794701987	3.58251655629139				0.495788079470199	-0.110834437086093	-0.548238410596027	-28.2596026490066	30.1176158940397	-6.35470198675497			
118	2660	0.663841059602649	0.0667549668874172	-0.455523178807947	13.7533774834437	100.935364238411	3.85509933774834				0.688953642384106	0.0477880794701987	0.0451390728476822	-12.4460927152318	-10.6121854304636	-4.22596026490066				0.757827814569536	0.0467284768211921	-0.34394701986755	-77.272582781457	100.106490066225	19.9597350993378				0.544529801324503	-0.432529801324503	-0.437721854304636	24.6029139072848	21.7435761589404	7.78437086092715				0.724026490066225	-0.0125033112582781	0.0379337748344371	-9.2882119205298	-29.0680794701987	5.54251655629139				0.543788079470199	-0.0308344370860927	-0.548238410596027	-26.8596026490066	18.3576158940397	-18.394701986755			
119	2680	0.679841059602649	0.0187549668874172	-0.391523178807947	15.1533774834437	93.3753642384106	0.495099337748344				0.736953642384106	0.111788079470199	0.0771390728476822	-15.2460927152318	-7.53218543046358	1.65403973509934				0.677827814569536	0.174728476821192	-0.39194701986755	-57.952582781457	86.3864900662252	14.9197350993378				0.528529801324503	-0.480529801324503	-0.485721854304636	13.6829139072848	13.3435761589404	10.3043708609272				0.660026490066225	0.00349668874172187	0.0219337748344371	-18.2482119205298	-18.7080794701987	5.54251655629139				0.479788079470199	-0.0148344370860927	-0.564238410596026	-15.6596026490066	11.3576158940397	-14.474701986755			
120	2700	0.791841059602649	-0.0612450331125828	-0.455523178807947	7.87337748344371	76.5753642384106	-3.14490066225166				0.704953642384106	0.0317880794701987	0.0931390728476822	-6.84609271523179	-8.93218543046358	-0.0259602649006601				0.677827814569536	0.110728476821192	-0.39194701986755	-23.792582781457	75.1864900662252	5.67973509933775				0.512529801324503	-0.272529801324503	-0.501721854304636	1.08291390728477	4.1035761589404	3.30437086092715				0.676026490066225	0.0194966887417219	0.101933774834437	-19.9282119205298	-11.7080794701987	3.86251655629139				0.463788079470199	-0.110834437086093	-0.596238410596026	-26.0196026490066	20.0376158940397	3.44529801324503			
121	2720	0.775841059602649	-0.0612450331125828	-0.407523178807947	4.51337748344371	67.3353642384106	1.05509933774834				0.672953642384106	0.0317880794701987	0.0611390728476822	-6.00609271523179	-13.4121854304636	-0.30596026490066				0.741827814569536	0.158728476821192	-0.48794701986755	-1.67258278145695	55.3064900662252	4.83973509933775				0.528529801324503	-0.288529801324503	-0.437721854304636	-10.9570860927152	0.4635761589404	4.98437086092715				0.708026490066225	-0.0125033112582781	0.0539337748344371	-13.7682119205298	-9.46807947019868	5.26251655629139				0.495788079470199	-0.0468344370860927	-0.516238410596026	-15.6596026490066	17.2376158940397	6.80529801324503			
122	2740	0.791841059602649	-0.0452450331125828	-0.327523178807947	0.593377483443709	65.9353642384106	11.4150993377483				0.720953642384106	0.143788079470199	-0.0188609271523178	-16.0860927152318	-12.0121854304636	-3.38596026490066				0.853827814569536	0.174728476821192	-0.51994701986755	-3.91258278145695	47.7464900662252	4.55973509933775				0.560529801324503	-0.368529801324503	-0.389721854304636	-0.877086092715232	-5.9764238410596	8.62437086092715				0.756026490066225	-0.0285033112582781	0.101933774834437	-11.8082119205298	-4.42807947019868	3.86251655629139				0.591788079470199	0.00116556291390731	-0.612238410596026	4.22039735099338	-0.402384105960265	-5.79470198675497			
123	2760	0.871841059602649	-0.0452450331125828	-0.391523178807947	0.313377483443709	60.6153642384106	14.4950993377483				0.848953642384106	0.159788079470199	0.0451390728476822	-19.1660927152318	9.82781456953643	-5.06596026490066				0.853827814569536	0.0627284768211921	-0.51994701986755	-8.95258278145695	46.3464900662252	0.63973509933775				0.656529801324503	-0.384529801324503	-0.421721854304636	0.242913907284768	-0.6564238410596	8.06437086092715				0.820026490066225	0.0514966887417219	0.0699337748344371	-17.4082119205298	-5.26807947019868	3.58251655629139				0.607788079470199	-0.0948344370860927	-0.676238410596026	-3.05960264900662	-7.12238410596027	-4.95470198675497			
124	2780	0.951841059602649	-0.0132450331125828	-0.375523178807947	-10.3266225165563	49.6953642384106	13.0950993377483				0.976953642384106	0.0797880794701987	0.221139072847682	-11.6060927152318	23.8278145695364	-4.78596026490066				0.869827814569536	-0.00127152317880793	-0.43994701986755	-19.312582781457	41.3064900662252	-4.12026490066225				0.704529801324503	-0.288529801324503	-0.437721854304636	-1.71708609271523	4.6635761589404	3.86437086092715				0.852026490066225	0.0994966887417219	0.117933774834437	-11.5282119205298	5.09192052980133	2.74251655629139				0.527788079470199	-0.0788344370860927	-0.580238410596026	-5.57960264900662	1.27761589403974	9.04529801324503			
125	2800	0.823841059602649	0.114754966887417	-0.359523178807947	-8.92662251655629	40.4553642384106	10.0150993377483				0.928953642384106	0.111788079470199	0.173139072847682	6.59390728476821	7.58781456953643	-1.14596026490066				0.885827814569536	-0.0332715231788079	-0.37594701986755	-6.71258278145695	24.5064900662252	-4.12026490066225				0.608529801324503	-0.304529801324503	-0.405721854304636	-4.79708609271523	12.7835761589404	2.18437086092715				0.820026490066225	0.00349668874172187	0.133933774834437	-0.328211920529802	4.81192052980133	2.74251655629139				0.527788079470199	0.0331655629139073	-0.564238410596026	-4.45960264900662	1.83761589403974	13.805298013245			
126	2820	0.791841059602649	0.162754966887417	-0.375523178807947	-1.36662251655629	34.0153642384106	6.93509933774835				0.848953642384106	0.111788079470199	-0.0188609271523178	0.153907284768212	-8.93218543046358	-0.30596026490066				0.901827814569536	-0.0492715231788079	-0.29594701986755	9.24741721854305	21.1464900662252	-3.56026490066225				0.608529801324503	-0.336529801324503	-0.437721854304636	-0.597086092715232	15.8635761589404	6.10437086092715				0.788026490066225	0.00349668874172187	0.0859337748344371	-0.328211920529802	6.77192052980133	2.18251655629139				0.639788079470199	0.0171655629139073	-0.676238410596026	-0.539602649006623	-0.962384105960265	3.16529801324503			
127	2840	0.887841059602649	0.146754966887417	-0.391523178807947	2.27337748344371	25.3353642384106	-2.86490066225166				0.864953642384106	0.143788079470199	-0.00286092715231785	-28.9660927152318	-1.37218543046358	-2.82596026490066				0.837827814569536	-0.0812715231788079	-0.34394701986755	8.12741721854305	14.7064900662252	-2.72026490066225				0.736529801324503	-0.336529801324503	-0.533721854304636	17.6029139072848	13.0635761589404	8.34437086092715				0.900026490066225	0.0354966887417219	0.117933774834437	-2.5682119205298	10.6919205298013	0.782516556291392				0.687788079470199	-0.110834437086093	-0.676238410596026	13.1803973509934	-5.16238410596027	2.88529801324503			
128	2860	0.951841059602649	0.114754966887417	-0.375523178807947	6.47337748344371	16.6553642384106	-7.06490066225166				1.00895364238411	0.111788079470199	0.0611390728476822	-16.6460927152318	6.74781456953642	0.53403973509934				0.837827814569536	-0.0812715231788079	-0.35994701986755	9.80741721854305	13.5864900662252	-1.04026490066225				0.784529801324503	-0.384529801324503	-0.485721854304636	5.28291390728477	9.1435761589404	4.98437086092715				1.02802649006623	0.0354966887417219	0.133933774834437	-0.328211920529802	8.17192052980133	0.502516556291392				0.671788079470199	-0.158834437086093	-0.580238410596026	3.66039735099338	2.39761589403974	7.64529801324503			
129	2880	0.919841059602649	0.0347549668874172	-0.343523178807947	8.99337748344371	12.1753642384106	-6.22490066225166				1.02495364238411	0.0957880794701987	0.0931390728476822	19.1939072847682	5.90781456953642	6.69403973509934				0.917827814569536	0.0147284768211921	-0.35994701986755	5.32741721854305	9.10649006622517	-2.16026490066225				0.688529801324503	-0.448529801324503	-0.501721854304636	-15.9970860927152	2.4235761589404	1.90437086092715				0.948026490066225	0.00349668874172187	0.0859337748344371	2.1917880794702	7.61192052980133	3.02251655629139				0.671788079470199	-0.0308344370860927	-0.596238410596026	-0.819602649006623	6.59761589403974	3.44529801324503			
130	2900	0.871841059602649	-0.0292450331125828	-0.327523178807947	9.83337748344371	8.5353642384106	-2.02490066225166				0.944953642384106	0.143788079470199	-0.0348609271523178	18.0739072847682	-8.37218543046358	1.93403973509934				0.933827814569536	0.0627284768211921	-0.39194701986755	1.40741721854305	9.66649006622517	-2.16026490066225				0.640529801324503	-0.368529801324503	-0.485721854304636	-4.79708609271523	3.5435761589404	5.82437086092715				0.900026490066225	-0.0285033112582781	0.165933774834437	-0.0482119205298018	10.9719205298013	2.46251655629139				0.687788079470199	-0.110834437086093	-0.692238410596026	5.90039735099338	6.31761589403974	-1.03470198675497			
131	2920	0.903841059602649	-0.0612450331125828	-0.359523178807947	15.1533774834437	8.8153642384106	-1.18490066225166				0.976953642384106	0.143788079470199	0.0451390728476822	-0.966092715231788	-10.6121854304636	-4.50596026490066				0.869827814569536	0.0627284768211921	-0.43994701986755	3.64741721854305	9.10649006622517	-2.72026490066225				0.752529801324503	-0.352529801324503	-0.549721854304636	10.6029139072848	9.1435761589404	5.26437086092715				0.996026490066225	0.0354966887417219	0.117933774834437	-4.5282119205298	5.37192052980133	0.782516556291392				0.687788079470199	-0.126834437086093	-0.708238410596026	4.78039735099338	1.55761589403974	0.925298013245032			
132	2940	0.887841059602649	0.00275496688741723	-0.423523178807947	7.03337748344371	5.4553642384106	-0.0649006622516557				1.00895364238411	0.127788079470199	0.0291390728476822	-0.126092715231788	-12.5721854304636	-2.82596026490066				0.837827814569536	0.0467284768211921	-0.42394701986755	7.56741721854305	10.7864900662252	-3.28026490066225				0.752529801324503	-0.400529801324503	-0.517721854304636	-2.55708609271523	6.6235761589404	1.34437086092715				1.01202649006623	0.0514966887417219	0.0699337748344371	1.0717880794702	4.25192052980133	1.62251655629139				0.655788079470199	-0.0148344370860927	-0.676238410596026	-1.37960264900662	0.437615894039735	6.52529801324503			
133	2960	0.711841059602649	0.0667549668874172	-0.583523178807947	-3.60662251655629	-2.3846357615894	-4.26490066225166				0.960953642384106	0.0637880794701987	-0.354860927152318	7.71390728476821	10.1078145695364	3.05403973509934				0.725827814569536	0.0947284768211921	-0.56794701986755	1.96741721854305	-0.693509933774834	-3.00026490066225				0.640529801324503	-0.336529801324503	-0.709721854304636	-1.15708609271523	-2.0564238410596	-4.25562913907285				0.980026490066225	-0.0125033112582781	0.0219337748344371	8.0717880794702	27.2119205298013	2.18251655629139				0.527788079470199	0.0971655629139073	-0.772238410596026	-3.89960264900662	22.2776158940397	-4.39470198675497			
134	3060	0	0	0	0	0	0				0	0	0	0	0	0				0	0	0	0	0	0				0	0	0	0	0	0				0.948026490066225	0.0514966887417219	0.0699337748344371	-1.7282119205298	1.73192052980133	1.90251655629139				0.655788079470199	-0.0628344370860927	-0.692238410596026	6.74039735099338	-0.122384105960265	-5.51470198675497			
135	3080	0	0	0	0	0	0				0	0	0	0	0	0				0	0	0	0	0	0				0.768529801324503	-0.400529801324503	-0.581721854304636	5.84291390728477	-4.0164238410596	-0.335629139072848				1.01202649006623	0.0514966887417219	0.0539337748344371	2.7517880794702	-1.62807947019868	0.782516556291392				0.655788079470199	-0.0628344370860927	-0.692238410596026	1.98039735099338	-0.122384105960265	-2.71470198675497			
136	3100	0.935841059602649	0.0667549668874172	-0.327523178807947	7.59337748344371	3.7753642384106	0.215099337748344				1.00895364238411	0.239788079470199	-0.0828609271523179	13.3139072847682	-9.77218543046358	-0.0259602649006601				0.901827814569536	0.126728476821192	-0.40794701986755	19.8874172185431	2.10649006622517	-1.04026490066225				0.704529801324503	-0.416529801324503	-0.549721854304636	1.08291390728477	-3.7364238410596	-2.01562913907285				1.01202649006623	0.0514966887417219	0.0219337748344371	5.8317880794702	-3.86807947019868	-0.337483443708608				0.639788079470199	0.0331655629139073	-0.708238410596026	-4.17960264900662	2.11761589403974	-3.27470198675497			
137	3120	0.919841059602649	0.130754966887417	-0.327523178807947	8.99337748344371	2.0953642384106	-0.344900662251656				1.02495364238411	0.191788079470199	-0.0828609271523179	15.8339072847682	-3.33218543046358	1.09403973509934				0.933827814569536	0.0787284768211921	-0.39194701986755	21.8474172185431	5.18649006622517	0.35973509933775				0.640529801324503	-0.400529801324503	-0.565721854304636	2.48291390728477	-5.9764238410596	-1.73562913907285				0.964026490066225	0.0354966887417219	0.0219337748344371	9.4717880794702	-4.98807947019868	0.502516556291392				0.623788079470199	0.0171655629139073	-0.724238410596026	-2.49960264900662	0.717615894039735	-4.67470198675497			
138	3140	0.919841059602649	0.0987549668874172	-0.327523178807947	14.8733774834437	4.8953642384106	-2.02490066225166				0.960953642384106	0.111788079470199	-0.0828609271523179	9.39390728476821	-3.33218543046358	-1.14596026490066				0.901827814569536	0.0307284768211921	-0.35994701986755	14.847417218543	6.30649006622517	-0.76026490066225				0.656529801324503	-0.384529801324503	-0.581721854304636	8.36291390728477	-4.8564238410596	-2.29562913907285				0.948026490066225	0.0194966887417219	0.0219337748344371	9.1917880794702	-3.02807947019868	-0.617483443708608				0.623788079470199	0.00116556291390731	-0.708238410596026	-3.33960264900662	3.51761589403974	-5.79470198675497			
139	3160	0.919841059602649	0.0507549668874172	-0.359523178807947	18.7933774834437	4.0553642384106	-2.30490066225166				0.944953642384106	0.111788079470199	-0.0828609271523179	0.153907284768212	-6.41218543046358	-0.30596026490066				0.869827814569536	0.0467284768211921	-0.31194701986755	6.44741721854305	7.70649006622517	-3.84026490066225				0.704529801324503	-0.464529801324503	-0.597721854304636	7.24291390728477	-6.8164238410596	-6.49562913907285				0.964026490066225	0.00349668874172187	0.0539337748344371	10.8717880794702	-2.18807947019868	-2.57748344370861				0.639788079470199	0.00116556291390731	-0.692238410596026	1.70039735099338	4.91761589403974	-5.79470198675497			
140	3180	0.903841059602649	0.0347549668874172	-0.311523178807947	15.1533774834437	4.0553642384106	-1.74490066225166				0.928953642384106	0.143788079470199	-0.0668609271523178	-1.80609271523179	-9.77218543046358	1.09403973509934				0.869827814569536	0.0307284768211921	-0.32794701986755	1.96741721854305	4.06649006622517	-3.84026490066225				0.624529801324503	-0.432529801324503	-0.549721854304636	-1.15708609271523	-5.9764238410596	-9.29562913907285				0.964026490066225	0.00349668874172187	0.0379337748344371	8.3517880794702	-3.02807947019868	-3.13748344370861				0.671788079470199	-0.0468344370860927	-0.660238410596027	5.06039735099338	5.47761589403974	-6.35470198675497			
141	3200	0.871841059602649	0.0187549668874172	-0.279523178807947	4.23337748344371	1.5353642384106	-0.0649006622516557				0.944953642384106	0.159788079470199	-0.0668609271523178	2.95390728476821	-6.41218543046358	0.81403973509934				0.885827814569536	-0.00127152317880793	-0.32794701986755	8.12741721854305	0.706490066225167	-3.00026490066225				0.592529801324503	-0.400529801324503	-0.533721854304636	1.64291390728477	-2.0564238410596	-7.05562913907285				0.948026490066225	-0.0125033112582781	0.0539337748344371	7.7917880794702	-1.34807947019868	-2.57748344370861				0.687788079470199	-0.0628344370860927	-0.676238410596026	4.78039735099338	4.63761589403974	-8.87470198675497			
142	3220	0.903841059602649	0.00275496688741723	-0.311523178807947	-1.92662251655629	3.4953642384106	-0.0649006622516557				0.960953642384106	0.127788079470199	-0.114860927152318	7.71390728476821	-5.29218543046358	-0.30596026490066				0.917827814569536	-0.0332715231788079	-0.31194701986755	6.72741721854305	-3.49350993377483	-0.20026490066225				0.640529801324503	-0.416529801324503	-0.597721854304636	9.76291390728477	-1.2164238410596	-3.41562913907285				0.980026490066225	0.00349668874172187	0.0699337748344371	5.8317880794702	-0.788079470198675	-2.29748344370861				0.719788079470199	-0.0628344370860927	-0.692238410596026	-3.61960264900662	3.51761589403974	-9.99470198675497			
143	3240	0.919841059602649	0.0347549668874172	-0.343523178807947	-4.72662251655629	0.975364238410596	-0.904900662251656				1.00895364238411	0.127788079470199	-0.114860927152318	3.23390728476821	-5.85218543046358	-1.14596026490066				0.917827814569536	-0.0172715231788079	-0.32794701986755	3.36741721854305	-4.05350993377483	0.63973509933775				0.720529801324503	-0.432529801324503	-0.597721854304636	9.20291390728477	-1.7764238410596	-2.29562913907285				1.01202649006623	0.00349668874172187	0.0379337748344371	3.5917880794702	-3.30807947019868	-0.337483443708608				0.703788079470199	-0.0148344370860927	-0.724238410596026	-2.21960264900662	1.55761589403974	-10.834701986755			
144	3260	0.919841059602649	0.0507549668874172	-0.359523178807947	-1.36662251655629	2.6553642384106	-0.0649006622516557				1.00895364238411	0.127788079470199	-0.0988609271523179	-7.12609271523179	-2.21218543046358	2.77403973509934				0.901827814569536	0.0147284768211921	-0.31194701986755	-2.79258278145695	0.426490066225167	0.91973509933775				0.704529801324503	-0.432529801324503	-0.597721854304636	1.92291390728477	-5.6964238410596	-3.97562913907285				0.996026490066225	0.0194966887417219	0.0379337748344371	4.4317880794702	-2.74807947019868	-1.45748344370861				0.687788079470199	-0.0308344370860927	-0.692238410596026	5.62039735099338	0.717615894039735	-8.03470198675497			
145	3280	0.903841059602649	0.0347549668874172	-0.327523178807947	-0.806622516556291	2.6553642384106	0.215099337748344				0.976953642384106	0.159788079470199	-0.0988609271523179	-8.24609271523179	-3.05218543046358	0.53403973509934				0.901827814569536	0.0147284768211921	-0.31194701986755	-6.43258278145695	1.54649006622517	1.75973509933775				0.656529801324503	-0.416529801324503	-0.597721854304636	1.64291390728477	-7.6564238410596	-2.01562913907285				0.980026490066225	0.0354966887417219	0.0379337748344371	4.4317880794702	-3.86807947019868	-1.17748344370861				0.687788079470199	-0.0148344370860927	-0.724238410596026	4.78039735099338	-0.682384105960265	-5.51470198675497			
146	3300	0.903841059602649	0.0187549668874172	-0.327523178807947	-0.246622516556291	4.0553642384106	-0.624900662251656				0.960953642384106	0.175788079470199	-0.0668609271523178	-1.80609271523179	-1.93218543046358	-1.98596026490066				0.885827814569536	0.0307284768211921	-0.34394701986755	-3.35258278145695	1.82649006622517	-0.20026490066225				0.640529801324503	-0.400529801324503	-0.597721854304636	3.04291390728477	-9.0564238410596	-3.41562913907285				0.948026490066225	0.0194966887417219	0.0379337748344371	4.1517880794702	-1.06807947019868	-0.0574834437086077				0.671788079470199	-0.0308344370860927	-0.708238410596026	0.300397350993377	-3.48238410596027	-4.39470198675497			
147	3320	0.903841059602649	0.00275496688741723	-0.327523178807947	0.873377483443709	4.3353642384106	-0.624900662251656				0.960953642384106	0.143788079470199	-0.0668609271523178	2.67390728476821	-6.97218543046358	-0.585960264900661				0.885827814569536	0.0307284768211921	-0.34394701986755	-3.91258278145695	4.06649006622517	-1.04026490066225				0.640529801324503	-0.416529801324503	-0.581721854304636	1.92291390728477	-5.9764238410596	-6.49562913907285				0.964026490066225	0.0194966887417219	0.0379337748344371	2.4717880794702	-0.228079470198675	-1.17748344370861				0.671788079470199	0.00116556291390731	-0.660238410596027	2.82039735099338	-2.64238410596027	-3.27470198675497			
148	3340	0.871841059602649	0.0187549668874172	-0.423523178807947	-5.00662251655629	6.0153642384106	-0.0649006622516557				0.976953642384106	0.111788079470199	-0.00286092715231785	-3.20609271523179	5.62781456953642	1.93403973509934				0.869827814569536	0.0147284768211921	-0.40794701986755	-4.47258278145695	6.02649006622517	-0.76026490066225				0.720529801324503	-0.368529801324503	-0.581721854304636	-9.83708609271523	5.5035761589404	5.54437086092715				0.932026490066225	-0.0285033112582781	0.325933774834437	-7.3282119205298	11.2519205298013	0.502516556291392				0.575788079470199	-0.222834437086093	-0.692238410596026	6.46039735099338	6.59761589403974	11.005298013245			
149	3360	0.919841059602649	0.0347549668874172	-0.295523178807947	-8.64662251655629	1.2553642384106	0.775099337748344				0.960953642384106	0.159788079470199	-0.114860927152318	-8.80609271523179	-4.45218543046358	1.37403973509934				0.901827814569536	0.0307284768211921	-0.35994701986755	-2.23258278145695	2.94649006622517	0.91973509933775				0.608529801324503	-0.400529801324503	-0.549721854304636	2.20291390728477	0.4635761589404	-0.0556291390728476				0.964026490066225	0.0354966887417219	0.0379337748344371	1.0717880794702	1.45192052980132	-0.0574834437086077				0.671788079470199	-0.0148344370860927	-0.692238410596026	2.26039735099338	1.83761589403974	-4.39470198675497			
150	3380	0.903841059602649	0.0667549668874172	-0.311523178807947	-8.36662251655629	2.0953642384106	1.33509933774834				0.960953642384106	0.143788079470199	-0.130860927152318	-7.96609271523179	-3.61218543046358	1.37403973509934				0.901827814569536	-0.00127152317880793	-0.35994701986755	0.567417218543046	1.82649006622517	0.91973509933775				0.624529801324503	-0.400529801324503	-0.597721854304636	7.80291390728477	2.4235761589404	3.30437086092715				0.980026490066225	0.0194966887417219	0.0219337748344371	0.511788079470198	-0.788079470198675	0.782516556291392				0.671788079470199	-0.0148344370860927	-0.692238410596026	0.860397350993377	2.39761589403974	-2.71470198675497			
151	3400	0.919841059602649	0.0667549668874172	-0.295523178807947	-4.16662251655629	3.2153642384106	0.775099337748344				0.976953642384106	0.159788079470199	-0.0828609271523179	-6.00609271523179	3.10781456953642	0.81403973509934				0.901827814569536	0.0307284768211921	-0.35994701986755	-1.67258278145695	3.50649006622517	2.03973509933775				0.656529801324503	-0.464529801324503	-0.613721854304636	5.28291390728477	0.4635761589404	3.58437086092715				0.948026490066225	0.00349668874172187	0.0539337748344371	0.231788079470198	-0.788079470198675	1.06251655629139				0.687788079470199	-0.0628344370860927	-0.708238410596026	-2.21960264900662	4.63761589403974	-2.43470198675497			
152	3420	0.919841059602649	0.0667549668874172	-0.311523178807947	-3.60662251655629	3.2153642384106	-0.0649006622516557				0.976953642384106	0.143788079470199	-0.0668609271523178	-4.32609271523179	0.0278145695364242	1.93403973509934				0.901827814569536	0.0467284768211921	-0.35994701986755	-8.39258278145695	1.26649006622517	2.03973509933775				0.656529801324503	-0.448529801324503	-0.613721854304636	-1.99708609271523	-1.4964238410596	1.06437086092715				0.948026490066225	0.0194966887417219	0.0379337748344371	-4.2482119205298	1.45192052980132	0.502516556291392				0.671788079470199	-0.0468344370860927	-0.708238410596026	0.860397350993377	1.27761589403974	-1.03470198675497			
153	3440	0.919841059602649	0.0507549668874172	-0.311523178807947	-3.88662251655629	2.0953642384106	0.215099337748344				0.960953642384106	0.143788079470199	-0.0828609271523179	-2.36609271523179	-1.09218543046358	2.21403973509934				0.885827814569536	0.0467284768211921	-0.32794701986755	-6.43258278145695	1.54649006622517	0.35973509933775				0.640529801324503	-0.432529801324503	-0.581721854304636	-3.95708609271523	-0.6564238410596	0.224370860927152				0.964026490066225	0.0194966887417219	0.0219337748344371	-2.5682119205298	3.41192052980132	-0.337483443708608				0.655788079470199	-0.0308344370860927	-0.692238410596026	-0.259602649006623	-1.80238410596026	2.88529801324503			
154	3460	0.919841059602649	0.0507549668874172	-0.279523178807947	-3.32662251655629	1.5353642384106	0.775099337748344				0.976953642384106	0.175788079470199	-0.130860927152318	-3.48609271523179	-0.532185430463576	2.21403973509934				0.901827814569536	0.0627284768211921	-0.34394701986755	-1.39258278145695	1.82649006622517	0.0797350993377501				0.656529801324503	-0.400529801324503	-0.533721854304636	-3.39708609271523	1.5835761589404	1.90437086092715				0.948026490066225	0.0194966887417219	0.0699337748344371	-1.7282119205298	5.65192052980133	1.06251655629139				0.671788079470199	-0.0308344370860927	-0.692238410596026	0.300397350993377	-1.24238410596026	5.40529801324503			
155	3480	0.919841059602649	0.0507549668874172	-0.263523178807947	-0.806622516556291	2.0953642384106	0.215099337748344				0.976953642384106	0.159788079470199	-0.0668609271523178	1.27390728476821	2.26781456953642	2.21403973509934				0.901827814569536	0.0467284768211921	-0.34394701986755	0.567417218543046	1.26649006622517	0.91973509933775				0.656529801324503	-0.400529801324503	-0.549721854304636	-3.39708609271523	1.5835761589404	3.02437086092715				0.948026490066225	0.0194966887417219	0.0539337748344371	-1.4482119205298	5.65192052980133	1.62251655629139				0.671788079470199	-0.0308344370860927	-0.708238410596026	-0.259602649006623	-0.962384105960265	5.12529801324503			
156	3500	0.919841059602649	0.0507549668874172	-0.263523178807947	0.873377483443709	0.415364238410596	0.775099337748344				0.944953642384106	0.143788079470199	-0.0508609271523178	3.51390728476821	1.70781456953642	1.93403973509934				0.901827814569536	0.0147284768211921	-0.34394701986755	1.40741721854305	2.38649006622517	0.91973509933775				0.688529801324503	-0.368529801324503	-0.533721854304636	-3.11708609271523	2.9835761589404	3.02437086092715				0.980026490066225	0.0354966887417219	0.0699337748344371	-1.1682119205298	6.49192052980132	1.06251655629139				0.671788079470199	-0.0308344370860927	-0.708238410596026	4.22039735099338	-0.682384105960265	5.96529801324503			
157	3520	0.919841059602649	0.0507549668874172	-0.247523178807947	-0.246622516556291	0.975364238410596	0.775099337748344				0.960953642384106	0.127788079470199	-0.0988609271523179	-0.686092715231788	0.867814569536424	2.49403973509934				0.901827814569536	0.0147284768211921	-0.32794701986755	3.36741721854305	0.146490066225167	0.35973509933775				0.688529801324503	-0.384529801324503	-0.533721854304636	2.76291390728477	3.5435761589404	3.30437086092715				0.964026490066225	0.0194966887417219	0.0539337748344371	1.9117880794702	5.93192052980133	2.46251655629139				0.671788079470199	-0.0308344370860927	-0.676238410596026	6.74039735099338	0.157615894039735	9.04529801324503			
158	3540	0.919841059602649	0.0187549668874172	-0.263523178807947	0.313377483443709	1.8153642384106	-0.344900662251656				0.976953642384106	0.143788079470199	-0.114860927152318	-2.92609271523179	4.50781456953642	2.77403973509934				0.901827814569536	0.0147284768211921	-0.31194701986755	2.52741721854305	-0.973509933774833	0.63973509933775				0.672529801324503	-0.432529801324503	-0.533721854304636	3.88291390728477	5.2235761589404	4.14437086092715				0.948026490066225	0.00349668874172187	0.0859337748344371	5.2717880794702	7.05192052980133	3.02251655629139				0.655788079470199	-0.0788344370860927	-0.660238410596027	8.70039735099338	-1.52238410596026	8.48529801324503			
159	3560	0.935841059602649	0.0187549668874172	-0.263523178807947	1.43337748344371	2.3753642384106	-1.46490066225166				0.976953642384106	0.111788079470199	-0.0828609271523179	3.79390728476821	1.70781456953642	2.77403973509934				0.901827814569536	0.0147284768211921	-0.34394701986755	5.04741721854305	0.146490066225167	0.0797350993377501				0.656529801324503	-0.432529801324503	-0.533721854304636	0.802913907284768	5.5035761589404	3.30437086092715				0.964026490066225	-0.0125033112582781	0.0859337748344371	1.9117880794702	6.21192052980133	2.18251655629139				0.687788079470199	-0.110834437086093	-0.676238410596026	6.18039735099338	-1.52238410596026	8.20529801324503			
160	3580	0.919841059602649	0.0347549668874172	-0.295523178807947	1.99337748344371	0.695364238410596	-1.18490066225166				0.976953642384106	0.0957880794701987	-0.0668609271523178	3.23390728476821	-1.93218543046358	1.93403973509934				0.917827814569536	0.0147284768211921	-0.32794701986755	3.36741721854305	-0.133509933774833	0.35973509933775				0.640529801324503	-0.432529801324503	-0.533721854304636	0.522913907284768	7.1835761589404	3.30437086092715				0.980026490066225	-0.0285033112582781	0.0859337748344371	-0.328211920529802	5.65192052980133	2.46251655629139				0.687788079470199	-0.0948344370860927	-0.676238410596026	1.98039735099338	3.79761589403974	7.92529801324503			
161	3600	0.903841059602649	0.00275496688741723	-0.295523178807947	0.593377483443709	1.2553642384106	-1.46490066225166				0.976953642384106	0.0797880794701987	-0.0668609271523178	-0.966092715231788	2.26781456953642	3.33403973509934				0.885827814569536	-0.00127152317880793	-0.32794701986755	0.567417218543046	-0.413509933774833	-1.04026490066225				0.672529801324503	-0.432529801324503	-0.533721854304636	0.522913907284768	7.1835761589404	5.26437086092715				0.948026490066225	-0.0285033112582781	0.0859337748344371	-0.328211920529802	6.21192052980133	3.86251655629139				0.687788079470199	-0.0788344370860927	-0.676238410596026	4.22039735099338	3.79761589403974	7.36529801324503			
162	3620	0.919841059602649	-0.0132450331125828	-0.295523178807947	-0.526622516556291	0.975364238410596	-2.02490066225166				0.992953642384106	0.0957880794701987	-0.0828609271523179	-4.88609271523179	4.78781456953642	4.73403973509934				0.901827814569536	-0.0172715231788079	-0.31194701986755	0.847417218543046	-0.133509933774833	-1.04026490066225				0.688529801324503	-0.432529801324503	-0.533721854304636	0.522913907284768	6.0635761589404	6.66437086092715				0.948026490066225	-0.0285033112582781	0.101933774834437	-0.888211920529802	6.77192052980133	3.02251655629139				0.671788079470199	-0.110834437086093	-0.676238410596026	2.54039735099338	1.27761589403974	6.24529801324503			
163	3640	0.919841059602649	0.00275496688741723	-0.327523178807947	-3.04662251655629	-0.424635761589404	-1.46490066225166				0.960953642384106	0.111788079470199	-0.0988609271523179	-5.16609271523179	1.98781456953642	4.45403973509934				0.901827814569536	-0.0172715231788079	-0.31194701986755	1.96741721854305	-0.973509933774833	-2.16026490066225				0.704529801324503	-0.416529801324503	-0.533721854304636	-1.99708609271523	3.8235761589404	5.26437086092715				0.948026490066225	-0.0125033112582781	0.101933774834437	-4.2482119205298	5.37192052980133	3.86251655629139				0.671788079470199	-0.126834437086093	-0.676238410596026	5.90039735099338	0.157615894039735	7.64529801324503			
164	3660	0.887841059602649	0.0347549668874172	-0.311523178807947	-3.88662251655629	-0.984635761589404	-2.02490066225166				0.960953642384106	0.111788079470199	-0.0668609271523178	-1.80609271523179	2.54781456953642	3.61403973509934				0.901827814569536	-0.00127152317880793	-0.34394701986755	0.567417218543046	-0.973509933774833	-1.32026490066225				0.672529801324503	-0.432529801324503	-0.517721854304636	-3.39708609271523	2.4235761589404	4.42437086092715				0.948026490066225	-0.0125033112582781	0.117933774834437	-3.9682119205298	6.21192052980133	3.30251655629139				0.687788079470199	-0.126834437086093	-0.676238410596026	4.50039735099338	-1.52238410596026	7.64529801324503			
165	3680	0.903841059602649	0.0187549668874172	-0.311523178807947	-5.84662251655629	-1.2646357615894	-0.904900662251656				0.960953642384106	0.0957880794701987	-0.0508609271523178	1.55390728476821	-1.37218543046358	3.33403973509934				0.901827814569536	-0.0172715231788079	-0.34394701986755	-1.67258278145695	-2.65350993377483	-2.16026490066225				0.688529801324503	-0.416529801324503	-0.517721854304636	-4.51708609271523	1.5835761589404	4.70437086092715				0.964026490066225	-0.0125033112582781	0.101933774834437	-2.8482119205298	6.77192052980133	2.74251655629139				0.687788079470199	-0.0788344370860927	-0.676238410596026	1.70039735099338	-2.36238410596027	5.40529801324503			
166	3700	0.919841059602649	0.0187549668874172	-0.311523178807947	-4.16662251655629	-1.2646357615894	-2.02490066225166				0.976953642384106	0.111788079470199	-0.0988609271523179	-4.60609271523179	1.14781456953642	3.33403973509934				0.901827814569536	-0.00127152317880793	-0.35994701986755	-0.552582781456954	-1.25350993377483	-1.88026490066225				0.688529801324503	-0.416529801324503	-0.517721854304636	-2.83708609271523	3.2635761589404	4.42437086092715				0.980026490066225	0.00349668874172187	0.117933774834437	-3.9682119205298	5.93192052980133	3.58251655629139				0.655788079470199	-0.0948344370860927	-0.660238410596027	3.94039735099338	-3.76238410596027	5.12529801324503			
167	3720	0.919841059602649	0.0347549668874172	-0.311523178807947	-4.16662251655629	-2.1046357615894	-2.86490066225166				1.00895364238411	0.111788079470199	-0.0988609271523179	-6.84609271523179	1.98781456953642	5.85403973509934				0.901827814569536	0.0307284768211921	-0.35994701986755	-1.11258278145695	0.426490066225167	-3.28026490066225				0.704529801324503	-0.416529801324503	-0.533721854304636	-1.43708609271523	3.8235761589404	5.54437086092715				0.964026490066225	0.00349668874172187	0.101933774834437	-5.9282119205298	3.41192052980132	2.74251655629139				0.655788079470199	-0.0948344370860927	-0.660238410596027	3.94039735099338	-4.60238410596027	4.00529801324503			
168	3740	0.919841059602649	0.0347549668874172	-0.311523178807947	-3.04662251655629	-2.3846357615894	-3.14490066225166				0.944953642384106	0.159788079470199	-0.0828609271523179	-4.32609271523179	-3.61218543046358	3.05403973509934				0.901827814569536	0.0307284768211921	-0.35994701986755	-0.272582781456954	-0.133509933774833	-2.16026490066225				0.704529801324503	-0.432529801324503	-0.533721854304636	1.36291390728477	2.7035761589404	4.98437086092715				0.964026490066225	0.00349668874172187	0.0859337748344371	-3.9682119205298	2.57192052980133	2.18251655629139				0.671788079470199	-0.0948344370860927	-0.676238410596026	4.50039735099338	-3.76238410596027	3.44529801324503			
169	3760	0.903841059602649	0.0507549668874172	-0.279523178807947	-2.48662251655629	-0.704635761589404	-2.30490066225166				0.944953642384106	0.191788079470199	-0.0988609271523179	3.23390728476821	-10.8921854304636	-2.82596026490066				0.885827814569536	0.0307284768211921	-0.37594701986755	4.20741721854305	-0.973509933774833	-2.72026490066225				0.688529801324503	-0.448529801324503	-0.533721854304636	1.36291390728477	2.7035761589404	5.54437086092715				0.948026490066225	0.00349668874172187	0.0859337748344371	-3.1282119205298	0.611920529801325	3.02251655629139				0.671788079470199	-0.0628344370860927	-0.692238410596026	4.50039735099338	-2.36238410596027	2.60529801324503			
170	3780	0.919841059602649	0.0347549668874172	-0.311523178807947	-1.36662251655629	0.695364238410596	-2.02490066225166				0.976953642384106	0.127788079470199	-0.0828609271523179	1.55390728476821	-8.65218543046358	-2.54596026490066				0.885827814569536	0.0307284768211921	-0.37594701986755	3.92741721854305	0.986490066225167	-2.16026490066225				0.688529801324503	-0.432529801324503	-0.533721854304636	0.242913907284768	2.7035761589404	4.14437086092715				0.964026490066225	-0.0125033112582781	0.0699337748344371	-2.8482119205298	1.17192052980133	2.46251655629139				0.639788079470199	-0.0628344370860927	-0.692238410596026	4.22039735099338	-3.20238410596026	0.365298013245032			
171	3800	0.919841059602649	0.0667549668874172	-0.311523178807947	-1.36662251655629	-0.144635761589404	-2.30490066225166				0.992953642384106	0.143788079470199	-0.0988609271523179	1.27390728476821	-6.97218543046358	-1.14596026490066				0.885827814569536	0.0307284768211921	-0.37594701986755	1.40741721854305	0.706490066225167	-3.00026490066225				0.688529801324503	-0.432529801324503	-0.549721854304636	2.48291390728477	3.5435761589404	4.98437086092715				0.980026490066225	-0.0125033112582781	0.0859337748344371	-1.7282119205298	1.73192052980133	1.34251655629139				0.623788079470199	-0.0948344370860927	-0.708238410596026	2.26039735099338	-2.08238410596027	0.365298013245032			
172	3820	0.919841059602649	0.0827549668874172	-0.311523178807947	0.593377483443709	-2.6646357615894	-2.30490066225166				0.976953642384106	0.127788079470199	-0.130860927152318	4.35390728476821	-4.45218543046358	2.77403973509934				0.885827814569536	0.0627284768211921	-0.37594701986755	1.68741721854305	0.146490066225167	-2.44026490066225				0.704529801324503	-0.464529801324503	-0.565721854304636	2.48291390728477	2.1435761589404	7.22437086092715				0.980026490066225	0.00349668874172187	0.0699337748344371	-0.608211920529802	1.73192052980133	2.18251655629139				0.655788079470199	-0.0948344370860927	-0.708238410596026	1.98039735099338	-1.80238410596026	1.20529801324503			
173	3840	0.919841059602649	0.0827549668874172	-0.311523178807947	2.83337748344371	-3.2246357615894	-1.46490066225166				0.960953642384106	0.159788079470199	-0.130860927152318	8.27390728476821	-6.13218543046358	0.81403973509934				0.885827814569536	0.0787284768211921	-0.37594701986755	7.28741721854305	-0.133509933774833	-3.00026490066225				0.672529801324503	-0.480529801324503	-0.533721854304636	-0.0370860927152318	-2.6164238410596	7.22437086092715				0.980026490066225	-0.0125033112582781	0.0859337748344371	1.9117880794702	1.45192052980132	2.74251655629139				0.639788079470199	-0.0788344370860927	-0.708238410596026	0.860397350993377	-2.92238410596027	1.20529801324503			
174	3860	0.919841059602649	0.0827549668874172	-0.311523178807947	4.79337748344371	-2.3846357615894	-2.30490066225166				0.960953642384106	0.143788079470199	-0.162860927152318	10.2339072847682	-8.37218543046358	0.81403973509934				0.901827814569536	0.0627284768211921	-0.39194701986755	9.24741721854305	0.146490066225167	-3.28026490066225				0.656529801324503	-0.464529801324503	-0.549721854304636	-3.95708609271523	-3.1764238410596	8.34437086092715				0.964026490066225	-0.0125033112582781	0.0699337748344371	1.9117880794702	0.611920529801325	1.06251655629139				0.639788079470199	-0.0628344370860927	-0.708238410596026	1.14039735099338	-3.76238410596027	-0.194701986754968			
175	3880	0.919841059602649	0.0667549668874172	-0.311523178807947	5.63337748344371	-3.2246357615894	-2.02490066225166				0.992953642384106	0.127788079470199	-0.146860927152318	6.03390728476821	2.82781456953642	1.09403973509934				0.901827814569536	0.0467284768211921	-0.39194701986755	10.087417218543	0.146490066225167	-3.00026490066225				0.656529801324503	-0.464529801324503	-0.565721854304636	0.522913907284768	-2.6164238410596	8.34437086092715				0.980026490066225	-0.0285033112582781	0.0539337748344371	1.3517880794702	0.611920529801325	1.06251655629139				0.623788079470199	-0.0468344370860927	-0.708238410596026	2.54039735099338	-4.32238410596027	-2.43470198675497			
176	3900	0.919841059602649	0.0347549668874172	-0.327523178807947	7.03337748344371	-0.984635761589404	-2.30490066225166				0.976953642384106	0.127788079470199	-0.114860927152318	2.11390728476821	1.14781456953642	1.93403973509934				0.901827814569536	0.0307284768211921	-0.35994701986755	8.12741721854305	-0.133509933774833	-2.44026490066225				0.672529801324503	-0.432529801324503	-0.565721854304636	1.08291390728477	-4.2964238410596	5.54437086092715				0.964026490066225	-0.0285033112582781	0.0699337748344371	4.4317880794702	3.41192052980132	-0.337483443708608				0.623788079470199	-0.0788344370860927	-0.724238410596026	0.860397350993377	-3.76238410596027	-4.67470198675497			
177	3920	0.903841059602649	0.0507549668874172	-0.327523178807947	5.07337748344371	2.6553642384106	-2.86490066225166				0.960953642384106	0.143788079470199	-0.0988609271523179	2.39390728476821	-1.09218543046358	0.81403973509934				0.885827814569536	0.0147284768211921	-0.34394701986755	5.60741721854305	-0.133509933774833	-2.44026490066225				0.656529801324503	-0.432529801324503	-0.549721854304636	-1.71708609271523	-5.1364238410596	0.224370860927152				0.964026490066225	-0.0125033112582781	0.0859337748344371	3.8717880794702	2.01192052980133	-2.01748344370861				0.623788079470199	-0.126834437086093	-0.708238410596026	2.54039735099338	-1.80238410596026	-2.15470198675497			
178	3940	0.903841059602649	0.0347549668874172	-0.311523178807947	2.83337748344371	2.3753642384106	-2.58490066225166				0.960953642384106	0.111788079470199	-0.114860927152318	5.19390728476821	-2.77218543046358	-0.86596026490066				0.853827814569536	0.0467284768211921	-0.43994701986755	7.00741721854305	-1.81350993377483	-4.68026490066225				0.640529801324503	-0.432529801324503	-0.533721854304636	-1.43708609271523	-3.1764238410596	-2.01562913907285				0.964026490066225	-0.0125033112582781	0.0699337748344371	2.7517880794702	2.57192052980133	-2.01748344370861				0.639788079470199	-0.126834437086093	-0.692238410596026	-1.09960264900662	-1.52238410596026	0.925298013245032			
179	3960	0.823841059602649	0.114754966887417	-0.359523178807947	4.79337748344371	0.415364238410596	-3.42490066225166				0.944953642384106	0.175788079470199	-0.274860927152318	9.11390728476821	-4.17218543046358	0.25403973509934				0.885827814569536	0.0307284768211921	-0.45594701986755	12.047417218543	-4.33350993377483	-3.84026490066225				0.352529801324503	-0.192529801324503	-0.837721854304636	12.0029139072848	-3.1764238410596	2.18437086092715				0.916026490066225	0.115496688741722	0.229933774834437	-7.6082119205298	-10.8680794701987	3.30251655629139				0.175788079470199	-0.190834437086093	-0.916238410596027	-3.61960264900662	2.67761589403974	-5.51470198675497			
