No	Time	12-AccX	12-AccY	12-AccZ	12-GyroX	12-GyroY	12-GyroZ	13-AccX	13-AccY	13-AccZ	13-GyroX	13-GyroY	13-GyroZ	14-AccX	14-AccY	14-AccZ	14-GyroX	14-GyroY	14-GyroZ	15-AccX	15-AccY	15-AccZ	15-GyroX	15-GyroY	15-GyroZ	16-AccX	16-AccY	16-AccZ	16-GyroX	16-GyroY	16-GyroZ	17-AccX	17-AccY	17-AccZ	17-GyroX	17-GyroY	17-GyroZ
0	100	0	0	0	0	0	0				0	0	0	0	0	0				0	0	0	0	0	0				0	0	0	0	0	0				0.900026490066225	0.0514966887417219	0.373933774834437	-0.0482119205298018	0.331920529801325	-0.617483443708608				0	0	0	0	0	0			
1	120	0	0	0	0	0	0				0.992953642384106	0.0637880794701987	0.141139072847682	-0.406092715231788	0.587814569536424	-0.86596026490066				-0.250172185430464	-0.0812715231788079	-0.88794701986755	-0.272582781456954	0.986490066225167	-0.20026490066225				0.288529801324503	0.0154701986754967	-0.933721854304636	-0.877086092715232	-0.6564238410596	0.504370860927152				0.916026490066225	0.0514966887417219	0.357933774834437	0.511788079470198	0.611920529801325	-0.337483443708608				0.191788079470199	-0.366834437086093	-0.852238410596026	0.0203973509933773	-0.402384105960265	-1.87470198675497			
2	140	-0.248158940397351	0.0827549668874172	-0.935523178807947	-1.08662251655629	0.695364238410596	-0.344900662251656				0.976953642384106	0.0477880794701987	0.141139072847682	0.433907284768212	0.0278145695364242	-0.585960264900661				-0.250172185430464	-0.0812715231788079	-0.88794701986755	-1.11258278145695	-1.53350993377483	0.0797350993377501				0.288529801324503	0.0154701986754967	-0.933721854304636	-0.317086092715232	-0.9364238410596	0.784370860927152				0.916026490066225	0.0514966887417219	0.341933774834437	-0.0482119205298018	1.17192052980133	-0.337483443708608				0.191788079470199	-0.366834437086093	-0.868238410596026	-0.819602649006623	-0.402384105960265	-1.31470198675497			
3	160	-0.248158940397351	0.0667549668874172	-0.935523178807947	-0.246622516556291	0.415364238410596	-0.624900662251656				0.992953642384106	0.0637880794701987	0.157139072847682	-0.126092715231788	-0.532185430463576	0.25403973509934				-0.234172185430464	-0.0812715231788079	-0.88794701986755	1.12741721854305	-0.133509933774833	-0.20026490066225				0.288529801324503	-0.000529801324503289	-0.933721854304636	-0.597086092715232	-0.0964238410596001	1.34437086092715				0.916026490066225	0.0514966887417219	0.357933774834437	0.231788079470198	0.331920529801325	-0.617483443708608				0.207788079470199	-0.366834437086093	-0.868238410596026	0.580397350993377	-0.682384105960265	-0.754701986754968			
4	180	-0.248158940397351	0.0827549668874172	-0.935523178807947	0.313377483443709	0.135364238410596	-0.904900662251656				0.992953642384106	0.0637880794701987	0.157139072847682	-0.406092715231788	0.307814569536424	-0.30596026490066				-0.234172185430464	-0.0812715231788079	-0.88794701986755	1.96741721854305	0.986490066225167	-0.48026490066225				0.288529801324503	-0.000529801324503289	-0.917721854304636	0.802913907284768	0.4635761589404	2.18437086092715				0.916026490066225	0.0514966887417219	0.357933774834437	-0.608211920529802	-0.788079470198675	-0.617483443708608				0.191788079470199	-0.366834437086093	-0.868238410596026	1.14039735099338	-0.682384105960265	-0.754701986754968			
5	200	-0.248158940397351	0.0827549668874172	-0.935523178807947	0.313377483443709	0.135364238410596	-0.624900662251656				0.976953642384106	0.0637880794701987	0.141139072847682	-1.52609271523179	1.14781456953642	-0.86596026490066				-0.250172185430464	-0.0812715231788079	-0.88794701986755	0.847417218543046	1.26649006622517	-1.04026490066225				0.272529801324503	-0.000529801324503289	-0.933721854304636	0.802913907284768	1.0235761589404	1.62437086092715				0.900026490066225	0.0514966887417219	0.373933774834437	1.6317880794702	0.891920529801325	0.782516556291392				0.191788079470199	-0.366834437086093	-0.868238410596026	0.300397350993377	0.157615894039735	-0.194701986754968			
6	220	-0.248158940397351	0.0827549668874172	-0.935523178807947	-0.246622516556291	0.135364238410596	-0.904900662251656				0.992953642384106	0.0637880794701987	0.141139072847682	0.153907284768212	1.42781456953642	-0.0259602649006601				-0.250172185430464	-0.0812715231788079	-0.87194701986755	-0.552582781456954	-0.693509933774834	-0.20026490066225				0.288529801324503	0.0154701986754967	-0.917721854304636	-0.877086092715232	0.7435761589404	1.34437086092715				0.916026490066225	0.0514966887417219	0.341933774834437	-0.328211920529802	-0.508079470198675	-0.0574834437086077				0.191788079470199	-0.350834437086093	-0.836238410596026	-1.09960264900662	0.437615894039735	-0.194701986754968			
7	240	-0.248158940397351	0.0827549668874172	-0.935523178807947	0.593377483443709	0.135364238410596	-1.18490066225166				0.992953642384106	0.0637880794701987	0.141139072847682	0.713907284768212	1.98781456953642	-0.0259602649006601				-0.250172185430464	-0.0812715231788079	-0.88794701986755	0.287417218543046	-0.413509933774833	0.0797350993377501				0.288529801324503	0.0154701986754967	-0.933721854304636	-0.597086092715232	0.7435761589404	1.06437086092715				0.900026490066225	0.0514966887417219	0.357933774834437	-1.1682119205298	1.45192052980132	-1.17748344370861				0.191788079470199	-0.366834437086093	-0.852238410596026	-0.819602649006623	0.717615894039735	-0.194701986754968			
8	260	-0.248158940397351	0.0827549668874172	-0.935523178807947	0.593377483443709	0.695364238410596	-1.46490066225166				0.976953642384106	0.0477880794701987	0.141139072847682	-0.686092715231788	-0.252185430463576	0.53403973509934				-0.234172185430464	-0.0812715231788079	-0.88794701986755	0.567417218543046	0.706490066225167	-0.48026490066225				0.288529801324503	0.0154701986754967	-0.917721854304636	0.522913907284768	1.3035761589404	0.504370860927152				0.900026490066225	0.0514966887417219	0.373933774834437	-0.328211920529802	1.45192052980132	-0.897483443708608				0.207788079470199	-0.350834437086093	-0.868238410596026	-0.539602649006623	0.437615894039735	-0.194701986754968			
9	280	-0.248158940397351	0.0667549668874172	-0.935523178807947	0.0333774834437086	0.695364238410596	-0.904900662251656				0.976953642384106	0.0477880794701987	0.157139072847682	-1.24609271523179	-0.812185430463576	0.53403973509934				-0.250172185430464	-0.0972715231788079	-0.88794701986755	0.00741721854304636	0.986490066225167	0.0797350993377501				0.288529801324503	0.0154701986754967	-0.933721854304636	0.522913907284768	0.1835761589404	0.784370860927152				0.916026490066225	0.0514966887417219	0.357933774834437	-0.608211920529802	0.611920529801325	-1.17748344370861				0.191788079470199	-0.350834437086093	-0.852238410596026	-0.819602649006623	0.437615894039735	-1.03470198675497			
10	300	-0.248158940397351	0.0827549668874172	-0.951523178807947	-0.806622516556291	-0.144635761589404	-1.18490066225166				0.976953642384106	0.0477880794701987	0.141139072847682	-1.52609271523179	-1.37218543046358	-0.585960264900661				-0.234172185430464	-0.0812715231788079	-0.87194701986755	0.847417218543046	0.146490066225167	-0.48026490066225				0.288529801324503	0.0154701986754967	-0.933721854304636	0.522913907284768	1.0235761589404	0.224370860927152				0.916026490066225	0.0514966887417219	0.357933774834437	3.0317880794702	-0.788079470198675	-0.0574834437086077				0.207788079470199	-0.350834437086093	-0.868238410596026	0.300397350993377	0.157615894039735	-1.31470198675497			
11	320	-0.248158940397351	0.0827549668874172	-0.951523178807947	-1.36662251655629	0.415364238410596	-1.46490066225166				0.992953642384106	0.0637880794701987	0.157139072847682	-2.36609271523179	0.0278145695364242	-0.86596026490066				-0.234172185430464	-0.0812715231788079	-0.88794701986755	0.287417218543046	-0.413509933774833	0.0797350993377501				0.288529801324503	-0.000529801324503289	-0.917721854304636	-0.0370860927152318	0.4635761589404	0.504370860927152				0.916026490066225	0.0514966887417219	0.357933774834437	2.7517880794702	0.331920529801325	1.34251655629139				0.191788079470199	-0.366834437086093	-0.868238410596026	0.300397350993377	0.997615894039735	-2.43470198675497			
12	340	-0.248158940397351	0.0827549668874172	-0.935523178807947	0.313377483443709	0.695364238410596	-1.18490066225166				0.992953642384106	0.0477880794701987	0.157139072847682	-2.92609271523179	-1.09218543046358	-0.86596026490066				-0.234172185430464	-0.0812715231788079	-0.88794701986755	0.847417218543046	-0.693509933774834	-0.20026490066225				0.288529801324503	-0.000529801324503289	-0.933721854304636	-0.877086092715232	-0.6564238410596	-0.335629139072848				0.916026490066225	0.0514966887417219	0.357933774834437	0.231788079470198	0.891920529801325	-0.617483443708608				0.191788079470199	-0.366834437086093	-0.868238410596026	-0.259602649006623	0.437615894039735	-1.87470198675497			
13	360	-0.248158940397351	0.0667549668874172	-0.951523178807947	0.313377483443709	0.415364238410596	-0.904900662251656				0.992953642384106	0.0477880794701987	0.141139072847682	-4.04609271523179	-0.532185430463576	-1.14596026490066				-0.234172185430464	-0.0812715231788079	-0.88794701986755	0.287417218543046	0.986490066225167	0.35973509933775				0.288529801324503	0.0154701986754967	-0.933721854304636	-0.597086092715232	0.4635761589404	0.504370860927152				0.916026490066225	0.0514966887417219	0.389933774834437	-0.0482119205298018	1.45192052980132	-0.337483443708608				0.191788079470199	-0.366834437086093	-0.868238410596026	-1.65960264900662	0.997615894039735	-1.03470198675497			
14	380	-0.232158940397351	0.0827549668874172	-0.951523178807947	0.313377483443709	0.415364238410596	-1.46490066225166				0.992953642384106	0.0637880794701987	0.141139072847682	-5.16609271523179	0.307814569536424	-0.86596026490066				-0.250172185430464	-0.0972715231788079	-0.88794701986755	1.40741721854305	0.986490066225167	-0.20026490066225				0.288529801324503	0.0154701986754967	-0.949721854304636	0.802913907284768	1.5835761589404	-0.615629139072848				0.916026490066225	0.0514966887417219	0.373933774834437	1.0717880794702	0.891920529801325	-0.0574834437086077				0.191788079470199	-0.350834437086093	-0.868238410596026	0.0203973509933773	0.437615894039735	-1.31470198675497			
15	400	-0.248158940397351	0.0827549668874172	-0.935523178807947	0.593377483443709	0.975364238410596	-0.904900662251656				0.976953642384106	0.0637880794701987	0.141139072847682	-5.44609271523179	1.42781456953642	-0.86596026490066				-0.250172185430464	-0.0812715231788079	-0.87194701986755	0.847417218543046	0.986490066225167	0.0797350993377501				0.288529801324503	-0.000529801324503289	-0.933721854304636	0.522913907284768	2.1435761589404	-1.17562913907285				0.900026490066225	0.0514966887417219	0.373933774834437	3.0317880794702	0.331920529801325	0.222516556291392				0.191788079470199	-0.350834437086093	-0.868238410596026	1.42039735099338	0.437615894039735	-1.59470198675497			
16	420	-0.248158940397351	0.0827549668874172	-0.935523178807947	0.593377483443709	0.695364238410596	-0.904900662251656				0.976953642384106	0.0477880794701987	0.141139072847682	-5.16609271523179	1.70781456953642	-1.42596026490066				-0.234172185430464	-0.0972715231788079	-0.87194701986755	0.00741721854304636	-0.133509933774833	-0.76026490066225				0.288529801324503	-0.000529801324503289	-0.917721854304636	-0.597086092715232	0.1835761589404	-0.615629139072848				0.900026490066225	0.0514966887417219	0.357933774834437	1.3517880794702	0.891920529801325	-0.897483443708608				0.207788079470199	-0.366834437086093	-0.852238410596026	0.580397350993377	-0.122384105960265	-0.194701986754968			
17	440	-0.248158940397351	0.0667549668874172	-0.935523178807947	-0.806622516556291	-0.144635761589404	-1.46490066225166				0.976953642384106	0.0637880794701987	0.157139072847682	-6.00609271523179	0.867814569536424	-1.70596026490066				-0.234172185430464	-0.0812715231788079	-0.88794701986755	0.567417218543046	0.146490066225167	0.35973509933775				0.288529801324503	0.0154701986754967	-0.901721854304636	-1.43708609271523	-0.9364238410596	-0.895629139072848				0.900026490066225	0.0514966887417219	0.373933774834437	-0.328211920529802	0.331920529801325	-0.337483443708608				0.207788079470199	-0.366834437086093	-0.852238410596026	-1.37960264900662	-0.122384105960265	1.20529801324503			
18	460	-0.232158940397351	0.0827549668874172	-0.935523178807947	-0.806622516556291	-0.144635761589404	-1.46490066225166				0.976953642384106	0.0637880794701987	0.157139072847682	-6.00609271523179	-0.812185430463576	-1.70596026490066				-0.234172185430464	-0.0812715231788079	-0.87194701986755	-0.552582781456954	-0.133509933774833	0.91973509933775				0.288529801324503	-0.000529801324503289	-0.917721854304636	-0.597086092715232	-0.9364238410596	-0.615629139072848				0.900026490066225	0.0514966887417219	0.373933774834437	-0.608211920529802	-0.228079470198675	-0.617483443708608				0.207788079470199	-0.350834437086093	-0.852238410596026	-0.819602649006623	0.717615894039735	1.48529801324503			
19	480	-0.248158940397351	0.0667549668874172	-0.935523178807947	0.313377483443709	-0.144635761589404	-1.18490066225166				0.976953642384106	0.0637880794701987	0.157139072847682	-4.60609271523179	-0.252185430463576	-1.70596026490066				-0.234172185430464	-0.0812715231788079	-0.88794701986755	0.00741721854304636	-0.693509933774834	0.35973509933775				0.288529801324503	0.0154701986754967	-0.917721854304636	1.36291390728477	1.5835761589404	1.06437086092715				0.900026490066225	0.0514966887417219	0.373933774834437	-0.888211920529802	-1.06807947019868	0.222516556291392				0.207788079470199	-0.350834437086093	-0.852238410596026	0.300397350993377	-0.402384105960265	0.365298013245032			
20	500	-0.232158940397351	0.0667549668874172	-0.935523178807947	-0.526622516556291	0.135364238410596	-1.46490066225166				0.976953642384106	0.0477880794701987	0.141139072847682	-3.48609271523179	1.70781456953642	-0.86596026490066				-0.234172185430464	-0.0812715231788079	-0.88794701986755	0.00741721854304636	-0.693509933774834	0.0797350993377501				0.288529801324503	0.0154701986754967	-0.917721854304636	1.36291390728477	1.0235761589404	1.62437086092715				0.884026490066225	0.0514966887417219	0.357933774834437	1.3517880794702	0.0519205298013249	0.502516556291392				0.207788079470199	-0.350834437086093	-0.852238410596026	0.580397350993377	-0.402384105960265	0.365298013245032			
21	520	-0.248158940397351	0.0667549668874172	-0.935523178807947	-0.806622516556291	0.415364238410596	-1.46490066225166				0.992953642384106	0.0637880794701987	0.173139072847682	-3.76609271523179	0.0278145695364242	-1.14596026490066				-0.250172185430464	-0.0812715231788079	-0.90394701986755	0.287417218543046	0.706490066225167	-0.20026490066225				0.288529801324503	0.0154701986754967	-0.917721854304636	0.242913907284768	0.4635761589404	1.34437086092715				0.916026490066225	0.0674966887417219	0.373933774834437	-2.2882119205298	0.611920529801325	-0.617483443708608				0.207788079470199	-0.366834437086093	-0.852238410596026	0.300397350993377	-0.122384105960265	-0.194701986754968			
22	540	-0.248158940397351	0.0667549668874172	-0.935523178807947	0.0333774834437086	-0.144635761589404	-1.18490066225166				0.976953642384106	0.0637880794701987	0.173139072847682	-2.64609271523179	-0.532185430463576	-0.30596026490066				-0.250172185430464	-0.0812715231788079	-0.88794701986755	0.287417218543046	-0.973509933774833	0.35973509933775				0.304529801324503	0.0154701986754967	-0.933721854304636	1.36291390728477	0.7435761589404	1.90437086092715				0.900026490066225	0.0514966887417219	0.373933774834437	-1.4482119205298	-1.06807947019868	0.502516556291392				0.207788079470199	-0.366834437086093	-0.868238410596026	-0.259602649006623	0.717615894039735	-0.194701986754968			
23	560	-0.248158940397351	0.0827549668874172	-0.935523178807947	0.0333774834437086	0.135364238410596	-1.18490066225166				0.976953642384106	0.0637880794701987	0.157139072847682	-2.08609271523179	0.307814569536424	-0.86596026490066				-0.234172185430464	-0.0812715231788079	-0.88794701986755	0.00741721854304636	-0.133509933774833	-0.20026490066225				0.304529801324503	-0.000529801324503289	-0.949721854304636	1.36291390728477	1.3035761589404	2.46437086092715				0.900026490066225	0.0514966887417219	0.389933774834437	-1.1682119205298	-0.228079470198675	0.222516556291392				0.191788079470199	-0.350834437086093	-0.868238410596026	-0.259602649006623	0.437615894039735	-0.194701986754968			
24	580	-0.248158940397351	0.0827549668874172	-0.935523178807947	0.313377483443709	0.135364238410596	-0.904900662251656				0.992953642384106	0.0637880794701987	0.157139072847682	-0.686092715231788	1.70781456953642	-1.14596026490066				-0.234172185430464	-0.0812715231788079	-0.88794701986755	0.00741721854304636	0.146490066225167	-0.20026490066225				0.304529801324503	-0.000529801324503289	-0.933721854304636	0.802913907284768	1.8635761589404	2.18437086092715				0.916026490066225	0.0514966887417219	0.357933774834437	-1.1682119205298	-0.788079470198675	-0.337483443708608				0.207788079470199	-0.366834437086093	-0.868238410596026	0.300397350993377	-0.402384105960265	-0.754701986754968			
25	600	-0.248158940397351	0.0827549668874172	-0.935523178807947	0.0333774834437086	0.415364238410596	-0.624900662251656				0.992953642384106	0.0637880794701987	0.141139072847682	-1.24609271523179	2.54781456953642	-1.42596026490066				-0.234172185430464	-0.0812715231788079	-0.88794701986755	0.00741721854304636	0.986490066225167	0.0797350993377501				0.304529801324503	-0.000529801324503289	-0.917721854304636	1.64291390728477	1.3035761589404	1.90437086092715				0.916026490066225	0.0514966887417219	0.373933774834437	-2.8482119205298	-0.788079470198675	-0.337483443708608				0.207788079470199	-0.366834437086093	-0.868238410596026	-0.259602649006623	-0.122384105960265	0.0852980132450323			
26	620	-0.248158940397351	0.0827549668874172	-0.935523178807947	0.0333774834437086	0.415364238410596	-0.904900662251656				0.976953642384106	0.0637880794701987	0.157139072847682	-3.20609271523179	2.54781456953642	-1.42596026490066				-0.250172185430464	-0.0812715231788079	-0.88794701986755	0.00741721854304636	1.26649006622517	-0.20026490066225				0.304529801324503	-0.000529801324503289	-0.917721854304636	1.64291390728477	1.3035761589404	2.46437086092715				0.916026490066225	0.0514966887417219	0.389933774834437	-3.4082119205298	-1.62807947019868	-1.45748344370861				0.191788079470199	-0.366834437086093	-0.868238410596026	-0.259602649006623	0.997615894039735	0.0852980132450323			
27	640	-0.248158940397351	0.0667549668874172	-0.935523178807947	0.0333774834437086	0.135364238410596	-0.904900662251656				0.992953642384106	0.0637880794701987	0.157139072847682	-3.48609271523179	1.42781456953642	-0.0259602649006601				-0.234172185430464	-0.0972715231788079	-0.87194701986755	1.12741721854305	-0.133509933774833	0.35973509933775				0.304529801324503	-0.000529801324503289	-0.949721854304636	1.36291390728477	0.7435761589404	2.74437086092715				0.916026490066225	0.0514966887417219	0.373933774834437	-2.5682119205298	-2.74807947019868	-1.17748344370861				0.191788079470199	-0.366834437086093	-0.868238410596026	0.580397350993377	1.27761589403974	0.365298013245032			
28	660	-0.248158940397351	0.0827549668874172	-0.935523178807947	-0.246622516556291	-0.144635761589404	-0.344900662251656				0.992953642384106	0.0637880794701987	0.141139072847682	-2.36609271523179	0.307814569536424	-0.585960264900661				-0.250172185430464	-0.0812715231788079	-0.88794701986755	0.567417218543046	0.146490066225167	0.35973509933775				0.304529801324503	-0.000529801324503289	-0.933721854304636	0.522913907284768	-0.3764238410596	2.74437086092715				0.916026490066225	0.0674966887417219	0.357933774834437	-1.7282119205298	-1.90807947019868	0.222516556291392				0.191788079470199	-0.366834437086093	-0.868238410596026	-0.819602649006623	0.717615894039735	0.365298013245032			
29	680	-0.248158940397351	0.0827549668874172	-0.935523178807947	-0.806622516556291	-0.144635761589404	-1.18490066225166				0.976953642384106	0.0637880794701987	0.157139072847682	-1.24609271523179	0.587814569536424	-0.30596026490066				-0.250172185430464	-0.0812715231788079	-0.88794701986755	-0.272582781456954	0.426490066225167	-0.20026490066225				0.304529801324503	-0.000529801324503289	-0.917721854304636	-0.0370860927152318	-1.2164238410596	1.34437086092715				0.916026490066225	0.0514966887417219	0.357933774834437	-1.4482119205298	-1.90807947019868	-0.337483443708608				0.191788079470199	-0.350834437086093	-0.868238410596026	-1.09960264900662	0.717615894039735	1.20529801324503			
30	700	-0.248158940397351	0.0667549668874172	-0.935523178807947	-0.806622516556291	0.975364238410596	-0.904900662251656				0.992953642384106	0.0637880794701987	0.157139072847682	-1.52609271523179	0.0278145695364242	-1.14596026490066				-0.234172185430464	-0.0812715231788079	-0.88794701986755	-0.552582781456954	0.706490066225167	0.63973509933775				0.288529801324503	-0.000529801324503289	-0.917721854304636	1.08291390728477	-1.7764238410596	1.62437086092715				0.900026490066225	0.0514966887417219	0.373933774834437	-2.0082119205298	-2.74807947019868	-0.0574834437086077				0.191788079470199	-0.350834437086093	-0.852238410596026	-1.09960264900662	0.437615894039735	0.925298013245032			
31	720	-0.232158940397351	0.0827549668874172	-0.935523178807947	-0.526622516556291	0.975364238410596	-0.624900662251656				0.976953642384106	0.0637880794701987	0.157139072847682	-1.80609271523179	-0.252185430463576	-0.585960264900661				-0.250172185430464	-0.0812715231788079	-0.88794701986755	-0.272582781456954	-0.413509933774833	-0.20026490066225				0.288529801324503	-0.0165298013245033	-0.933721854304636	0.522913907284768	-1.2164238410596	1.62437086092715				0.900026490066225	0.0514966887417219	0.373933774834437	-2.0082119205298	-2.18807947019868	0.222516556291392				0.191788079470199	-0.366834437086093	-0.852238410596026	0.0203973509933773	0.437615894039735	-1.03470198675497			
32	740	-0.232158940397351	0.0667549668874172	-0.935523178807947	0.0333774834437086	0.415364238410596	-0.624900662251656				0.976953642384106	0.0637880794701987	0.141139072847682	-2.36609271523179	-0.252185430463576	-0.86596026490066				-0.234172185430464	-0.0812715231788079	-0.87194701986755	-0.272582781456954	0.426490066225167	-0.20026490066225				0.288529801324503	-0.0165298013245033	-0.933721854304636	-1.15708609271523	0.1835761589404	1.62437086092715				0.900026490066225	0.0514966887417219	0.373933774834437	-0.0482119205298018	-1.06807947019868	-0.0574834437086077				0.191788079470199	-0.366834437086093	-0.868238410596026	-0.259602649006623	0.437615894039735	0.0852980132450323			
33	760	-0.248158940397351	0.0667549668874172	-0.935523178807947	-0.526622516556291	0.415364238410596	-1.18490066225166				0.976953642384106	0.0637880794701987	0.157139072847682	-1.24609271523179	-1.09218543046358	-0.30596026490066				-0.250172185430464	-0.0652715231788079	-0.88794701986755	-0.272582781456954	-0.693509933774834	-0.20026490066225				0.288529801324503	-0.000529801324503289	-0.933721854304636	-0.317086092715232	1.5835761589404	1.62437086092715				0.916026490066225	0.0514966887417219	0.357933774834437	-0.0482119205298018	-1.90807947019868	0.502516556291392				0.191788079470199	-0.366834437086093	-0.868238410596026	-1.65960264900662	0.997615894039735	0.365298013245032			
34	780	-0.248158940397351	0.0827549668874172	-0.935523178807947	-0.806622516556291	0.415364238410596	-0.0649006622516557				0.976953642384106	0.0637880794701987	0.141139072847682	0.993907284768212	-1.37218543046358	0.25403973509934				-0.234172185430464	-0.0652715231788079	-0.88794701986755	2.24741721854305	1.26649006622517	-0.20026490066225				0.304529801324503	-0.000529801324503289	-0.901721854304636	2.48291390728477	0.4635761589404	3.02437086092715				0.916026490066225	0.0514966887417219	0.357933774834437	-0.608211920529802	-1.90807947019868	0.502516556291392				0.207788079470199	-0.350834437086093	-0.836238410596026	-1.37960264900662	0.157615894039735	-0.474701986754968			
35	800	-0.248158940397351	0.0827549668874172	-0.935523178807947	-0.526622516556291	0.415364238410596	-0.624900662251656				0.976953642384106	0.0637880794701987	0.157139072847682	0.993907284768212	0.307814569536424	-0.30596026490066				-0.234172185430464	-0.0812715231788079	-0.87194701986755	1.40741721854305	-0.133509933774833	0.0797350993377501				0.288529801324503	-0.000529801324503289	-0.933721854304636	2.76291390728477	0.7435761589404	2.74437086092715				0.916026490066225	0.0354966887417219	0.357933774834437	-0.888211920529802	-1.90807947019868	0.782516556291392				0.207788079470199	-0.366834437086093	-0.868238410596026	0.580397350993377	-0.682384105960265	-0.474701986754968			
36	820	-0.248158940397351	0.0827549668874172	-0.935523178807947	0.0333774834437086	0.975364238410596	-0.0649006622516557				0.976953642384106	0.0477880794701987	0.141139072847682	-0.966092715231788	2.82781456953642	-0.86596026490066				-0.234172185430464	-0.0812715231788079	-0.87194701986755	0.00741721854304636	-0.133509933774833	0.35973509933775				0.288529801324503	-0.000529801324503289	-0.933721854304636	1.36291390728477	1.3035761589404	1.34437086092715				0.900026490066225	0.0674966887417219	0.373933774834437	-0.0482119205298018	-1.62807947019868	-0.337483443708608				0.191788079470199	-0.366834437086093	-0.868238410596026	0.580397350993377	-0.962384105960265	-0.474701986754968			
37	840	-0.248158940397351	0.0827549668874172	-0.935523178807947	0.0333774834437086	0.415364238410596	-0.904900662251656				0.992953642384106	0.0637880794701987	0.173139072847682	-1.80609271523179	3.38781456953642	-1.70596026490066				-0.234172185430464	-0.0812715231788079	-0.88794701986755	-1.67258278145695	-0.133509933774833	0.0797350993377501				0.288529801324503	-0.0165298013245033	-0.933721854304636	0.522913907284768	2.7035761589404	1.34437086092715				0.900026490066225	0.0354966887417219	0.341933774834437	2.1917880794702	-2.18807947019868	1.34251655629139				0.191788079470199	-0.366834437086093	-0.868238410596026	-0.819602649006623	0.157615894039735	0.365298013245032			
38	860	-0.248158940397351	0.0827549668874172	-0.935523178807947	-0.246622516556291	0.415364238410596	-0.344900662251656				0.976953642384106	0.0637880794701987	0.173139072847682	-1.52609271523179	1.42781456953642	-0.86596026490066				-0.234172185430464	-0.0812715231788079	-0.88794701986755	1.40741721854305	0.986490066225167	-0.20026490066225				0.288529801324503	-0.0165298013245033	-0.933721854304636	-0.317086092715232	1.5835761589404	0.224370860927152				0.900026490066225	0.0514966887417219	0.357933774834437	-0.888211920529802	1.17192052980133	-1.17748344370861				0.175788079470199	-0.350834437086093	-0.868238410596026	-1.09960264900662	-0.122384105960265	0.365298013245032			
39	880	-0.248158940397351	0.0667549668874172	-0.935523178807947	-0.246622516556291	0.135364238410596	-1.18490066225166				0.976953642384106	0.0637880794701987	0.157139072847682	-1.24609271523179	0.587814569536424	-0.30596026490066				-0.234172185430464	-0.0812715231788079	-0.87194701986755	0.847417218543046	0.146490066225167	-0.48026490066225				0.288529801324503	-0.000529801324503289	-0.917721854304636	0.522913907284768	-0.0964238410596001	0.504370860927152				0.900026490066225	0.0354966887417219	0.357933774834437	-1.1682119205298	-0.228079470198675	-1.45748344370861				0.191788079470199	-0.366834437086093	-0.852238410596026	-0.259602649006623	-0.962384105960265	0.0852980132450323			
40	900	-0.232158940397351	0.0667549668874172	-0.935523178807947	-0.806622516556291	0.135364238410596	-1.18490066225166				0.976953642384106	0.0797880794701987	0.157139072847682	-0.966092715231788	-0.252185430463576	0.25403973509934				-0.250172185430464	-0.0812715231788079	-0.85594701986755	-1.11258278145695	-0.413509933774833	-0.48026490066225				0.288529801324503	-0.000529801324503289	-0.917721854304636	-0.877086092715232	-1.2164238410596	1.06437086092715				0.900026490066225	0.0514966887417219	0.357933774834437	-1.4482119205298	0.0519205298013249	-1.17748344370861				0.191788079470199	-0.350834437086093	-0.868238410596026	-0.819602649006623	-0.402384105960265	-0.754701986754968			
41	920	-0.248158940397351	0.0987549668874172	-0.951523178807947	0.0333774834437086	0.415364238410596	-1.46490066225166				0.992953642384106	0.0637880794701987	0.141139072847682	-0.406092715231788	0.0278145695364242	-0.30596026490066				-0.234172185430464	-0.0812715231788079	-0.88794701986755	-1.11258278145695	0.426490066225167	0.0797350993377501				0.288529801324503	-0.000529801324503289	-0.917721854304636	-1.71708609271523	-0.3764238410596	0.224370860927152				0.916026490066225	0.0514966887417219	0.373933774834437	1.0717880794702	-1.34807947019868	-0.337483443708608				0.191788079470199	-0.366834437086093	-0.852238410596026	0.580397350993377	0.437615894039735	-0.474701986754968			
42	940	-0.248158940397351	0.0827549668874172	-0.935523178807947	0.0333774834437086	0.975364238410596	-1.46490066225166				0.992953642384106	0.0637880794701987	0.141139072847682	-0.686092715231788	2.82781456953642	-0.86596026490066				-0.250172185430464	-0.0812715231788079	-0.88794701986755	-0.552582781456954	0.426490066225167	0.35973509933775				0.288529801324503	-0.000529801324503289	-0.917721854304636	-0.877086092715232	1.0235761589404	0.784370860927152				0	0	0	0	0	0				0	0	0	0	0	0			
43	960	-0.232158940397351	0.0827549668874172	-0.935523178807947	0.313377483443709	0.695364238410596	-0.904900662251656				0	0	0	0	0	0				0	0	0	0	0	0				0	0	0	0	0	0				0	0	0	0	0	0				0	0	0	0	0	0			
44	1060	0	0	0	0	0	0				0	0	0	0	0	0				0	0	0	0	0	0				0	0	0	0	0	0				0.900026490066225	0.0514966887417219	0.357933774834437	-1.1682119205298	-2.18807947019868	-1.45748344370861				0	0	0	0	0	0			
45	1080	-0.248158940397351	0.0827549668874172	-0.951523178807947	-0.246622516556291	0.135364238410596	-1.18490066225166				0.976953642384106	0.0637880794701987	0.157139072847682	-0.686092715231788	2.54781456953642	0.53403973509934				-0.250172185430464	-0.0812715231788079	-0.88794701986755	0.567417218543046	0.706490066225167	0.35973509933775				0.304529801324503	-0.000529801324503289	-0.917721854304636	-1.43708609271523	-0.6564238410596	-0.615629139072848				0.884026490066225	0.0514966887417219	0.357933774834437	-0.328211920529802	0.0519205298013249	-1.17748344370861				0.191788079470199	-0.350834437086093	-0.852238410596026	-0.819602649006623	0.717615894039735	0.365298013245032			
46	1100	-0.248158940397351	0.0827549668874172	-0.935523178807947	0.313377483443709	-0.144635761589404	-1.18490066225166				0.976953642384106	0.0637880794701987	0.157139072847682	-0.686092715231788	2.82781456953642	1.09403973509934				-0.250172185430464	-0.0812715231788079	-0.90394701986755	0.00741721854304636	-0.133509933774833	-0.20026490066225				0.304529801324503	-0.000529801324503289	-0.917721854304636	-1.15708609271523	0.1835761589404	0.784370860927152				0.900026490066225	0.0514966887417219	0.341933774834437	0.231788079470198	-2.18807947019868	-1.73748344370861				0.207788079470199	-0.350834437086093	-0.852238410596026	-0.819602649006623	0.157615894039735	0.645298013245032			
47	1120	-0.248158940397351	0.0827549668874172	-0.935523178807947	1.15337748344371	0.415364238410596	-1.46490066225166				0.976953642384106	0.0637880794701987	0.173139072847682	0.433907284768212	4.50781456953642	1.09403973509934				-0.234172185430464	-0.0812715231788079	-0.88794701986755	-1.39258278145695	0.426490066225167	-0.48026490066225				0.304529801324503	-0.000529801324503289	-0.917721854304636	-0.597086092715232	1.5835761589404	1.34437086092715				0.900026490066225	0.0674966887417219	0.373933774834437	-0.888211920529802	-0.228079470198675	-1.45748344370861				0.207788079470199	-0.366834437086093	-0.852238410596026	-0.539602649006623	0.717615894039735	1.20529801324503			
48	1140	-0.232158940397351	0.0827549668874172	-0.919523178807947	0.313377483443709	0.975364238410596	-1.18490066225166				0.992953642384106	0.0637880794701987	0.189139072847682	0.713907284768212	2.82781456953642	1.65403973509934				-0.234172185430464	-0.0812715231788079	-0.87194701986755	0.00741721854304636	0.706490066225167	0.35973509933775				0.304529801324503	-0.000529801324503289	-0.917721854304636	-1.15708609271523	1.3035761589404	1.06437086092715				0.916026490066225	0.0674966887417219	0.357933774834437	1.3517880794702	-1.34807947019868	-0.617483443708608				0.207788079470199	-0.350834437086093	-0.852238410596026	-1.65960264900662	1.27761589403974	1.20529801324503			
49	1160	-0.232158940397351	0.0827549668874172	-0.935523178807947	-0.246622516556291	-0.144635761589404	-0.904900662251656				0.976953642384106	0.0637880794701987	0.173139072847682	0.433907284768212	1.14781456953642	0.81403973509934				-0.234172185430464	-0.0652715231788079	-0.88794701986755	1.40741721854305	0.706490066225167	0.63973509933775				0.304529801324503	-0.000529801324503289	-0.917721854304636	-1.43708609271523	1.0235761589404	1.34437086092715				0.900026490066225	0.0514966887417219	0.357933774834437	1.9117880794702	-1.34807947019868	-0.617483443708608				0.191788079470199	-0.366834437086093	-0.836238410596026	-1.09960264900662	2.11761589403974	1.20529801324503			
50	1180	-0.248158940397351	0.0827549668874172	-0.935523178807947	-0.806622516556291	-0.704635761589404	-0.624900662251656				0.976953642384106	0.0637880794701987	0.173139072847682	0.153907284768212	1.14781456953642	0.25403973509934				-0.234172185430464	-0.0812715231788079	-0.87194701986755	1.40741721854305	0.146490066225167	0.0797350993377501				0.288529801324503	-0.000529801324503289	-0.917721854304636	-0.0370860927152318	1.3035761589404	1.62437086092715				0.900026490066225	0.0514966887417219	0.357933774834437	-1.7282119205298	-0.508079470198675	-1.45748344370861				0.207788079470199	-0.366834437086093	-0.868238410596026	-1.37960264900662	2.11761589403974	1.20529801324503			
51	1200	-0.248158940397351	0.0667549668874172	-0.935523178807947	-0.806622516556291	-0.424635761589404	-1.18490066225166				0.976953642384106	0.0637880794701987	0.173139072847682	0.153907284768212	-0.252185430463576	0.53403973509934				-0.234172185430464	-0.0812715231788079	-0.88794701986755	-0.552582781456954	-0.693509933774834	-0.20026490066225				0.288529801324503	-0.0165298013245033	-0.933721854304636	-0.877086092715232	1.5835761589404	1.90437086092715				0.916026490066225	0.0354966887417219	0.357933774834437	-1.7282119205298	-0.228079470198675	-1.73748344370861				0.223788079470199	-0.350834437086093	-0.868238410596026	-1.65960264900662	2.11761589403974	2.04529801324503			
52	1220	-0.248158940397351	0.0667549668874172	-0.935523178807947	-0.246622516556291	0.135364238410596	-1.46490066225166				0.992953642384106	0.0637880794701987	0.173139072847682	-1.52609271523179	0.0278145695364242	-0.86596026490066				-0.234172185430464	-0.0812715231788079	-0.88794701986755	-1.67258278145695	0.146490066225167	0.0797350993377501				0.288529801324503	-0.000529801324503289	-0.917721854304636	-0.0370860927152318	2.4235761589404	3.30437086092715				0.900026490066225	0.0354966887417219	0.357933774834437	-1.1682119205298	-0.788079470198675	-2.01748344370861				0.207788079470199	-0.366834437086093	-0.868238410596026	-0.539602649006623	2.39761589403974	2.04529801324503			
53	1240	-0.264158940397351	0.0827549668874172	-0.935523178807947	-1.36662251655629	0.135364238410596	-1.18490066225166				0.976953642384106	0.0637880794701987	0.173139072847682	-2.08609271523179	-0.252185430463576	-1.70596026490066				-0.250172185430464	-0.0812715231788079	-0.87194701986755	-0.832582781456954	0.146490066225167	-0.20026490066225				0.288529801324503	-0.0165298013245033	-0.933721854304636	-1.15708609271523	1.3035761589404	2.74437086092715				0.916026490066225	0.0514966887417219	0.357933774834437	-2.2882119205298	-0.788079470198675	-1.73748344370861				0.207788079470199	-0.366834437086093	-0.868238410596026	-0.259602649006623	1.27761589403974	2.60529801324503			
54	1260	-0.248158940397351	0.0827549668874172	-0.935523178807947	-1.36662251655629	0.415364238410596	-0.904900662251656				0.976953642384106	0.0797880794701987	0.173139072847682	-1.24609271523179	-1.93218543046358	-0.86596026490066				-0.250172185430464	-0.0652715231788079	-0.87194701986755	-0.552582781456954	-0.693509933774834	0.0797350993377501				0.288529801324503	-0.0165298013245033	-0.933721854304636	-1.71708609271523	1.3035761589404	4.14437086092715				0.916026490066225	0.0514966887417219	0.357933774834437	-3.6882119205298	0.611920529801325	-2.01748344370861				0.207788079470199	-0.366834437086093	-0.868238410596026	-0.819602649006623	1.55761589403974	3.44529801324503			
55	1280	-0.248158940397351	0.0667549668874172	-0.951523178807947	-1.08662251655629	0.135364238410596	-1.18490066225166				0.976953642384106	0.0637880794701987	0.141139072847682	0.713907284768212	-3.33218543046358	0.25403973509934				-0.250172185430464	-0.0812715231788079	-0.88794701986755	-1.11258278145695	-0.973509933774833	0.0797350993377501				0.288529801324503	0.0154701986754967	-0.917721854304636	-0.877086092715232	1.0235761589404	4.98437086092715				0.916026490066225	0.0514966887417219	0.357933774834437	-5.0882119205298	-0.228079470198675	-2.85748344370861				0.207788079470199	-0.366834437086093	-0.868238410596026	-3.05960264900662	2.39761589403974	3.16529801324503			
56	1300	-0.248158940397351	0.0827549668874172	-0.951523178807947	0.593377483443709	0.415364238410596	-0.904900662251656				0.976953642384106	0.0637880794701987	0.157139072847682	0.433907284768212	-2.77218543046358	-1.14596026490066				-0.250172185430464	-0.0812715231788079	-0.88794701986755	-2.51258278145695	0.706490066225167	-0.20026490066225				0.304529801324503	-0.000529801324503289	-0.933721854304636	0.242913907284768	0.7435761589404	4.42437086092715				0.916026490066225	0.0514966887417219	0.357933774834437	-5.6482119205298	-0.508079470198675	-2.01748344370861				0.207788079470199	-0.366834437086093	-0.852238410596026	-1.09960264900662	2.95761589403974	3.72529801324503			
57	1320	-0.248158940397351	0.0827549668874172	-0.935523178807947	0.313377483443709	0.975364238410596	-1.74490066225166				0.992953642384106	0.0797880794701987	0.157139072847682	-0.406092715231788	-1.09218543046358	-1.14596026490066				-0.250172185430464	-0.0812715231788079	-0.88794701986755	-1.11258278145695	0.146490066225167	0.0797350993377501				0.288529801324503	0.0154701986754967	-0.917721854304636	0.242913907284768	1.8635761589404	4.42437086092715				0.916026490066225	0.0514966887417219	0.357933774834437	-4.5282119205298	-0.788079470198675	-0.897483443708608				0.207788079470199	-0.350834437086093	-0.868238410596026	0.300397350993377	3.23761589403974	4.28529801324503			
58	1340	-0.248158940397351	0.0667549668874172	-0.935523178807947	-1.92662251655629	0.975364238410596	-1.46490066225166				0.976953642384106	0.0637880794701987	0.173139072847682	0.153907284768212	-2.49218543046358	0.53403973509934				-0.250172185430464	-0.0812715231788079	-0.88794701986755	-0.552582781456954	-0.133509933774833	-0.20026490066225				0.288529801324503	-0.000529801324503289	-0.917721854304636	-0.0370860927152318	2.9835761589404	4.70437086092715				0.916026490066225	0.0514966887417219	0.341933774834437	-5.6482119205298	0.0519205298013249	-1.45748344370861				0.207788079470199	-0.366834437086093	-0.868238410596026	1.70039735099338	2.67761589403974	4.00529801324503			
59	1360	-0.232158940397351	0.0827549668874172	-0.935523178807947	-1.92662251655629	-0.144635761589404	-1.74490066225166				0.976953642384106	0.0797880794701987	0.173139072847682	0.153907284768212	-5.29218543046358	-0.30596026490066				-0.234172185430464	-0.0652715231788079	-0.87194701986755	-0.552582781456954	0.986490066225167	-0.48026490066225				0.288529801324503	-0.000529801324503289	-0.901721854304636	-1.99708609271523	2.7035761589404	4.70437086092715				0.916026490066225	0.0514966887417219	0.357933774834437	-6.4882119205298	1.17192052980133	-1.17748344370861				0.191788079470199	-0.366834437086093	-0.852238410596026	-1.09960264900662	2.95761589403974	5.96529801324503			
60	1380	-0.248158940397351	0.0827549668874172	-0.935523178807947	-2.76662251655629	0.415364238410596	-0.904900662251656				0.960953642384106	0.0637880794701987	0.157139072847682	-0.686092715231788	-4.73218543046358	0.25403973509934				-0.234172185430464	-0.0652715231788079	-0.88794701986755	-0.552582781456954	-0.133509933774833	-0.48026490066225				0.288529801324503	0.0154701986754967	-0.917721854304636	-0.0370860927152318	4.3835761589404	6.94437086092715				0.900026490066225	0.0514966887417219	0.357933774834437	-7.0482119205298	0.331920529801325	-1.45748344370861				0.191788079470199	-0.366834437086093	-0.868238410596026	-3.89960264900662	4.07761589403974	7.64529801324503			
61	1400	-0.232158940397351	0.0827549668874172	-0.951523178807947	-2.76662251655629	0.975364238410596	-0.904900662251656				0.976953642384106	0.0797880794701987	0.173139072847682	0.433907284768212	-0.812185430463576	-0.30596026490066				-0.234172185430464	-0.0812715231788079	-0.88794701986755	-1.39258278145695	-0.413509933774833	-0.20026490066225				0.288529801324503	-0.000529801324503289	-0.917721854304636	1.92291390728477	5.2235761589404	8.06437086092715				0.900026490066225	0.0514966887417219	0.357933774834437	-5.3682119205298	-0.788079470198675	-1.17748344370861				0.191788079470199	-0.350834437086093	-0.836238410596026	-1.93960264900662	4.63761589403974	7.92529801324503			
62	1420	-0.232158940397351	0.0827549668874172	-0.935523178807947	-1.36662251655629	0.975364238410596	-0.344900662251656				0.976953642384106	0.0797880794701987	0.189139072847682	3.23390728476821	3.66781456953642	0.53403973509934				-0.234172185430464	-0.0652715231788079	-0.88794701986755	-1.67258278145695	-0.413509933774833	-0.20026490066225				0.304529801324503	-0.0325298013245033	-0.933721854304636	1.64291390728477	5.5035761589404	9.46437086092715				0.900026490066225	0.0674966887417219	0.325933774834437	-6.4882119205298	-0.228079470198675	-1.17748344370861				0.191788079470199	-0.350834437086093	-0.852238410596026	1.14039735099338	3.79761589403974	8.20529801324503			
63	1440	-0.232158940397351	0.0827549668874172	-0.919523178807947	-0.806622516556291	0.415364238410596	-0.344900662251656				0.992953642384106	0.0637880794701987	0.173139072847682	4.35390728476821	2.54781456953642	0.53403973509934				-0.250172185430464	-0.0652715231788079	-0.88794701986755	-0.552582781456954	0.706490066225167	0.63973509933775				0.288529801324503	-0.0325298013245033	-0.949721854304636	-1.43708609271523	4.3835761589404	10.3043708609272				0.900026490066225	0.0514966887417219	0.341933774834437	-3.4082119205298	0.891920529801325	-2.01748344370861				0.191788079470199	-0.366834437086093	-0.868238410596026	1.70039735099338	2.39761589403974	10.165298013245			
64	1460	-0.248158940397351	0.0827549668874172	-0.935523178807947	-1.36662251655629	0.135364238410596	-0.904900662251656				1.00895364238411	0.0477880794701987	0.157139072847682	-0.966092715231788	-1.09218543046358	0.25403973509934				-0.250172185430464	-0.0652715231788079	-0.88794701986755	-1.39258278145695	-0.693509933774834	-0.76026490066225				0.288529801324503	-0.0165298013245033	-0.933721854304636	-3.95708609271523	2.9835761589404	10.8643708609272				0.900026490066225	0.0514966887417219	0.341933774834437	-6.2082119205298	2.29192052980133	-3.41748344370861				0.207788079470199	-0.366834437086093	-0.836238410596026	-1.37960264900662	2.95761589403974	12.685298013245			
65	1480	-0.264158940397351	0.0827549668874172	-0.951523178807947	-0.806622516556291	0.415364238410596	-0.344900662251656				0.976953642384106	0.0637880794701987	0.173139072847682	-5.44609271523179	-1.37218543046358	-2.26596026490066				-0.250172185430464	-0.0652715231788079	-0.88794701986755	0.847417218543046	-0.413509933774833	-1.32026490066225				0.288529801324503	-0.0165298013245033	-0.933721854304636	-5.91708609271523	2.9835761589404	12.8243708609272				0.900026490066225	0.0514966887417219	0.357933774834437	-6.4882119205298	3.69192052980133	-3.69748344370861				0.191788079470199	-0.366834437086093	-0.852238410596026	-3.61960264900662	2.39761589403974	14.365298013245			
66	1500	-0.232158940397351	0.0667549668874172	-0.935523178807947	-1.36662251655629	0.695364238410596	-0.344900662251656				0.976953642384106	0.0957880794701987	0.189139072847682	-4.88609271523179	-1.65218543046358	-1.98596026490066				-0.250172185430464	-0.0652715231788079	-0.88794701986755	2.52741721854305	0.706490066225167	-1.32026490066225				0.288529801324503	-0.0165298013245033	-0.933721854304636	-6.19708609271523	3.5435761589404	15.9043708609272				0.932026490066225	0.0514966887417219	0.357933774834437	-5.6482119205298	4.25192052980133	-3.69748344370861				0.207788079470199	-0.366834437086093	-0.868238410596026	-4.73960264900662	4.63761589403974	15.205298013245			
67	1520	-0.248158940397351	0.0827549668874172	-0.935523178807947	-1.64662251655629	-0.144635761589404	-0.624900662251656				0.992953642384106	0.0477880794701987	0.157139072847682	-0.126092715231788	-1.09218543046358	0.81403973509934				-0.234172185430464	-0.0812715231788079	-0.88794701986755	0.287417218543046	0.986490066225167	-1.04026490066225				0.304529801324503	-0.0325298013245033	-0.933721854304636	-5.63708609271523	3.8235761589404	17.5843708609272				0.916026490066225	0.0514966887417219	0.357933774834437	-7.0482119205298	3.41192052980132	-3.97748344370861				0.207788079470199	-0.350834437086093	-0.868238410596026	-3.05960264900662	5.47761589403974	12.405298013245			
68	1540	-0.248158940397351	0.0667549668874172	-0.951523178807947	-3.04662251655629	-0.424635761589404	-0.0649006622516557				1.05695364238411	0.0637880794701987	0.109139072847682	0.153907284768212	-5.57218543046358	-1.42596026490066				-0.234172185430464	-0.0652715231788079	-0.88794701986755	0.567417218543046	1.26649006622517	-1.60026490066225				0.304529801324503	-0.0485298013245033	-0.933721854304636	-6.47708609271523	4.1035761589404	19.8243708609272				0.948026490066225	0.0354966887417219	0.357933774834437	-9.0082119205298	4.81192052980133	-5.37748344370861				0.223788079470199	-0.366834437086093	-0.900238410596026	-0.539602649006623	4.91761589403974	11.285298013245			
69	1560	-0.264158940397351	0.0827549668874172	-0.935523178807947	-3.88662251655629	0.695364238410596	0.495099337748344				1.05695364238411	0.0797880794701987	0.0771390728476822	-4.32609271523179	-18.7321854304636	-5.62596026490066				-0.250172185430464	-0.0492715231788079	-0.88794701986755	0.567417218543046	0.986490066225167	-1.32026490066225				0.272529801324503	-0.0485298013245033	-0.965721854304636	-5.07708609271523	4.3835761589404	24.5843708609272				0.964026490066225	0.0514966887417219	0.357933774834437	-11.2482119205298	5.09192052980133	-5.93748344370861				0.207788079470199	-0.398834437086093	-0.900238410596026	-3.05960264900662	2.39761589403974	12.685298013245			
70	1580	-0.264158940397351	0.0667549668874172	-0.919523178807947	-5.00662251655629	1.2553642384106	1.33509933774834				1.02495364238411	0.0477880794701987	0.0931390728476822	-15.2460927152318	-26.2921854304636	-5.34596026490066				-0.266172185430464	-0.0652715231788079	-0.87194701986755	3.36741721854305	-0.133509933774833	-0.48026490066225				0.272529801324503	-0.0485298013245033	-0.997721854304636	-5.07708609271523	4.3835761589404	30.1843708609272				0.964026490066225	0.0354966887417219	0.325933774834437	-13.2082119205298	4.25192052980133	-5.37748344370861				0.207788079470199	-0.398834437086093	-0.948238410596026	-8.37960264900662	1.27761589403974	15.765298013245			
71	1600	-0.264158940397351	0.0507549668874172	-0.935523178807947	-7.24662251655629	1.8153642384106	3.01509933774834				1.04095364238411	0.0317880794701987	0.0931390728476822	-21.1260927152318	-27.4121854304636	-4.78596026490066				-0.266172185430464	-0.0812715231788079	-0.88794701986755	4.48741721854305	1.26649006622517	-1.88026490066225				0.240529801324503	-0.128529801324503	-1.04572185430464	-9.83708609271523	2.9835761589404	35.5043708609272				0.964026490066225	0.0194966887417219	0.309933774834437	-14.8882119205298	4.53192052980133	-5.93748344370861				0.191788079470199	-0.366834437086093	-0.980238410596026	-9.49960264900662	-2.64238410596027	16.045298013245			
72	1620	-0.248158940397351	0.0347549668874172	-0.935523178807947	-10.3266225165563	1.2553642384106	3.01509933774834				1.12095364238411	0.0637880794701987	0.0131390728476822	-15.2460927152318	-26.5721854304636	-3.94596026490066				-0.250172185430464	-0.0812715231788079	-0.88794701986755	2.80741721854305	0.426490066225167	-2.72026490066225				0.240529801324503	-0.144529801324503	-1.06172185430464	-12.3570860927152	-6.2564238410596	43.0643708609272				0.980026490066225	0.00349668874172187	0.309933774834437	-15.4482119205298	6.49192052980132	-6.21748344370861				0.159788079470199	-0.350834437086093	-1.02823841059603	-6.41960264900662	-13.5623841059603	16.885298013245			
73	1640	-0.248158940397351	0.0347549668874172	-0.967523178807947	-15.9266225165563	0.975364238410596	5.25509933774834				1.18495364238411	0.223788079470199	-0.0348609271523178	2.11390728476821	-48.4121854304636	-6.46596026490066				-0.234172185430464	-0.129271523178808	-0.88794701986755	3.92741721854305	1.82649006622517	-1.88026490066225				0.240529801324503	-0.112529801324503	-1.10972185430464	-17.1170860927152	-17.4564238410596	50.0643708609272				1.01202649006623	0.0194966887417219	0.293933774834437	-19.9282119205298	8.17192052980133	-7.33748344370861				0.175788079470199	-0.398834437086093	-1.04423841059603	0.860397350993377	-27.2823841059603	18.845298013245			
74	1660	-0.248158940397351	0.0507549668874172	-0.983523178807947	-19.5666225165563	3.2153642384106	7.77509933774834				1.05695364238411	0.287788079470199	-0.162860927152318	17.2339072847682	-77.5321854304636	-5.06596026490066				-0.186172185430464	-0.225271523178808	-0.87194701986755	4.76741721854305	4.34649006622517	2.59973509933775				0.256529801324503	-0.112529801324503	-1.15772185430464	-18.7970860927152	-26.9764238410596	55.6643708609272				1.10802649006623	0.0514966887417219	0.309933774834437	-23.0082119205298	8.17192052980133	-7.61748344370861				0.127788079470199	-0.462834437086093	-1.06023841059603	-5.85960264900662	-37.3623841059603	23.605298013245			
75	1680	-0.264158940397351	0.0827549668874172	-1.01552317880795	-24.3266225165563	11.0553642384106	13.0950993377483				0.928953642384106	-0.0802119205298013	0.0291390728476822	-36.5260927152318	-26.2921854304636	9.21403973509934				-0.170172185430464	-0.273271523178808	-0.83994701986755	-2.23258278145695	4.90649006622517	9.59973509933775				0.256529801324503	-0.160529801324503	-1.22172185430464	-14.8770860927152	-33.9764238410596	65.7443708609272				1.18802649006623	0.0194966887417219	0.309933774834437	-27.7682119205298	2.01192052980133	-6.49748344370861				0.0317880794701987	-0.446834437086093	-1.09223841059603	-18.1796026490066	-39.6023841059603	28.365298013245			
76	1700	-0.280158940397351	0.162754966887417	-0.983523178807947	-24.6066225165563	12.1753642384106	22.8950993377483				1.12095364238411	-0.160211920529801	0.0131390728476822	-24.2060927152318	18.2278145695364	3.89403973509934				-0.202172185430464	-0.225271523178808	-0.79194701986755	-16.232582781457	4.06649006622517	17.7197350993378				0.176529801324503	-0.112529801324503	-1.26972185430464	-18.2370860927152	-37.6164238410596	69.6643708609272				1.14002649006623	-0.0925033112582781	0.357933774834437	-15.4482119205298	2.29192052980133	-2.85748344370861				-0.0322119205298013	-0.350834437086093	-1.15623841059603	-28.8196026490066	-32.0423841059603	26.965298013245			
77	1720	-0.264158940397351	0.114754966887417	-1.01552317880795	-24.3266225165563	14.6953642384106	27.0950993377483				1.23295364238411	0.111788079470199	-0.00286092715231785	32.3539072847682	11.7878145695364	-17.3859602649007				-0.266172185430464	-0.129271523178808	-0.88794701986755	-29.952582781457	4.34649006622517	20.2397350993378				0.0485298013245033	-0.000529801324503289	-1.12572185430464	-22.1570860927152	-30.8964238410596	56.2243708609272				1.14002649006623	-0.0285033112582781	0.245933774834437	-11.8082119205298	9.85192052980133	4.14251655629139				-0.176211920529801	-0.286834437086093	-1.17223841059603	-20.1396026490066	-29.2423841059603	18.845298013245			
78	1740	-0.328158940397351	0.0187549668874172	-0.983523178807947	-50.3666225165563	4.3353642384106	28.4950993377483				1.12095364238411	0.271788079470199	-0.178860927152318	31.5139072847682	3.94781456953642	-14.8659602649007				-0.362172185430464	-0.0172715231788079	-0.99994701986755	-26.312582781457	1.82649006622517	13.7997350993378				-0.0314701986754967	0.0794701986754967	-0.997721854304636	-10.9570860927152	-23.3364238410596	36.0643708609272				1.20402649006623	-0.0125033112582781	0.117933774834437	-2.8482119205298	6.49192052980132	8.62251655629139				-0.368211920529801	-0.318834437086093	-1.06023841059603	-17.6196026490066	-23.3623841059603	21.085298013245			
79	1760	-0.472158940397351	-0.0772450331125828	-1.12752317880795	-36.6466225165563	2.9353642384106	26.8150993377483				0.912953642384106	0.207788079470199	-0.210860927152318	10.7939072847682	4.22781456953642	2.49403973509934				-0.426172185430464	-0.0652715231788079	-1.15994701986755	-3.63258278145695	11.3464900662252	1.19973509933775				-0.0634701986754967	0.0954701986754967	-1.02972185430464	20.1229139072848	-5.9764238410596	19.5443708609272				1.25202649006623	0.0354966887417219	-0.0100662251655629	-16.5682119205298	-2.46807947019868	1.34251655629139				-0.400211920529801	-0.398834437086093	-0.916238410596027	-40.8596026490066	0.717615894039735	40.405298013245			
80	1780	-0.392158940397351	0.0667549668874172	-0.983523178807947	-39.1666225165563	14.9753642384106	24.0150993377483				0.656953642384106	0.0157880794701987	-0.306860927152318	-20.5660927152318	18.5078145695364	1.65403973509934				-0.474172185430464	-0.0332715231788079	-1.15994701986755	-13.712582781457	19.1864900662252	-1.04026490066225				0.0165298013245033	0.0794701986754967	-1.09372185430464	34.4029139072848	23.1435761589404	-8.73562913907285				1.22002649006623	0.00349668874172187	0.0539337748344371	-2.5682119205298	-3.58807947019868	-2.85748344370861				-0.288211920529801	-0.254834437086093	-1.09223841059603	-55.6996026490066	9.67761589403974	35.365298013245			
81	1800	-0.344158940397351	0.322754966887417	-0.855523178807947	-37.2066225165563	19.7353642384106	19.5350993377483				0.928953642384106	0.239788079470199	-0.258860927152318	0.153907284768212	95.2278145695364	-5.34596026490066				-0.378172185430464	0.158728476821192	-0.99994701986755	-9.51258278145695	21.9864900662252	-3.84026490066225				0.112529801324503	0.111470198675497	-1.06172185430464	28.2429139072848	29.8635761589404	-16.2956291390729				1.01202649006623	0.147496688741722	0.165933774834437	3.5917880794702	6.49192052980132	-3.69748344370861				-0.144211920529801	0.0811655629139073	-1.09223841059603	8.98039735099338	27.0376158940397	25.285298013245			
82	1820	-0.392158940397351	0.402754966887417	-0.983523178807947	-51.2066225165563	36.8153642384106	22.0550993377483				1.39295364238411	0.223788079470199	0.173139072847682	14.7139072847682	136.107814569536	7.25403973509934				-0.474172185430464	0.0947284768211921	-0.88794701986755	-26.032582781457	23.1064900662252	-7.48026490066225				0.208529801324503	0.0474701986754967	-0.965721854304636	34.1229139072848	29.0235761589404	-25.2556291390729				1.02802649006623	0.147496688741722	0.293933774834437	-1.7282119205298	16.0119205298013	-0.897483443708608				-0.336211920529801	-0.174834437086093	-0.884238410596026	23.2603973509934	18.0776158940397	21.925298013245			
83	1840	-0.408158940397351	0.402754966887417	-0.951523178807947	-28.5266225165563	44.6553642384106	27.6550993377483				1.31295364238411	0.127788079470199	0.269139072847682	-12.1660927152318	78.4278145695364	8.65403973509934				-0.570172185430464	0.110728476821192	-1.03194701986755	-18.752582781457	37.3864900662252	-12.8002649006623				0.384529801324503	-0.128529801324503	-1.06172185430464	59.3229139072848	40.5035761589404	-22.7356291390728				1.18802649006623	0.0834966887417219	0.245933774834437	21.5117880794702	10.9719205298013	-0.897483443708608				-0.224211920529801	-0.270834437086093	-0.852238410596026	14.0203973509934	16.3976158940397	30.885298013245			
84	1860	-0.424158940397351	0.338754966887417	-1.06352317880795	-22.3666225165563	55.8553642384106	26.8150993377483				1.04095364238411	0.191788079470199	0.0611390728476822	-45.4860927152318	64.9878145695364	4.45403973509934				-0.442172185430464	0.0627284768211921	-1.07994701986755	11.487417218543	46.0664900662252	-10.0002649006623				0.320529801324503	-0.272529801324503	-1.12572185430464	44.2029139072848	39.3835761589404	-18.2556291390728				1.04402649006623	0.0674966887417219	0.373933774834437	54.5517880794702	3.97192052980133	-0.337483443708608				0.127788079470199	-0.398834437086093	-0.868238410596026	-21.5396026490066	28.7176158940397	28.085298013245			
85	1880	-0.232158940397351	0.226754966887417	-1.14352317880795	-19.0066225165563	65.6553642384106	23.4550993377483				1.16895364238411	0.223788079470199	0.557139072847682	-28.6860927152318	121.827814569536	14.2540397350993				-0.314172185430464	-0.0492715231788079	-0.95194701986755	9.52741721854305	55.0264900662252	-5.80026490066225				0.320529801324503	-0.128529801324503	-1.10972185430464	19.8429139072848	44.4235761589404	-16.8556291390729				0.900026490066225	0.115496688741722	0.709933774834437	41.3917880794702	-2.74807947019868	-5.37748344370861				0.543788079470199	-0.366834437086093	-1.15623841059603	-40.2996026490066	42.1576158940397	17.165298013245			
86	1900	-0.248158940397351	0.354754966887417	-1.06352317880795	-3.60662251655629	68.4553642384106	24.5750993377483				1.50495364238411	0.191788079470199	0.669139072847682	9.67390728476821	96.3478145695364	12.8540397350993				-0.298172185430464	0.126728476821192	-1.06394701986755	11.767417218543	60.9064900662252	-2.72026490066225				0.368529801324503	0.0634701986754967	-1.12572185430464	21.8029139072848	55.6235761589404	-12.6556291390728				1.01202649006623	0.179496688741722	0.853933774834437	3.0317880794702	5.37192052980133	-8.45748344370861				0.559788079470199	-0.542834437086093	-1.02823841059603	-1.37960264900662	47.7576158940397	16.045298013245			
87	1920	-0.216158940397351	0.386754966887417	-1.03152317880795	14.8733774834437	71.2553642384106	27.9350993377483				1.20095364238411	0.0637880794701987	0.589139072847682	0.713907284768212	42.5878145695364	2.49403973509934				-0.362172185430464	0.206728476821192	-1.07994701986755	26.607417218543	69.0264900662252	-2.44026490066225				0.560529801324503	0.0474701986754967	-1.09372185430464	47.8429139072848	64.3035761589404	-0.0556291390728476				1.15602649006623	0.147496688741722	0.773933774834437	-0.0482119205298018	26.3719205298013	-9.85748344370861				0.463788079470199	-0.510834437086093	-1.06023841059603	-17.0596026490066	55.0376158940397	12.965298013245			
88	1940	0	0	0	0	0	0				0	0	0	0	0	0				0	0	0	0	0	0				0.768529801324503	-0.128529801324503	-1.06172185430464	51.7629139072848	65.7035761589404	7.22437086092715				1.07602649006623	0.0194966887417219	0.677933774834437	-1.1682119205298	10.9719205298013	-7.61748344370861				0.479788079470199	-0.382834437086093	-1.10823841059603	-28.5396026490066	53.9176158940397	12.405298013245			
89	2060	0	0	0	0	0	0				0	0	0	0	0	0				0	0	0	0	0	0				0.688529801324503	-0.256529801324503	-0.917721854304636	25.7229139072848	67.1035761589404	15.6243708609272				0.868026490066225	0.0994966887417219	0.565933774834437	-11.5282119205298	12.9319205298013	-1.17748344370861				0.447788079470199	-0.302834437086093	-0.932238410596026	-27.9796026490066	74.9176158940397	-16.154701986755			
90	2080	0.455841059602649	0.242754966887417	-0.871523178807947	19.9133774834437	117.735364238411	16.4550993377483				0.944953642384106	0.0797880794701987	0.461139072847682	8.27390728476821	36.4278145695364	4.17403973509934				0.293827814569536	-0.0332715231788079	-0.82394701986755	-3.63258278145695	116.066490066225	-16.7202649006623				0.704529801324503	-0.144529801324503	-0.853721854304636	8.08291390728477	56.7435761589404	15.9043708609272				0.772026490066225	0.0834966887417219	0.613933774834437	-5.9282119205298	19.9319205298013	-1.45748344370861				0.367788079470199	-0.334834437086093	-0.836238410596026	-13.1396026490066	74.3576158940397	-4.67470198675497			
91	2100	0.487841059602649	0.146754966887417	-0.855523178807947	17.9533774834437	119.975364238411	11.6950993377483				0.864953642384106	0.111788079470199	0.525139072847682	7.99390728476821	1.14781456953642	1.09403973509934				0.341827814569536	0.0787284768211921	-0.79194701986755	-1.39258278145695	116.626490066225	-22.8802649006623				0.736529801324503	-0.0165298013245033	-0.725721854304636	5.84291390728477	46.3835761589404	10.0243708609272				0.900026490066225	0.115496688741722	0.661933774834437	5.5517880794702	25.2519205298013	-1.73748344370861				0.463788079470199	-0.382834437086093	-0.884238410596026	-7.81960264900662	49.9976158940397	6.24529801324503			
92	2120	0.471841059602649	0.130754966887417	-0.775523178807947	6.19337748344371	121.935364238411	8.61509933774835				0.880953642384106	0.0957880794701987	0.397139072847682	3.51390728476821	-8.93218543046358	2.77403973509934				0.405827814569536	0.0947284768211921	-0.79194701986755	10.647417218543	119.146490066225	-29.0402649006623				0.656529801324503	-0.0485298013245033	-0.597721854304636	13.4029139072848	51.1435761589404	6.10437086092715				0.900026490066225	0.115496688741722	0.501933774834437	-14.8882119205298	15.7319205298013	0.502516556291392				0.559788079470199	-0.430834437086093	-0.804238410596027	-6.97960264900662	40.1976158940397	3.44529801324503			
93	2140	0.439841059602649	0.162754966887417	-0.743523178807947	-3.88662251655629	119.975364238411	6.37509933774834				0.928953642384106	0.0317880794701987	0.541139072847682	7.43390728476821	21.3078145695364	8.37403973509934				0.389827814569536	-0.00127152317880793	-0.74394701986755	16.5274172185431	119.706490066225	-27.9202649006623				0.480529801324503	-0.112529801324503	-0.597721854304636	12.2829139072848	51.4235761589404	4.42437086092715				0.740026490066225	0.0354966887417219	0.437933774834437	-7.6082119205298	7.61192052980133	3.58251655629139				0.495788079470199	-0.350834437086093	-0.708238410596026	-23.4996026490066	53.9176158940397	-4.67470198675497			
94	2160	0.407841059602649	0.178754966887417	-0.711523178807947	-8.92662251655629	117.175364238411	4.13509933774834				0.896953642384106	0.0957880794701987	0.413139072847682	42.9939072847682	-10.8921854304636	5.01403973509934				0.357827814569536	-0.0812715231788079	-0.69594701986755	16.807417218543	120.826490066225	-24.0002649006623				0.560529801324503	-0.192529801324503	-0.645721854304636	30.4829139072848	52.2635761589404	13.3843708609272				0.708026490066225	0.0514966887417219	0.565933774834437	1.6317880794702	12.9319205298013	3.58251655629139				0.399788079470199	-0.110834437086093	-0.836238410596026	-8.09960264900662	46.9176158940397	-5.23470198675497			
95	2180	0.375841059602649	0.242754966887417	-0.743523178807947	-2.48662251655629	114.375364238411	1.33509933774834				0.736953642384106	-0.0162119205298013	0.237139072847682	44.1139072847682	-55.4121854304636	5.01403973509934				0.325827814569536	-0.00127152317880793	-0.66394701986755	17.647417218543	122.226490066225	-25.1202649006623				0.704529801324503	-0.144529801324503	-0.597721854304636	52.0429139072848	60.3835761589404	17.0243708609272				0.804026490066225	0.195496688741722	0.565933774834437	-3.4082119205298	10.6919205298013	5.54251655629139				0.447788079470199	-0.206834437086093	-0.660238410596027	9.26039735099338	44.3976158940397	3.16529801324503			
96	2200	0.375841059602649	0.210754966887417	-0.679523178807947	8.99337748344371	116.055364238411	0.495099337748344				0.736953642384106	-0.0162119205298013	0.237139072847682	7.99390728476821	-49.8121854304636	1.93403973509934				0.357827814569536	-0.0172715231788079	-0.58394701986755	12.327417218543	121.106490066225	-26.8002649006623				0.656529801324503	-0.128529801324503	-0.469721854304636	44.4829139072848	55.3435761589404	12.8243708609272				0.756026490066225	0.0514966887417219	0.357933774834437	1.6317880794702	-2.46807947019868	13.9425165562914				0.415788079470199	-0.302834437086093	-0.404238410596026	-17.8996026490066	60.9176158940397	2.04529801324503			
97	2220	0.375841059602649	0.146754966887417	-0.743523178807947	9.83337748344371	118.015364238411	-1.18490066225166				0.864953642384106	0.159788079470199	0.461139072847682	27.8739072847682	-36.0921854304636	-2.82596026490066				0.357827814569536	-0.0172715231788079	-0.71194701986755	9.24741721854305	116.626490066225	-27.6402649006623				0.512529801324503	-0.160529801324503	-0.453721854304636	35.5229139072848	42.1835761589404	11.9843708609272				0.580026490066225	-0.0445033112582781	0.405933774834437	18.1517880794702	-20.1080794701987	14.2225165562914				0.303788079470199	-0.286834437086093	-0.516238410596026	-30.7796026490066	53.6376158940397	-10.274701986755			
98	2240	0.343841059602649	0.130754966887417	-0.711523178807947	-3.60662251655629	116.055364238411	-2.58490066225166				0.624953642384106	0.239788079470199	0.221139072847682	30.1139072847682	-70.2521854304636	-6.74596026490066				0.421827814569536	0.0147284768211921	-0.66394701986755	10.367417218543	114.946490066225	-20.9202649006623				0.496529801324503	-0.176529801324503	-0.533721854304636	38.0429139072848	31.2635761589404	13.9443708609272				0.548026490066225	0.00349668874172187	0.485933774834437	11.7117880794702	-20.3880794701987	3.30251655629139				0.367788079470199	-0.206834437086093	-0.708238410596026	-21.2596026490066	32.3576158940397	-22.314701986755			
99	2260	0.359841059602649	0.194754966887417	-0.647523178807947	2.55337748344371	112.135364238411	-3.42490066225166				0.592953642384106	0.0957880794701987	0.173139072847682	18.6339072847682	-72.2121854304636	-4.50596026490066				0.453827814569536	0.0307284768211921	-0.59994701986755	23.807417218543	114.386490066225	-18.9602649006623				0.560529801324503	-0.240529801324503	-0.581721854304636	45.0429139072848	29.5835761589404	15.3443708609272				0.692026490066225	0.195496688741722	0.421933774834437	-12.9282119205298	-15.0680794701987	0.502516556291392				0.511788079470199	-0.222834437086093	-0.612238410596026	-33.5796026490066	32.3576158940397	-18.394701986755			
100	2280	0.471841059602649	0.162754966887417	-0.663523178807947	14.5933774834437	106.815364238411	-2.86490066225166				0.768953642384106	-0.0322119205298013	0.205139072847682	18.6339072847682	-48.1321854304636	5.29403973509934				0.453827814569536	-0.0652715231788079	-0.72794701986755	29.9674172185431	100.106490066225	-20.0802649006623				0.592529801324503	-0.272529801324503	-0.469721854304636	35.8029139072848	25.6635761589404	12.5443708609272				0.676026490066225	0.0994966887417219	0.293933774834437	2.1917880794702	-28.2280794701987	8.34251655629139				0.399788079470199	-0.238834437086093	-0.468238410596026	-40.2996026490066	39.3576158940397	-1.87470198675497			
101	2300	0.535841059602649	0.0827549668874172	-0.663523178807947	14.8733774834437	102.055364238411	-1.46490066225166				0.688953642384106	0.159788079470199	0.269139072847682	39.0739072847682	-52.8921854304636	-3.10596026490066				0.421827814569536	-0.113271523178808	-0.61594701986755	21.0074172185431	94.5064900662252	-20.0802649006623				0.528529801324503	-0.160529801324503	-0.453721854304636	28.8029139072848	10.5435761589404	11.1443708609272				0.548026490066225	0.00349668874172187	0.373933774834437	18.7117880794702	-31.3080794701987	11.9825165562914				0.383788079470199	-0.126834437086093	-0.580238410596026	-49.2596026490066	29.5576158940397	-9.15470198675497			
102	2320	0.551841059602649	0.146754966887417	-0.679523178807947	3.67337748344371	96.7353642384106	-2.86490066225166				0.608953642384106	0.287788079470199	0.349139072847682	27.8739072847682	-66.8921854304636	-15.7059602649007				0.469827814569536	-0.0492715231788079	-0.53594701986755	7.56741721854305	97.5864900662252	-19.5202649006623				0.528529801324503	-0.160529801324503	-0.453721854304636	14.8029139072848	-1.7764238410596	12.8243708609272				0.532026490066225	0.0834966887417219	0.389933774834437	-5.3682119205298	-23.7480794701987	6.66251655629139				0.399788079470199	-0.0628344370860927	-0.644238410596026	-22.9396026490066	14.9976158940397	-16.154701986755			
103	2340	0.567841059602649	0.178754966887417	-0.599523178807947	3.39337748344371	92.2553642384106	-1.46490066225166				0.576953642384106	0.0157880794701987	0.221139072847682	30.6739072847682	-71.9321854304636	-8.70596026490066				0.597827814569536	-0.0492715231788079	-0.64794701986755	3.64741721854305	81.3464900662252	-14.4802649006623				0.592529801324503	-0.192529801324503	-0.485721854304636	6.12291390728477	-7.0964238410596	12.5443708609272				0.676026490066225	0.163496688741722	0.421933774834437	-10.1282119205298	-22.9080794701987	-0.617483443708608				0.367788079470199	-0.142834437086093	-0.516238410596026	-13.4196026490066	3.79761589403974	-10.554701986755			
104	2360	0.567841059602649	0.178754966887417	-0.599523178807947	22.1533774834437	81.0553642384106	-2.58490066225166				0.720953642384106	0.0317880794701987	0.141139072847682	27.3139072847682	-46.7321854304636	-4.50596026490066				0.677827814569536	-0.0972715231788079	-0.53594701986755	-6.71258278145695	77.7064900662252	-13.6402649006623				0.480529801324503	-0.176529801324503	-0.373721854304636	22.0829139072848	6.6235761589404	4.42437086092715				0.676026490066225	0.0674966887417219	0.341933774834437	13.6717880794702	-35.7880794701987	5.26251655629139				0.319788079470199	-0.190834437086093	-0.468238410596026	-29.6596026490066	11.0776158940397	-2.99470198675497			
105	2380	0.567841059602649	0.162754966887417	-0.599523178807947	24.3933774834437	67.6153642384106	-2.58490066225166				0.672953642384106	0.0957880794701987	0.189139072847682	27.0339072847682	-53.7321854304636	-0.0259602649006601				0.677827814569536	-0.0652715231788079	-0.61594701986755	-3.63258278145695	69.8664900662252	-15.6002649006622				0.432529801324503	-0.160529801324503	-0.453721854304636	35.2429139072848	5.2235761589404	0.784370860927152				0.548026490066225	-0.0125033112582781	0.293933774834437	7.5117880794702	-38.5880794701987	5.54251655629139				0.383788079470199	-0.0308344370860927	-0.628238410596026	-37.2196026490066	0.717615894039735	-16.154701986755			
106	2400	0.599841059602649	0.114754966887417	-0.567523178807947	22.9933774834437	60.0553642384106	-3.14490066225166				0.656953642384106	0.0797880794701987	0.317139072847682	27.0339072847682	-55.1321854304636	-0.0259602649006601				0.613827814569536	-0.0492715231788079	-0.50394701986755	6.16741721854305	55.3064900662252	-13.0802649006623				0.528529801324503	-0.240529801324503	-0.581721854304636	29.9229139072848	-2.8964238410596	3.02437086092715				0.596026490066225	0.163496688741722	0.325933774834437	-3.1282119205298	-36.0680794701987	-0.617483443708608				0.415788079470199	-0.0148344370860927	-0.692238410596026	-15.9396026490066	-1.80238410596026	-22.594701986755			
107	2420	0.695841059602649	0.0667549668874172	-0.647523178807947	11.7933774834437	50.2553642384106	-1.46490066225166				0.704953642384106	0.0957880794701987	0.269139072847682	20.5939072847682	-47.8521854304636	-0.585960264900661				0.645827814569536	-0.0332715231788079	-0.56794701986755	11.767417218543	48.5864900662252	-8.04026490066225				0.544529801324503	-0.384529801324503	-0.549721854304636	1.92291390728477	-8.4964238410596	-2.57562913907285				0.692026490066225	0.115496688741722	0.309933774834437	1.9117880794702	-22.0680794701987	2.74251655629139				0.367788079470199	-0.0788344370860927	-0.580238410596026	-7.53960264900662	2.11761589403974	-8.87470198675497			
108	2440	0.743841059602649	0.0987549668874172	-0.695523178807947	10.3933774834437	33.4553642384106	-3.14490066225166				0.816953642384106	0.0797880794701987	0.125139072847682	31.2339072847682	-31.3321854304636	-2.26596026490066				0.677827814569536	-0.129271523178808	-0.59994701986755	7.00741721854305	32.9064900662252	-7.20026490066225				0.400529801324503	-0.208529801324503	-0.421721854304636	-1.71708609271523	-11.8564238410596	-6.77562913907285				0.724026490066225	-0.0445033112582781	0.309933774834437	21.5117880794702	-25.9880794701987	2.46251655629139				0.271788079470199	-0.0948344370860927	-0.436238410596026	-5.29960264900662	4.35761589403974	-2.15470198675497			
109	2460	0.663841059602649	0.162754966887417	-0.647523178807947	12.3533774834437	24.4953642384106	-1.46490066225166				0.768953642384106	0.111788079470199	0.189139072847682	25.9139072847682	-43.0921854304636	1.37403973509934				0.709827814569536	-0.113271523178808	-0.61594701986755	10.367417218543	21.7064900662252	-6.64026490066225				0.320529801324503	-0.0645298013245033	-0.421721854304636	6.12291390728477	-4.0164238410596	-14.0556291390728				0.628026490066225	0.0194966887417219	0.309933774834437	-1.7282119205298	-33.5480794701987	-4.25748344370861				0.463788079470199	-0.0628344370860927	-0.628238410596026	-13.6996026490066	-17.4823841059603	-23.714701986755			
110	2480	0.583841059602649	0.114754966887417	-0.631523178807947	11.7933774834437	18.3353642384106	2.45509933774835				0.720953642384106	-0.0162119205298013	0.205139072847682	11.0739072847682	-47.2921854304636	3.05403973509934				0.709827814569536	-0.00127152317880793	-0.55194701986755	3.64741721854305	21.4264900662252	-4.40026490066225				0.448529801324503	-0.144529801324503	-0.549721854304636	28.8029139072848	12.5035761589404	-6.21562913907285				0.708026490066225	0.163496688741722	0.357933774834437	-10.4082119205298	-26.2680794701987	-1.45748344370861				0.479788079470199	-0.0468344370860927	-0.708238410596026	-14.8196026490066	4.35761589403974	-32.954701986755			
111	2500	0.663841059602649	0.0187549668874172	-0.647523178807947	14.3133774834437	14.4153642384106	0.775099337748344				0.832953642384106	-0.000211920529801304	0.157139072847682	7.99390728476821	-34.6921854304636	-2.54596026490066				0.741827814569536	-0.0492715231788079	-0.64794701986755	0.847417218543046	17.2264900662252	-5.52026490066225				0.640529801324503	-0.304529801324503	-0.613721854304636	45.3229139072848	16.4235761589404	-7.33562913907285				0.820026490066225	0.0354966887417219	0.309933774834437	15.0717880794702	-16.1880794701987	8.62251655629139				0.479788079470199	0.00116556291390731	-0.676238410596026	-12.5796026490066	31.7976158940397	-15.034701986755			
112	2520	0.775841059602649	0.0507549668874172	-0.695523178807947	4.79337748344371	7.6953642384106	-0.904900662251656				0.992953642384106	0.0957880794701987	0.157139072847682	3.23390728476821	-23.4921854304636	1.09403973509934				0.741827814569536	-0.0812715231788079	-0.53594701986755	1.40741721854305	5.74649006622517	-7.76026490066225				0.640529801324503	-0.256529801324503	-0.533721854304636	22.6429139072848	4.6635761589404	-19.3756291390728				0.836026490066225	0.0194966887417219	0.357933774834437	21.7917880794702	-23.7480794701987	3.86251655629139				0.415788079470199	-0.206834437086093	-0.596238410596026	6.18039735099338	6.31761589403974	-15.594701986755			
113	2540	0.711841059602649	0.114754966887417	-0.679523178807947	-11.1666225165563	-0.984635761589404	2.45509933774835				0.960953642384106	0.191788079470199	0.173139072847682	-9.08609271523179	-36.9321854304636	2.77403973509934				0.757827814569536	-0.00127152317880793	-0.48794701986755	-4.19258278145695	-1.25350993377483	-9.72026490066225				0.624529801324503	-0.304529801324503	-0.645721854304636	11.1629139072848	2.9835761589404	-18.2556291390728				0.820026490066225	0.115496688741722	0.341933774834437	-4.5282119205298	-30.1880794701987	-0.617483443708608				0.575788079470199	-0.174834437086093	-0.788238410596027	-18.7396026490066	0.717615894039735	-26.794701986755			
114	2560	0.695841059602649	0.0667549668874172	-0.583523178807947	4.23337748344371	2.3753642384106	2.73509933774834				0.912953642384106	0.0797880794701987	0.141139072847682	-5.72609271523179	-42.8121854304636	7.81403973509934				0.789827814569536	0.126728476821192	-0.55194701986755	-15.392582781457	15.2664900662252	-11.1202649006623				0.640529801324503	-0.416529801324503	-0.725721854304636	22.3629139072848	1.3035761589404	-19.3756291390728				0.836026490066225	0.115496688741722	0.309933774834437	-3.9682119205298	-19.5480794701987	1.06251655629139				0.639788079470199	-0.0308344370860927	-0.868238410596026	-9.49960264900662	32.6376158940397	-10.274701986755			
115	2580	0.727841059602649	0.0187549668874172	-0.647523178807947	10.6733774834437	-0.984635761589404	4.97509933774835				0.976953642384106	-0.000211920529801304	0.109139072847682	-4.88609271523179	-46.4521854304636	4.45403973509934				0.773827814569536	-0.0172715231788079	-0.61594701986755	2.24741721854305	25.9064900662252	-12.5202649006623				0.528529801324503	-0.416529801324503	-0.757721854304636	5.56291390728477	-5.4164238410596	-20.7756291390729				0.916026490066225	-0.0605033112582781	0.325933774834437	20.6717880794702	-10.3080794701987	2.74251655629139				0.447788079470199	-0.126834437086093	-0.772238410596026	-0.539602649006623	-2.36238410596027	5.12529801324503			
116	2600	0.807841059602649	0.0827549668874172	-0.647523178807947	-0.806622516556291	-0.984635761589404	7.21509933774835				0.928953642384106	0.207788079470199	0.0291390728476822	-11.3260927152318	-41.9721854304636	-6.18596026490066				0.773827814569536	-0.0652715231788079	-0.42394701986755	-0.272582781456954	4.90649006622517	-7.76026490066225				0.464529801324503	-0.272529801324503	-0.677721854304636	-0.877086092715232	-7.9364238410596	-14.6156291390728				1.01202649006623	-0.0285033112582781	0.325933774834437	7.5117880794702	-22.0680794701987	-2.01748344370861				0.543788079470199	-0.254834437086093	-0.660238410596027	0.580397350993377	-6.84238410596027	-3.55470198675497			
117	2620	0.743841059602649	0.178754966887417	-0.567523178807947	-24.8866225165563	-0.704635761589404	10.5750993377483				0.928953642384106	0.319788079470199	0.0611390728476822	-5.72609271523179	-31.0521854304636	-2.26596026490066				0.757827814569536	-0.0492715231788079	-0.50394701986755	-1.95258278145695	-4.33350993377483	-1.88026490066225				0.656529801324503	-0.384529801324503	-0.629721854304636	10.6029139072848	6.0635761589404	-11.2556291390728				0.900026490066225	0.179496688741722	0.197933774834437	-33.6482119205298	-31.3080794701987	-7.89748344370861				0.639788079470199	-0.110834437086093	-0.868238410596026	-28.2596026490066	5.47761589403974	-9.43470198675497			
118	2640	0.679841059602649	0.194754966887417	-0.519523178807947	-22.6466225165563	0.135364238410596	10.5750993377483				0.976953642384106	-0.000211920529801304	-0.00286092715231785	-2.92609271523179	-36.6521854304636	1.93403973509934				0.741827814569536	-0.0972715231788079	-0.58394701986755	-9.51258278145695	-6.01350993377483	3.15973509933775				0.496529801324503	-0.336529801324503	-0.725721854304636	3.04291390728477	-2.0564238410596	-2.29562913907285				0.868026490066225	0.0194966887417219	0.229933774834437	-2.5682119205298	-17.0280794701987	-3.69748344370861				0.447788079470199	0.0491655629139073	-0.836238410596026	-17.3396026490066	6.59761589403974	7.08529801324503			
119	2660	0.759841059602649	0.178754966887417	-0.599523178807947	-5.56662251655629	2.6553642384106	6.93509933774835				0.960953642384106	0.0157880794701987	-0.00286092715231785	-9.92609271523179	-33.0121854304636	-9.54596026490066				0.757827814569536	-0.0492715231788079	-0.58394701986755	-11.472582781457	-6.01350993377483	4.55973509933775				0.448529801324503	-0.240529801324503	-0.709721854304636	-1.99708609271523	-5.6964238410596	4.98437086092715				0.932026490066225	-0.0285033112582781	0.277933774834437	-7.6082119205298	-13.9480794701987	-2.01748344370861				0.415788079470199	-0.0468344370860927	-0.740238410596026	-9.77960264900662	5.19761589403974	7.36529801324503			
120	2680	0.839841059602649	0.130754966887417	-0.647523178807947	-1.64662251655629	-0.144635761589404	2.45509933774835				1.02495364238411	0.191788079470199	0.0131390728476822	-10.7660927152318	-24.3321854304636	-7.86596026490066				0.757827814569536	-0.00127152317880793	-0.53594701986755	-23.512582781457	-0.973509933774833	4.55973509933775				0.640529801324503	-0.320529801324503	-0.645721854304636	3.04291390728477	7.1835761589404	4.14437086092715				1.02802649006623	0.163496688741722	0.277933774834437	-17.1282119205298	-21.2280794701987	-4.81748344370861				0.591788079470199	-0.0948344370860927	-0.804238410596027	-12.8596026490066	8.27761589403974	-9.15470198675497			
121	2700	0.743841059602649	0.178754966887417	-0.519523178807947	1.99337748344371	-1.5446357615894	0.495099337748344				0.992953642384106	0.159788079470199	-0.0508609271523178	-8.80609271523179	-27.6921854304636	1.65403973509934				0.773827814569536	0.0307284768211921	-0.53594701986755	-27.432582781457	-1.25350993377483	2.59973509933775				0.704529801324503	-0.352529801324503	-0.613721854304636	13.6829139072848	14.7435761589404	4.70437086092715				0.980026490066225	0.0674966887417219	0.197933774834437	-18.5282119205298	-22.9080794701987	-2.85748344370861				0.575788079470199	0.0651655629139073	-0.964238410596026	-17.0596026490066	10.2376158940397	-9.43470198675497			
122	2720	0.663841059602649	0.130754966887417	-0.503523178807947	11.5133774834437	-1.5446357615894	2.45509933774835				0.960953642384106	0.0957880794701987	0.0131390728476822	-12.1660927152318	-26.2921854304636	0.25403973509934				0.789827814569536	0.0467284768211921	-0.55194701986755	-11.472582781457	-3.77350993377483	2.03973509933775				0.560529801324503	-0.272529801324503	-0.757721854304636	6.68291390728477	1.0235761589404	5.82437086092715				0.900026490066225	0.0354966887417219	0.197933774834437	-13.7682119205298	-15.6280794701987	-1.17748344370861				0.335788079470199	-0.110834437086093	-0.804238410596027	-4.17960264900662	4.91761589403974	7.36529801324503			
123	2740	0.759841059602649	0.0187549668874172	-0.583523178807947	10.9533774834437	-1.5446357615894	4.97509933774835				0.880953642384106	0.143788079470199	-0.0508609271523178	-10.4860927152318	-23.7721854304636	-2.82596026490066				0.757827814569536	0.0147284768211921	-0.55194701986755	-10.632582781457	-1.53350993377483	0.63973509933775				0.672529801324503	-0.400529801324503	-0.709721854304636	2.48291390728477	2.7035761589404	3.02437086092715				0.948026490066225	0.0994966887417219	0.261933774834437	-13.2082119205298	-19.5480794701987	-1.73748344370861				0.447788079470199	-0.0308344370860927	-0.884238410596026	-14.2596026490066	-5.72238410596027	12.405298013245			
124	2760	0.823841059602649	0.00275496688741723	-0.615523178807947	-5.00662251655629	-0.144635761589404	3.57509933774835				0.960953642384106	0.207788079470199	-0.0988609271523179	-6.84609271523179	-2.49218543046358	2.49403973509934				0.773827814569536	0.0467284768211921	-0.53594701986755	-4.19258278145695	4.90649006622517	1.75973509933775				0.672529801324503	-0.416529801324503	-0.677721854304636	1.92291390728477	-0.6564238410596	-0.335629139072848				0.980026490066225	0.115496688741722	0.149933774834437	-3.1282119205298	-26.5480794701987	2.46251655629139				0.575788079470199	0.145165562913907	-0.868238410596026	-18.1796026490066	5.47761589403974	2.88529801324503			
125	2780	0.791841059602649	0.0667549668874172	-0.551523178807947	-14.8066225165563	0.135364238410596	3.29509933774834				1.07295364238411	0.207788079470199	0.0451390728476822	-0.406092715231788	0.307814569536424	-1.42596026490066				0.773827814569536	0.0787284768211921	-0.56794701986755	-6.71258278145695	6.30649006622517	3.99973509933775				0	0	0	0	0	0				0.948026490066225	0.0834966887417219	0.133933774834437	3.0317880794702	-10.0280794701987	1.62251655629139				0.479788079470199	0.0491655629139073	-0.772238410596026	-5.85960264900662	10.7976158940397	-0.474701986754968			
126	2800	0.759841059602649	0.0987549668874172	-0.551523178807947	-9.20662251655629	1.2553642384106	6.65509933774834				0.880953642384106	0.175788079470199	-0.0508609271523178	10.2339072847682	-18.4521854304636	-3.38596026490066				0.741827814569536	0.0627284768211921	-0.53594701986755	0.567417218543046	9.38649006622517	1.19973509933775				0.624529801324503	-0.400529801324503	-0.741721854304636	-12.3570860927152	-4.2964238410596	0.224370860927152				0.868026490066225	0.115496688741722	0.197933774834437	-1.4482119205298	-6.38807947019868	-1.45748344370861				0.479788079470199	-0.0948344370860927	-0.804238410596027	-19.0196026490066	10.5176158940397	-2.71470198675497			
127	2820	0.775841059602649	0.0987549668874172	-0.551523178807947	-5.84662251655629	2.6553642384106	8.61509933774835				0.864953642384106	0.0797880794701987	-0.0508609271523178	0.153907284768212	-4.45218543046358	0.53403973509934				0.757827814569536	0.0147284768211921	-0.47194701986755	6.44741721854305	3.50649006622517	-0.48026490066225				0.592529801324503	-0.400529801324503	-0.725721854304636	-10.1170860927152	-7.3764238410596	-7.05562913907285				0.948026490066225	0.0354966887417219	0.229933774834437	6.3917880794702	-2.74807947019868	-0.897483443708608				0.511788079470199	-0.0628344370860927	-0.884238410596026	5.06039735099338	-0.402384105960265	2.04529801324503			
128	2840	0.791841059602649	0.114754966887417	-0.535523178807947	-12.0066225165563	1.5353642384106	8.05509933774835				1.00895364238411	0.0637880794701987	-0.0348609271523178	-4.32609271523179	5.34781456953642	1.93403973509934				0.773827814569536	-0.00127152317880793	-0.50394701986755	5.04741721854305	1.82649006622517	-1.88026490066225				0.400529801324503	-0.288529801324503	-0.645721854304636	-14.8770860927152	-5.6964238410596	2.46437086092715				0.980026490066225	-0.0125033112582781	0.197933774834437	12.5517880794702	-11.7080794701987	1.90251655629139				0.479788079470199	0.0171655629139073	-0.804238410596027	-9.49960264900662	4.91761589403974	9.04529801324503			
129	2860	0.759841059602649	0.178754966887417	-0.567523178807947	-15.0866225165563	-0.424635761589404	4.97509933774835				0.992953642384106	0.0957880794701987	-0.0508609271523178	-3.76609271523179	3.66781456953642	-1.42596026490066				0.789827814569536	0.0147284768211921	-0.50394701986755	2.52741721854305	0.706490066225167	-3.56026490066225				0.496529801324503	-0.320529801324503	-0.693721854304636	1.64291390728477	2.9835761589404	3.58437086092715				0.900026490066225	0.0194966887417219	0.117933774834437	-8.1682119205298	-2.74807947019868	-3.13748344370861				0.479788079470199	-0.0628344370860927	-0.788238410596027	-9.49960264900662	-0.122384105960265	6.80529801324503			
130	2880	0.711841059602649	0.194754966887417	-0.567523178807947	-13.1266225165563	-0.144635761589404	3.57509933774835				0.912953642384106	0.111788079470199	0.0771390728476822	-6.84609271523179	4.22781456953642	-0.0259602649006601				0.805827814569536	-0.0172715231788079	-0.53594701986755	-0.272582781456954	-2.37350993377483	-3.28026490066225				0.672529801324503	-0.368529801324503	-0.645721854304636	-0.877086092715232	4.1035761589404	-0.895629139072848				0.932026490066225	0.0514966887417219	0.293933774834437	-4.2482119205298	3.41192052980132	-2.85748344370861				0.559788079470199	-0.0788344370860927	-0.884238410596026	-16.7796026490066	6.87761589403974	7.08529801324503			
131	2900	0.759841059602649	0.146754966887417	-0.583523178807947	-5.28662251655629	0.135364238410596	0.215099337748344				0.928953642384106	0.0797880794701987	-0.0508609271523178	-11.3260927152318	1.14781456953642	-0.30596026490066				0.757827814569536	-0.0492715231788079	-0.53594701986755	2.24741721854305	-1.25350993377483	-1.04026490066225				0.592529801324503	-0.320529801324503	-0.565721854304636	-4.51708609271523	10.8235761589404	3.58437086092715				1.01202649006623	0.0674966887417219	0.293933774834437	-0.608211920529802	-7.22807947019868	2.18251655629139				0.559788079470199	0.0171655629139073	-0.836238410596026	3.66039735099338	-2.36238410596027	9.32529801324503			
132	2920	0.807841059602649	0.114754966887417	-0.583523178807947	-3.60662251655629	-0.144635761589404	-1.74490066225166				0.992953642384106	0.0797880794701987	-0.130860927152318	-10.7660927152318	20.1878145695364	-2.54596026490066				0.725827814569536	-0.0812715231788079	-0.53594701986755	-7.27258278145696	-2.37350993377483	0.0797350993377501				0.480529801324503	-0.208529801324503	-0.629721854304636	4.72291390728477	14.7435761589404	6.38437086092715				0.852026490066225	0.0354966887417219	0.101933774834437	-7.0482119205298	-6.94807947019868	4.70251655629139				0.463788079470199	0.0171655629139073	-0.708238410596026	-6.41960264900662	8.83761589403974	14.085298013245			
133	2940	0.807841059602649	0.130754966887417	-0.535523178807947	-0.246622516556291	-1.5446357615894	-2.02490066225166				0.976953642384106	0.159788079470199	0.0771390728476822	-4.04609271523179	14.0278145695364	-3.38596026490066				0.741827814569536	-0.0492715231788079	-0.55194701986755	-13.152582781457	-2.37350993377483	2.31973509933775				0.656529801324503	-0.336529801324503	-0.757721854304636	5.56291390728477	10.2635761589404	6.38437086092715				0	0	0	0	0	0				0.447788079470199	-0.110834437086093	-0.740238410596026	-2.21960264900662	5.19761589403974	18.285298013245			
134	2960	0.759841059602649	0.114754966887417	-0.519523178807947	5.63337748344371	-2.1046357615894	-1.74490066225166				0.944953642384106	0.159788079470199	0.0931390728476822	-2.08609271523179	-0.812185430463576	-0.0259602649006601				0	0	0	0	0	0				0	0	0	0	0	0				0	0	0	0	0	0				0	0	0	0	0	0			
135	3060	0	0	0	0	0	0				0	0	0	0	0	0				0	0	0	0	0	0				0	0	0	0	0	0				1.02802649006623	0.0514966887417219	0.181933774834437	-4.2482119205298	3.97192052980133	0.782516556291392				0	0	0	0	0	0			
136	3080	0	0	0	0	0	0				0	0	0	0	0	0				0	0	0	0	0	0				0.640529801324503	-0.224529801324503	-0.613721854304636	-2.83708609271523	5.5035761589404	7.50437086092715				0.932026490066225	0.131496688741722	0.245933774834437	-6.4882119205298	-2.46807947019868	4.14251655629139				0.559788079470199	-0.0468344370860927	-0.788238410596027	-14.2596026490066	21.9976158940397	0.645298013245032			
137	3100	0.727841059602649	0.0987549668874172	-0.567523178807947	-0.246622516556291	-4.6246357615894	-1.74490066225166				1.00895364238411	0.111788079470199	0.109139072847682	9.39390728476821	7.30781456953642	7.25403973509934				0.709827814569536	-0.0172715231788079	-0.63194701986755	10.647417218543	2.66649006622517	-6.08026490066225				0.576529801324503	-0.480529801324503	-0.613721854304636	10.3229139072848	23.9835761589404	-2.29562913907285				0.868026490066225	-0.0445033112582781	0.261933774834437	7.2317880794702	7.61192052980133	4.14251655629139				0.575788079470199	-0.0468344370860927	-0.916238410596027	1.98039735099338	14.1576158940397	3.72529801324503			
138	3120	0.711841059602649	0.0827549668874172	-0.647523178807947	0.0333774834437086	-0.704635761589404	-2.86490066225166				0.992953642384106	-0.0162119205298013	0.0291390728476822	12.7539072847682	-4.45218543046358	5.85403973509934				0.773827814569536	0.0147284768211921	-0.63194701986755	14.007417218543	3.78649006622517	-6.92026490066225				0.672529801324503	-0.320529801324503	-0.581721854304636	18.1629139072848	19.2235761589404	-8.73562913907285				0.932026490066225	0.00349668874172187	0.293933774834437	0.231788079470198	16.0119205298013	1.06251655629139				0.575788079470199	-0.110834437086093	-0.900238410596026	24.3803973509934	-13.0023841059603	10.165298013245			
