No	Time	12-AccX	12-AccY	12-AccZ	12-GyroX	12-GyroY	12-GyroZ	13-AccX	13-AccY	13-AccZ	13-GyroX	13-GyroY	13-GyroZ	14-AccX	14-AccY	14-AccZ	14-GyroX	14-GyroY	14-GyroZ	15-AccX	15-AccY	15-AccZ	15-GyroX	15-GyroY	15-GyroZ	16-AccX	16-AccY	16-AccZ	16-GyroX	16-GyroY	16-GyroZ	17-AccX	17-AccY	17-AccZ	17-GyroX	17-GyroY	17-GyroZ
0	120	0	0	0	0	0	0				0	0	0	0	0	0				0	0	0	0	0	0				0	0	0	0	0	0				0.980026490066225	0.0354966887417219	0.117933774834437	-1.4482119205298	-2.46807947019868	-0.617483443708608				0.527788079470199	-0.0948344370860927	-0.788238410596027	-1.09960264900662	-2.36238410596027	0.925298013245032			
1	140	0	0	0	0	0	0				0.960953642384106	0.143788079470199	0.253139072847682	-0.966092715231788	-1.93218543046358	-2.82596026490066				-0.186172185430464	-0.113271523178808	-0.90394701986755	-5.03258278145695	1.54649006622517	2.03973509933775				0.592529801324503	-0.400529801324503	-0.677721854304636	1.08291390728477	2.1435761589404	2.18437086092715				0.980026490066225	0.0194966887417219	0.101933774834437	-2.8482119205298	-2.74807947019868	-0.337483443708608				0.543788079470199	-0.0788344370860927	-0.788238410596027	-4.17960264900662	-2.36238410596027	0.645298013245032			
2	160	-0.184158940397351	0.146754966887417	-0.951523178807947	0.593377483443709	0.415364238410596	0.215099337748344				0.960953642384106	0.143788079470199	0.205139072847682	0.993907284768212	-1.37218543046358	-2.26596026490066				-0.202172185430464	-0.129271523178808	-0.90394701986755	-3.63258278145695	0.706490066225167	1.75973509933775				0.592529801324503	-0.384529801324503	-0.677721854304636	0.242913907284768	1.5835761589404	1.62437086092715				0.964026490066225	0.0354966887417219	0.0859337748344371	-3.1282119205298	-3.58807947019868	-1.17748344370861				0.527788079470199	-0.0628344370860927	-0.788238410596027	-4.17960264900662	-2.36238410596027	0.365298013245032			
3	180	-0.184158940397351	0.146754966887417	-0.951523178807947	-0.246622516556291	1.2553642384106	-0.344900662251656				0.976953642384106	0.143788079470199	0.205139072847682	-0.406092715231788	0.307814569536424	-1.70596026490066				-0.186172185430464	-0.113271523178808	-0.88794701986755	-2.51258278145695	0.986490066225167	1.75973509933775				0.576529801324503	-0.368529801324503	-0.661721854304636	1.08291390728477	0.1835761589404	2.18437086092715				0.964026490066225	0.0354966887417219	0.101933774834437	-2.2882119205298	-3.86807947019868	-1.45748344370861				0.511788079470199	-0.0628344370860927	-0.772238410596026	-2.49960264900662	-2.08238410596027	0.0852980132450323			
4	200	-0.168158940397351	0.146754966887417	-0.935523178807947	-2.48662251655629	1.2553642384106	-0.344900662251656				0.960953642384106	0.127788079470199	0.221139072847682	-1.52609271523179	0.307814569536424	-1.98596026490066				-0.186172185430464	-0.113271523178808	-0.88794701986755	2.52741721854305	0.986490066225167	0.35973509933775				0.592529801324503	-0.384529801324503	-0.661721854304636	1.08291390728477	-1.7764238410596	1.06437086092715				0.948026490066225	0.0194966887417219	0.117933774834437	-1.4482119205298	-3.86807947019868	-1.17748344370861				0.511788079470199	-0.0628344370860927	-0.756238410596026	-2.49960264900662	-2.64238410596027	-0.194701986754968			
5	220	-0.168158940397351	0.162754966887417	-0.919523178807947	0.0333774834437086	-0.424635761589404	-0.904900662251656				0.944953642384106	0.127788079470199	0.253139072847682	-2.36609271523179	0.307814569536424	-1.70596026490066				-0.186172185430464	-0.129271523178808	-0.88794701986755	0.287417218543046	0.706490066225167	0.35973509933775				0.576529801324503	-0.384529801324503	-0.661721854304636	-0.317086092715232	-1.2164238410596	-0.0556291390728476				0.964026490066225	0.0354966887417219	0.0859337748344371	-0.608211920529802	-5.26807947019868	-0.897483443708608				0.527788079470199	-0.0788344370860927	-0.788238410596027	-3.89960264900662	-1.24238410596026	-0.474701986754968			
6	240	-0.184158940397351	0.146754966887417	-0.935523178807947	-1.08662251655629	-0.424635761589404	-1.74490066225166				0.944953642384106	0.143788079470199	0.253139072847682	-2.08609271523179	2.82781456953642	-1.14596026490066				-0.186172185430464	-0.129271523178808	-0.90394701986755	-1.67258278145695	0.146490066225167	-1.04026490066225				0.576529801324503	-0.368529801324503	-0.661721854304636	-0.317086092715232	-0.9364238410596	-0.895629139072848				0.948026490066225	0.0354966887417219	0.0859337748344371	-0.888211920529802	-3.02807947019868	-1.73748344370861				0.511788079470199	-0.0468344370860927	-0.788238410596027	-3.61960264900662	-1.52238410596026	-0.474701986754968			
7	260	-0.200158940397351	0.146754966887417	-0.951523178807947	0.0333774834437086	0.415364238410596	-1.18490066225166				0.976953642384106	0.143788079470199	0.237139072847682	-0.686092715231788	2.54781456953642	-0.0259602649006601				-0.202172185430464	-0.129271523178808	-0.88794701986755	-5.03258278145695	-0.413509933774833	0.35973509933775				0.560529801324503	-0.384529801324503	-0.677721854304636	-0.597086092715232	-1.2164238410596	-0.335629139072848				0.948026490066225	0.0354966887417219	0.0859337748344371	-0.888211920529802	-3.02807947019868	-2.29748344370861				0.511788079470199	-0.0468344370860927	-0.772238410596026	-3.05960264900662	-0.402384105960265	-2.15470198675497			
8	280	-0.184158940397351	0.162754966887417	-0.935523178807947	-1.08662251655629	-0.144635761589404	-0.904900662251656				0.992953642384106	0.127788079470199	0.205139072847682	0.993907284768212	-0.812185430463576	-0.585960264900661				-0.218172185430464	-0.0972715231788079	-0.88794701986755	-3.07258278145695	-0.133509933774833	0.35973509933775				0.576529801324503	-0.384529801324503	-0.661721854304636	-0.317086092715232	-1.2164238410596	0.784370860927152				0.948026490066225	0.0354966887417219	0.101933774834437	1.9117880794702	-1.90807947019868	-0.897483443708608				0.527788079470199	-0.0628344370860927	-0.788238410596027	0.300397350993377	0.437615894039735	-1.31470198675497			
9	300	-0.184158940397351	0.162754966887417	-0.935523178807947	-0.246622516556291	0.415364238410596	-1.18490066225166				0.976953642384106	0.143788079470199	0.237139072847682	0.713907284768212	-1.93218543046358	-0.585960264900661				-0.202172185430464	-0.113271523178808	-0.88794701986755	1.68741721854305	0.146490066225167	0.35973509933775				0.576529801324503	-0.368529801324503	-0.661721854304636	0.522913907284768	-0.3764238410596	0.224370860927152				0.980026490066225	0.0354966887417219	0.101933774834437	0.791788079470198	-1.90807947019868	-1.73748344370861				0.543788079470199	-0.0788344370860927	-0.804238410596027	-1.93960264900662	0.437615894039735	-1.87470198675497			
10	320	-0.184158940397351	0.146754966887417	-0.935523178807947	-0.806622516556291	0.415364238410596	-0.624900662251656				0.960953642384106	0.143788079470199	0.237139072847682	0.153907284768212	-1.65218543046358	-1.70596026490066				-0.186172185430464	-0.129271523178808	-0.90394701986755	3.08741721854305	0.706490066225167	0.35973509933775				0.576529801324503	-0.368529801324503	-0.677721854304636	2.20291390728477	0.4635761589404	-0.895629139072848				0.980026490066225	0.0354966887417219	0.101933774834437	-0.328211920529802	-2.74807947019868	-0.617483443708608				0.527788079470199	-0.0788344370860927	-0.788238410596027	-4.17960264900662	0.157615894039735	-2.43470198675497			
11	340	-0.184158940397351	0.130754966887417	-0.935523178807947	1.15337748344371	0.695364238410596	-0.344900662251656				0.944953642384106	0.143788079470199	0.253139072847682	-0.686092715231788	1.42781456953642	-1.98596026490066				-0.202172185430464	-0.145271523178808	-0.88794701986755	0.847417218543046	1.82649006622517	-0.48026490066225				0.560529801324503	-0.384529801324503	-0.661721854304636	1.92291390728477	0.7435761589404	-3.41562913907285				0.980026490066225	0.0354966887417219	0.0859337748344371	-0.0482119205298018	-3.86807947019868	-1.45748344370861				0.543788079470199	-0.0628344370860927	-0.788238410596027	-3.33960264900662	1.27761589403974	-2.43470198675497			
12	360	-0.168158940397351	0.146754966887417	-0.935523178807947	0.313377483443709	0.135364238410596	-1.18490066225166				0.944953642384106	0.127788079470199	0.237139072847682	-1.52609271523179	4.22781456953642	-0.585960264900661				-0.186172185430464	-0.129271523178808	-0.88794701986755	1.12741721854305	2.38649006622517	0.63973509933775				0.560529801324503	-0.384529801324503	-0.677721854304636	2.20291390728477	1.0235761589404	-3.13562913907285				0.964026490066225	0.0354966887417219	0.0859337748344371	0.791788079470198	-3.86807947019868	-1.45748344370861				0.527788079470199	-0.0468344370860927	-0.804238410596027	-1.09960264900662	1.55761589403974	-2.99470198675497			
13	380	-0.168158940397351	0.146754966887417	-0.935523178807947	-0.806622516556291	-0.144635761589404	-1.18490066225166				0.960953642384106	0.127788079470199	0.221139072847682	-2.92609271523179	1.14781456953642	-1.14596026490066				-0.202172185430464	-0.145271523178808	-0.88794701986755	3.92741721854305	1.26649006622517	1.47973509933775				0.560529801324503	-0.384529801324503	-0.677721854304636	1.92291390728477	2.1435761589404	-2.85562913907285				0.964026490066225	0.0354966887417219	0.0699337748344371	-0.328211920529802	-3.58807947019868	-0.617483443708608				0.527788079470199	-0.0468344370860927	-0.788238410596027	-3.05960264900662	-0.122384105960265	-3.55470198675497			
14	400	-0.184158940397351	0.146754966887417	-0.935523178807947	-1.08662251655629	0.135364238410596	-1.18490066225166				0.960953642384106	0.143788079470199	0.221139072847682	-1.52609271523179	1.14781456953642	-0.0259602649006601				-0.202172185430464	-0.113271523178808	-0.87194701986755	8.68741721854305	0.986490066225167	0.35973509933775				0.560529801324503	-0.368529801324503	-0.693721854304636	3.04291390728477	1.5835761589404	-3.97562913907285				0.948026490066225	0.0354966887417219	0.0859337748344371	0.511788079470198	-1.62807947019868	-1.45748344370861				0.527788079470199	-0.0468344370860927	-0.804238410596027	-5.01960264900662	-1.24238410596026	-4.67470198675497			
15	420	-0.184158940397351	0.146754966887417	-0.951523178807947	-0.526622516556291	0.695364238410596	-1.74490066225166				0.960953642384106	0.143788079470199	0.221139072847682	0.153907284768212	-0.812185430463576	1.09403973509934				-0.202172185430464	-0.113271523178808	-0.88794701986755	9.80741721854305	0.426490066225167	0.63973509933775				0.560529801324503	-0.368529801324503	-0.677721854304636	4.16291390728477	-0.0964238410596001	-4.25562913907285				0.964026490066225	0.0354966887417219	0.0859337748344371	-0.328211920529802	-1.06807947019868	-1.73748344370861				0.527788079470199	-0.0308344370860927	-0.804238410596027	-4.17960264900662	-3.48238410596027	-4.95470198675497			
16	440	-0.168158940397351	0.146754966887417	-0.935523178807947	-1.08662251655629	-0.704635761589404	-1.46490066225166				0.960953642384106	0.143788079470199	0.221139072847682	-0.126092715231788	0.587814569536424	0.53403973509934				-0.202172185430464	-0.129271523178808	-0.90394701986755	4.20741721854305	-0.693509933774834	1.47973509933775				0.560529801324503	-0.400529801324503	-0.693721854304636	2.20291390728477	-0.9364238410596	-4.81562913907285				0.964026490066225	0.0354966887417219	0.0699337748344371	1.0717880794702	0.0519205298013249	-0.337483443708608				0.511788079470199	-0.0148344370860927	-0.804238410596027	1.42039735099338	-3.76238410596027	-6.91470198675497			
17	460	-0.184158940397351	0.146754966887417	-0.951523178807947	0.313377483443709	-1.5446357615894	-0.344900662251656				0.960953642384106	0.127788079470199	0.205139072847682	-3.20609271523179	4.78781456953642	0.25403973509934				-0.202172185430464	-0.145271523178808	-0.90394701986755	4.48741721854305	-0.693509933774834	0.63973509933775				0.560529801324503	-0.384529801324503	-0.677721854304636	-0.0370860927152318	-2.0564238410596	-4.53562913907285				0.964026490066225	0.0514966887417219	0.0699337748344371	3.0317880794702	2.29192052980133	-0.337483443708608				0.511788079470199	-0.0468344370860927	-0.804238410596027	4.22039735099338	-2.08238410596027	-7.47470198675497			
18	480	-0.184158940397351	0.146754966887417	-0.935523178807947	0.313377483443709	-0.424635761589404	0.215099337748344				0.976953642384106	0.127788079470199	0.221139072847682	-2.36609271523179	4.22781456953642	1.65403973509934				-0.186172185430464	-0.145271523178808	-0.90394701986755	7.56741721854305	-0.413509933774833	-0.48026490066225				0.544529801324503	-0.384529801324503	-0.693721854304636	1.36291390728477	-1.4964238410596	-4.81562913907285				0.964026490066225	0.0514966887417219	0.0539337748344371	3.0317880794702	1.45192052980132	-0.617483443708608				0.511788079470199	-0.0628344370860927	-0.804238410596027	2.54039735099338	-2.64238410596027	-4.95470198675497			
19	500	-0.184158940397351	0.146754966887417	-0.935523178807947	-0.526622516556291	0.695364238410596	-0.0649006622516557				0.976953642384106	0.159788079470199	0.221139072847682	-3.48609271523179	1.98781456953642	2.49403973509934				-0.218172185430464	-0.129271523178808	-0.90394701986755	8.12741721854305	-0.413509933774833	-0.76026490066225				0.544529801324503	-0.384529801324503	-0.677721854304636	2.48291390728477	-1.4964238410596	-4.53562913907285				0.980026490066225	0.0514966887417219	0.0699337748344371	3.0317880794702	0.331920529801325	-0.0574834437086077				0.495788079470199	-0.0468344370860927	-0.804238410596027	-4.17960264900662	-1.52238410596026	-2.15470198675497			
20	520	-0.168158940397351	0.146754966887417	-0.951523178807947	-2.48662251655629	0.695364238410596	0.215099337748344				0.976953642384106	0.143788079470199	0.221139072847682	-4.88609271523179	3.10781456953642	3.61403973509934				-0.202172185430464	-0.113271523178808	-0.90394701986755	7.00741721854305	-0.413509933774833	-0.76026490066225				0.544529801324503	-0.400529801324503	-0.693721854304636	2.76291390728477	-1.7764238410596	-4.81562913907285				0.948026490066225	0.0514966887417219	0.101933774834437	4.1517880794702	5.09192052980133	-0.337483443708608				0.495788079470199	-0.0628344370860927	-0.820238410596026	-4.73960264900662	-2.64238410596027	0.645298013245032			
21	540	-0.168158940397351	0.162754966887417	-0.935523178807947	-1.08662251655629	-0.144635761589404	0.495099337748344				0.960953642384106	0.143788079470199	0.269139072847682	-1.24609271523179	5.06781456953642	5.01403973509934				-0.202172185430464	-0.129271523178808	-0.88794701986755	6.44741721854305	-0.973509933774833	-1.04026490066225				0.560529801324503	-0.400529801324503	-0.693721854304636	0.242913907284768	-0.0964238410596001	-4.81562913907285				0.980026490066225	0.0194966887417219	0.0379337748344371	4.1517880794702	0.891920529801325	-0.0574834437086077				0.511788079470199	-0.0468344370860927	-0.820238410596026	-2.49960264900662	-2.08238410596027	3.72529801324503			
22	560	-0.168158940397351	0.162754966887417	-0.919523178807947	-0.526622516556291	0.135364238410596	0.775099337748344				0.960953642384106	0.143788079470199	0.237139072847682	1.83390728476821	3.38781456953642	5.57403973509934				-0.186172185430464	-0.177271523178808	-0.91994701986755	10.367417218543	0.706490066225167	0.35973509933775				0.544529801324503	-0.400529801324503	-0.693721854304636	-2.27708609271523	-1.7764238410596	-3.41562913907285				0.964026490066225	0.0514966887417219	0.0859337748344371	-1.4482119205298	7.33192052980133	0.222516556291392				0.511788079470199	-0.0468344370860927	-0.820238410596026	1.14039735099338	-2.36238410596027	5.96529801324503			
23	580	-0.184158940397351	0.146754966887417	-0.919523178807947	-1.36662251655629	-0.424635761589404	-4.54490066225166				0.960953642384106	0.159788079470199	0.205139072847682	-0.406092715231788	1.98781456953642	2.77403973509934				-0.186172185430464	-0.145271523178808	-0.91994701986755	-2.23258278145695	4.62649006622517	-1.04026490066225				0.528529801324503	-0.384529801324503	-0.693721854304636	-1.43708609271523	-0.9364238410596	-1.45562913907285				0.948026490066225	0.0194966887417219	0.0699337748344371	-0.0482119205298018	7.05192052980133	0.222516556291392				0.527788079470199	-0.0308344370860927	-0.804238410596027	0.860397350993377	-4.04238410596027	6.52529801324503			
24	600	-0.200158940397351	0.162754966887417	-0.935523178807947	-3.60662251655629	-0.704635761589404	-0.624900662251656				0.976953642384106	0.127788079470199	0.221139072847682	-2.08609271523179	2.82781456953642	3.05403973509934				-0.186172185430464	-0.0812715231788079	-0.90394701986755	-21.832582781457	5.18649006622517	-1.88026490066225				0.544529801324503	-0.400529801324503	-0.693721854304636	-3.39708609271523	-1.2164238410596	1.06437086092715				0.948026490066225	0.0194966887417219	0.0859337748344371	1.9117880794702	6.49192052980132	1.06251655629139				0.511788079470199	-0.0468344370860927	-0.804238410596027	3.94039735099338	-2.64238410596027	5.68529801324503			
25	620	-0.184158940397351	0.178754966887417	-0.935523178807947	-2.76662251655629	0.415364238410596	-0.344900662251656				0.944953642384106	0.127788079470199	0.253139072847682	-4.88609271523179	7.02781456953642	3.05403973509934				-0.186172185430464	-0.0652715231788079	-0.87194701986755	-22.952582781457	4.34649006622517	-0.76026490066225				0.560529801324503	-0.384529801324503	-0.693721854304636	-5.07708609271523	-1.7764238410596	2.18437086092715				0.964026490066225	0.0354966887417219	0.101933774834437	0.791788079470198	7.33192052980133	1.62251655629139				0.527788079470199	-0.0468344370860927	-0.804238410596027	3.66039735099338	-3.76238410596027	5.12529801324503			
26	640	-0.168158940397351	0.178754966887417	-0.935523178807947	-1.36662251655629	0.695364238410596	-0.624900662251656				0.944953642384106	0.143788079470199	0.285139072847682	-5.72609271523179	10.6678145695364	2.21403973509934				-0.186172185430464	-0.0972715231788079	-0.91994701986755	-15.392582781457	3.22649006622517	-1.88026490066225				0.544529801324503	-0.400529801324503	-0.693721854304636	-6.19708609271523	-0.9364238410596	4.14437086092715				0.964026490066225	0.0194966887417219	0.101933774834437	-1.1682119205298	8.17192052980133	0.782516556291392				0.527788079470199	-0.0468344370860927	-0.804238410596027	1.14039735099338	-4.04238410596027	4.84529801324503			
27	660	-0.184158940397351	0.178754966887417	-0.935523178807947	-2.20662251655629	0.135364238410596	0.775099337748344				0.976953642384106	0.143788079470199	0.253139072847682	-5.44609271523179	5.34781456953642	1.93403973509934				-0.218172185430464	-0.0492715231788079	-0.98394701986755	-22.952582781457	4.90649006622517	-3.56026490066225				0.544529801324503	-0.432529801324503	-0.709721854304636	-5.63708609271523	1.5835761589404	8.34437086092715				0.964026490066225	0.0354966887417219	0.101933774834437	-2.8482119205298	8.45192052980133	-0.0574834437086077				0.527788079470199	-0.0308344370860927	-0.804238410596027	0.860397350993377	-3.20238410596026	1.20529801324503			
28	680	-0.168158940397351	0.146754966887417	-0.935523178807947	-3.04662251655629	-1.8246357615894	1.05509933774834				1.02495364238411	0.143788079470199	0.237139072847682	-4.60609271523179	0.0278145695364242	1.09403973509934				-0.218172185430464	-0.0172715231788079	-0.93594701986755	-32.752582781457	2.10649006622517	-4.96026490066225				0.560529801324503	-0.448529801324503	-0.709721854304636	-8.43708609271523	1.8635761589404	14.2243708609272				0.964026490066225	0.0194966887417219	0.101933774834437	-2.8482119205298	9.29192052980133	-0.617483443708608				0.527788079470199	-0.0308344370860927	-0.820238410596026	1.14039735099338	-5.44238410596027	-2.43470198675497			
29	700	-0.184158940397351	0.130754966887417	-0.935523178807947	-2.20662251655629	-0.144635761589404	2.17509933774834				0.992953642384106	0.111788079470199	0.205139072847682	-7.12609271523179	-6.69218543046358	3.61403973509934				-0.202172185430464	0.0147284768211921	-0.96794701986755	-29.112582781457	-8.53350993377483	-10.5602649006623				0.560529801324503	-0.464529801324503	-0.741721854304636	-10.1170860927152	-0.0964238410596001	18.7043708609272				0.996026490066225	0.0194966887417219	0.101933774834437	-5.3682119205298	10.9719205298013	-2.85748344370861				0.527788079470199	-0.0788344370860927	-0.852238410596026	1.70039735099338	-12.4423841059603	-3.55470198675497			
30	720	-0.184158940397351	0.130754966887417	-0.967523178807947	-1.92662251655629	-1.5446357615894	1.33509933774834				0.992953642384106	0.127788079470199	0.237139072847682	-7.40609271523179	-2.77218543046358	4.17403973509934				-0.266172185430464	-0.0812715231788079	-1.01594701986755	-10.352582781457	-25.8935099337748	-18.9602649006623				0.544529801324503	-0.480529801324503	-0.757721854304636	-11.7970860927152	-0.0964238410596001	25.4243708609272				0.996026490066225	0.0194966887417219	0.0859337748344371	-7.0482119205298	11.2519205298013	-2.01748344370861				0.527788079470199	-0.0788344370860927	-0.868238410596026	-8.65960264900662	-17.7623841059603	-2.15470198675497			
31	740	-0.184158940397351	0.146754966887417	-0.967523178807947	-3.60662251655629	0.135364238410596	1.33509933774834				1.05695364238411	0.159788079470199	0.189139072847682	-5.44609271523179	-10.0521854304636	5.01403973509934				-0.250172185430464	-0.129271523178808	-1.03194701986755	-19.592582781457	-39.6135099337748	-23.1602649006623				0.544529801324503	-0.496529801324503	-0.773721854304636	-15.1570860927152	-2.8964238410596	33.2643708609272				0.996026490066225	0.0194966887417219	0.0699337748344371	-8.7282119205298	13.2119205298013	-2.29748344370861				0.511788079470199	-0.0468344370860927	-0.900238410596026	-20.9796026490066	-19.1623841059603	-0.474701986754968			
32	760	-0.232158940397351	0.162754966887417	-0.951523178807947	-5.56662251655629	1.2553642384106	2.17509933774834				1.13695364238411	0.159788079470199	0.157139072847682	-4.32609271523179	-22.9321854304636	7.81403973509934				-0.554172185430464	-0.113271523178808	-0.88794701986755	-57.112582781457	-62.5735099337748	0.91973509933775				0.528529801324503	-0.512529801324503	-0.789721854304636	-20.1970860927152	-7.6564238410596	41.1043708609272				1.02802649006623	0.0354966887417219	0.0699337748344371	-9.0082119205298	17.1319205298013	-4.81748344370861				0.511788079470199	-0.0308344370860927	-0.932238410596026	-22.0996026490066	-26.7223841059603	1.76529801324503			
33	780	-0.216158940397351	0.146754966887417	-0.935523178807947	-5.56662251655629	2.6553642384106	4.41509933774834				1.24895364238411	0.143788079470199	0.0931390728476822	1.83390728476821	-41.9721854304636	14.2540397350993				-0.0421721854304636	-0.00127152317880793	-0.72794701986755	-26.312582781457	-80.2135099337748	15.7597350993378				0.544529801324503	-0.512529801324503	-0.837721854304636	-21.3170860927152	-12.1364238410596	46.9843708609272				1.06002649006623	0.0194966887417219	0.0539337748344371	-12.3682119205298	16.2919205298013	-5.65748344370861				0.495788079470199	-0.0468344370860927	-0.964238410596026	-17.3396026490066	-41.0023841059603	2.04529801324503			
34	800	-0.232158940397351	0.114754966887417	-0.951523178807947	-6.96662251655629	4.3353642384106	4.69509933774834				1.05695364238411	0.127788079470199	-0.0188609271523178	11.3539072847682	-74.4521854304636	10.0540397350993				-0.298172185430464	-0.00127152317880793	-0.66394701986755	29.1274172185431	-11.0535099337748	-21.2002649006623				0.528529801324503	-0.496529801324503	-0.869721854304636	-22.7170860927152	-15.7764238410596	50.9043708609272				1.14002649006623	0.0354966887417219	0.0379337748344371	-13.2082119205298	19.3719205298013	-5.37748344370861				0.463788079470199	-0.0628344370860927	-1.01223841059603	-17.3396026490066	-44.9223841059603	8.48529801324503			
35	820	-0.296158940397351	0.130754966887417	-0.951523178807947	-14.8066225165563	8.5353642384106	6.93509933774835				1.02495364238411	0.0637880794701987	0.0291390728476822	-22.2460927152318	-40.2921854304636	-10.3859602649007				-0.314172185430464	-0.0492715231788079	-0.83994701986755	15.687417218543	-16.3735099337748	-22.3202649006623				0.480529801324503	-0.496529801324503	-0.869721854304636	-31.3970860927152	-14.0964238410596	49.7843708609272				1.18802649006623	0.0354966887417219	-0.0260662251655629	-10.6882119205298	16.0119205298013	-6.49748344370861				0.399788079470199	-0.0468344370860927	-1.01223841059603	-19.0196026490066	-44.6423841059603	21.645298013245			
36	840	-0.248158940397351	0.194754966887417	-1.01552317880795	-25.7266225165563	12.1753642384106	10.2950993377483				0.896953642384106	0.207788079470199	0.0771390728476822	-42.6860927152318	-19.5721854304636	7.81403973509934				-0.330172185430464	-0.161271523178808	-0.87194701986755	10.087417218543	-11.0535099337748	-15.8802649006623				0.448529801324503	-0.480529801324503	-0.885721854304636	-39.2370860927152	-16.6164238410596	52.0243708609272				1.17202649006623	-0.0125033112582781	-0.0260662251655629	-6.2082119205298	10.1319205298013	-5.93748344370861				0.367788079470199	0.0171655629139073	-0.996238410596026	-32.4596026490066	-37.9223841059603	29.765298013245			
37	860	-0.184158940397351	0.130754966887417	-1.06352317880795	-20.9666225165563	26.4553642384106	8.61509933774835				0.816953642384106	-0.000211920529801304	-0.0508609271523178	-3.48609271523179	-7.53218543046358	62.6940397350993				-0.330172185430464	-0.257271523178808	-0.93594701986755	18.767417218543	0.426490066225167	-14.7602649006622				0.400529801324503	-0.496529801324503	-0.885721854304636	-38.1170860927152	-22.4964238410596	50.6243708609272				1.06002649006623	0.0354966887417219	0.00593377483443711	-17.1282119205298	5.65192052980133	-2.01748344370861				0.383788079470199	0.0651655629139073	-1.10823841059603	-31.0596026490066	-42.1223841059603	25.285298013245			
38	880	-0.152158940397351	0.210754966887417	-0.967523178807947	-14.8066225165563	23.3753642384106	4.97509933774835				1.15295364238411	0.0957880794701987	0.125139072847682	21.9939072847682	28.0278145695364	40.5740397350993				-0.362172185430464	-0.385271523178808	-1.19194701986755	17.3674172185431	10.2264900662252	-13.0802649006623				0.384529801324503	-0.448529801324503	-0.821721854304636	-48.4770860927152	-28.0964238410596	44.1843708609272				1.02802649006623	0.0674966887417219	0.00593377483443711	-15.4482119205298	10.9719205298013	1.62251655629139				0.319788079470199	-0.0148344370860927	-1.09223841059603	-1.09960264900662	-46.6023841059603	34.525298013245			
39	900	-0.296158940397351	0.210754966887417	-0.887523178807947	-28.8066225165563	22.5353642384106	6.09509933774834				1.20095364238411	0.127788079470199	0.205139072847682	-0.126092715231788	16.8278145695364	21.8140397350993				-0.346172185430464	-0.433271523178808	-0.93594701986755	26.0474172185431	23.6664900662252	-4.40026490066225				0.400529801324503	-0.400529801324503	-0.741721854304636	-56.5970860927152	-19.9764238410596	39.9843708609272				1.07602649006623	-0.0125033112582781	0.0539337748344371	-0.608211920529802	18.8119205298013	3.30251655629139				0.223788079470199	-0.0948344370860927	-0.964238410596026	9.82039735099338	-31.2023841059603	51.885298013245			
40	920	-0.408158940397351	0.210754966887417	-0.967523178807947	-23.2066225165563	23.0953642384106	9.45509933774835				0.912953642384106	0.159788079470199	0.173139072847682	-23.0860927152318	3.10781456953642	15.9340397350993				-0.282172185430464	-0.417271523178808	-0.63194701986755	-61.312582781457	23.9464900662252	13.7997350993378				0.368529801324503	-0.384529801324503	-0.773721854304636	-21.3170860927152	-4.5764238410596	43.9043708609272				1.15602649006623	-0.0285033112582781	0.117933774834437	-1.1682119205298	14.8919205298013	-0.0574834437086077				0.239788079470199	-0.0788344370860927	-0.964238410596026	-10.6196026490066	-18.6023841059603	58.325298013245			
41	940	-0.408158940397351	0.258754966887417	-1.03152317880795	-20.6866225165563	33.1753642384106	15.8950993377483				1.00895364238411	0.0317880794701987	0.0931390728476822	-25.0460927152318	30.2678145695364	20.9740397350993				-0.410172185430464	0.0787284768211921	-1.20794701986755	-50.392582781457	30.1064900662252	15.7597350993378				0.368529801324503	-0.384529801324503	-0.805721854304636	-3.11708609271523	14.1835761589404	33.8243708609272				0	0	0	0	0	0				0	0	0	0	0	0			
42	1080	0	0	0	0	0	0				1.12095364238411	0.0317880794701987	0.253139072847682	5.19390728476821	-25.4521854304636	0.81403973509934				-0.346172185430464	-0.209271523178808	-1.06394701986755	1.40741721854305	74.0664900662252	5.67973509933775				0	0	0	0	0	0				0	0	0	0	0	0				0	0	0	0	0	0			
43	1100	-0.024158940397351	0.418754966887417	-0.983523178807947	24.9533774834437	80.7753642384106	27.6550993377483				1.26495364238411	-0.0322119205298013	0.365139072847682	-7.12609271523179	9.26781456953642	6.97403973509934				-0.170172185430464	-0.0972715231788079	-0.98394701986755	-24.352582781457	83.8664900662252	8.75973509933775				0.704529801324503	-0.496529801324503	-0.869721854304636	25.7229139072848	35.7435761589404	-10.4156291390728				1.18802649006623	0.115496688741722	0.309933774834437	-20.4882119205298	-2.46807947019868	-7.33748344370861				0.703788079470199	-0.0628344370860927	-1.04423841059603	-36.3796026490066	67.0776158940397	-10.274701986755			
44	1120	0.039841059602649	0.274754966887417	-1.03152317880795	33.9133774834437	91.9753642384106	27.3750993377483				1.34495364238411	0.0637880794701987	0.237139072847682	-19.7260927152318	-5.29218543046358	-8.70596026490066				-0.106172185430464	-0.0812715231788079	-1.09594701986755	-38.072582781457	89.1864900662252	10.9997350993378				0.736529801324503	-0.528529801324503	-0.885721854304636	14.2429139072848	39.9435761589404	-7.89562913907285				1.23602649006623	0.0674966887417219	0.309933774834437	-16.2882119205298	-3.02807947019868	-6.21748344370861				0.751788079470199	-0.0628344370860927	-1.01223841059603	-24.8996026490066	58.9576158940397	-12.234701986755			
45	1140	0.151841059602649	0.178754966887417	-1.06352317880795	27.1933774834437	104.295364238411	24.5750993377483				1.31295364238411	0.0637880794701987	0.237139072847682	-23.3660927152318	-3.33218543046358	-14.0259602649007				-0.0581721854304636	-0.00127152317880793	-1.04794701986755	-39.752582781457	99.2664900662252	12.9597350993378				0.752529801324503	-0.400529801324503	-0.901721854304636	15.3629139072848	39.9435761589404	-8.17562913907285				1.26802649006623	0.0994966887417219	0.357933774834437	-17.9682119205298	-0.788079470198675	-5.93748344370861				0.767788079470199	-0.142834437086093	-0.996238410596026	-13.9796026490066	53.0776158940397	-11.114701986755			
46	1160	0.247841059602649	0.274754966887417	-1.03152317880795	17.6733774834437	105.135364238411	22.8950993377483				1.28095364238411	0.159788079470199	0.349139072847682	-0.966092715231788	-6.69218543046358	-16.5459602649007				-0.0101721854304636	0.0307284768211921	-0.99994701986755	-29.672582781457	106.546490066225	14.6397350993378				0.864529801324503	-0.352529801324503	-0.901721854304636	32.1629139072848	43.0235761589404	-8.17562913907285				1.28402649006623	0.147496688741722	0.373933774834437	-21.8882119205298	-8.90807947019868	-4.81748344370861				0.783788079470199	-0.206834437086093	-0.996238410596026	-9.49960264900662	51.9576158940397	-2.15470198675497			
47	1180	0.327841059602649	0.274754966887417	-1.01552317880795	21.3133774834437	111.855364238411	21.4950993377483				1.32895364238411	0.0637880794701987	0.333139072847682	15.5539072847682	-8.93218543046358	-7.58596026490066				0.0858278145695364	0.0467284768211921	-0.99994701986755	-19.312582781457	109.906490066225	14.9197350993378				0.912529801324503	-0.512529801324503	-0.821721854304636	28.2429139072848	37.7035761589404	-8.17562913907285				1.28402649006623	0.0994966887417219	0.341933774834437	-17.4082119205298	-21.7880794701987	-1.73748344370861				0.831788079470199	-0.190834437086093	-0.980238410596026	-17.8996026490066	55.0376158940397	4.00529801324503			
48	1200	0.455841059602649	0.194754966887417	-0.967523178807947	25.5133774834437	121.935364238411	19.5350993377483				1.26495364238411	0.0797880794701987	0.301139072847682	-0.126092715231788	-19.8521854304636	-9.26596026490066				0.181827814569536	0.0147284768211921	-1.03194701986755	-8.11258278145695	119.706490066225	14.0797350993378				0.880529801324503	-0.560529801324503	-0.789721854304636	10.6029139072848	26.5035761589404	-9.29562913907285				1.25202649006623	0.0834966887417219	0.293933774834437	-19.9282119205298	-21.7880794701987	-1.45748344370861				0.879788079470199	-0.158834437086093	-0.964238410596026	-21.5396026490066	56.9976158940397	6.80529801324503			
49	1220	0.487841059602649	0.162754966887417	-0.935523178807947	28.5933774834437	144.335364238411	18.6950993377483				1.18495364238411	-0.0162119205298013	0.221139072847682	-6.84609271523179	-17.8921854304636	-10.3859602649007				0.0698278145695364	-0.0812715231788079	-0.99994701986755	-3.91258278145695	127.266490066225	12.6797350993378				0.784529801324503	-0.480529801324503	-0.789721854304636	8.92291390728477	18.3835761589404	-3.69562913907285				1.18802649006623	0.0834966887417219	0.325933774834437	-22.7282119205298	-22.6280794701987	-1.17748344370861				0.895788079470199	-0.0628344370860927	-0.948238410596026	-17.8996026490066	51.1176158940397	6.52529801324503			
50	1240	0.503841059602649	0.0187549668874172	-0.935523178807947	29.1533774834437	154.975364238411	19.8150993377483				1.31295364238411	0.0797880794701987	0.365139072847682	2.11390728476821	5.06781456953642	-9.26596026490066				0.293827814569536	-0.00127152317880793	-0.93594701986755	-11.192582781457	135.386490066225	8.47973509933775				0.784529801324503	-0.416529801324503	-0.725721854304636	20.1229139072848	24.5435761589404	-2.29562913907285				1.15602649006623	0.115496688741722	0.357933774834437	-23.5682119205298	-23.7480794701987	-1.73748344370861				0.815788079470199	-0.0148344370860927	-0.900238410596026	-15.0996026490066	45.7976158940397	4.28529801324503			
51	1260	0.567841059602649	0.0187549668874172	-0.855523178807947	15.7133774834437	157.775364238411	18.6950993377483				1.31295364238411	0.0637880794701987	0.397139072847682	21.7139072847682	-26.0121854304636	-7.58596026490066				0.309827814569536	0.0627284768211921	-0.90394701986755	-13.992582781457	141.266490066225	9.87973509933775				0.864529801324503	-0.432529801324503	-0.709721854304636	28.5229139072848	32.3835761589404	-1.17562913907285				1.14002649006623	0.115496688741722	0.357933774834437	-11.8082119205298	-21.7880794701987	1.34251655629139				0.783788079470199	-0.0628344370860927	-0.820238410596026	-16.4996026490066	47.4776158940397	10.725298013245			
52	1280	0.679841059602649	0.0667549668874172	-0.807523178807947	-1.92662251655629	144.335364238411	21.7750993377483				1.07295364238411	0.143788079470199	0.317139072847682	28.7139072847682	-53.7321854304636	-3.10596026490066				0.389827814569536	0.110728476821192	-0.80794701986755	-13.432582781457	142.386490066225	9.87973509933775				0.848529801324503	-0.432529801324503	-0.645721854304636	17.3229139072848	34.9035761589404	-0.615629139072848				1.14002649006623	0.115496688741722	0.277933774834437	-11.5282119205298	-24.3080794701987	2.74251655629139				0.783788079470199	-0.0468344370860927	-0.820238410596026	-22.0996026490066	41.0376158940397	11.285298013245			
53	1300	0.695841059602649	0.146754966887417	-0.743523178807947	-0.526622516556291	147.135364238411	24.8550993377483				0.928953642384106	0.111788079470199	0.0931390728476822	27.3139072847682	-50.9321854304636	-8.14596026490066				0.485827814569536	0.0627284768211921	-0.72794701986755	-2.51258278145695	143.226490066225	5.39973509933775				0.784529801324503	-0.336529801324503	-0.549721854304636	17.0429139072848	32.1035761589404	-6.77562913907285				1.07602649006623	0.0834966887417219	0.229933774834437	-12.6482119205298	-28.2280794701987	3.86251655629139				0.735788079470199	-0.0628344370860927	-0.772238410596026	-29.3796026490066	42.4376158940397	9.04529801324503			
54	1320	0.711841059602649	0.0987549668874172	-0.647523178807947	6.19337748344371	151.615364238411	26.8150993377483				0.960953642384106	-0.0322119205298013	0.157139072847682	11.9139072847682	-30.2121854304636	-8.14596026490066				0.549827814569536	0.0627284768211921	-0.69594701986755	0.567417218543046	140.706490066225	4.27973509933775				0.688529801324503	-0.288529801324503	-0.533721854304636	33.5629139072848	27.0635761589404	-10.9756291390728				0.996026490066225	0.0994966887417219	0.213933774834437	-12.6482119205298	-37.1880794701987	4.98251655629139				0.671788079470199	-0.110834437086093	-0.692238410596026	-27.4196026490066	41.8776158940397	15.765298013245			
55	1340	0.727841059602649	0.0827549668874172	-0.615523178807947	8.43337748344371	150.775364238411	26.2550993377483				1.00895364238411	-0.000211920529801304	0.205139072847682	1.27390728476821	-24.3321854304636	-1.70596026490066				0.693827814569536	0.126728476821192	-0.59994701986755	3.92741721854305	145.466490066225	-1.88026490066225				0.624529801324503	-0.368529801324503	-0.517721854304636	36.3629139072848	23.4235761589404	-7.89562913907285				0.884026490066225	0.0834966887417219	0.181933774834437	-7.6082119205298	-42.7880794701987	6.66251655629139				0.623788079470199	0.00116556291390731	-0.676238410596026	-30.7796026490066	38.7976158940397	14.085298013245			
56	1360	0.695841059602649	0.0507549668874172	-0.551523178807947	0.313377483443709	148.255364238411	26.2550993377483				0.880953642384106	0.0797880794701987	0.109139072847682	4.91390728476821	-42.2521854304636	-0.585960264900661				0.629827814569536	0.0787284768211921	-0.61594701986755	9.80741721854305	143.506490066225	-4.96026490066225				0.576529801324503	-0.496529801324503	-0.517721854304636	28.5229139072848	18.3835761589404	-0.895629139072848				0.804026490066225	0.00349668874172187	0.101933774834437	3.0317880794702	-45.8680794701987	9.18251655629139				0.591788079470199	0.00116556291390731	-0.612238410596026	-22.0996026490066	34.5976158940397	13.805298013245			
57	1380	0.679841059602649	0.0347549668874172	-0.455523178807947	-8.64662251655629	145.735364238411	22.6150993377483				0.640953642384106	0.0477880794701987	0.0771390728476822	22.5539072847682	-52.3321854304636	-5.34596026490066				0.517827814569536	0.0627284768211921	-0.53594701986755	9.24741721854305	145.466490066225	-6.92026490066225				0.496529801324503	-0.480529801324503	-0.485721854304636	14.5229139072848	13.0635761589404	-0.335629139072848				0.740026490066225	-0.0125033112582781	0.0859337748344371	-0.888211920529802	-38.5880794701987	8.34251655629139				0.511788079470199	-0.0308344370860927	-0.564238410596026	-12.0196026490066	25.0776158940397	19.125298013245			
58	1400	0.679841059602649	0.0507549668874172	-0.375523178807947	-17.6066225165563	144.895364238411	16.1750993377483				0.640953642384106	0.0637880794701987	-0.00286092715231785	23.3939072847682	-61.0121854304636	-7.30596026490066				0.501827814569536	0.0627284768211921	-0.45594701986755	1.96741721854305	149.386490066225	-9.44026490066225				0.416529801324503	-0.304529801324503	-0.421721854304636	8.08291390728477	6.9035761589404	-3.41562913907285				0.644026490066225	0.0194966887417219	0.0699337748344371	-5.6482119205298	-40.5480794701987	6.38251655629139				0.431788079470199	-0.0308344370860927	-0.500238410596026	-13.1396026490066	20.5976158940397	22.765298013245			
59	1420	0.695841059602649	0.0827549668874172	-0.391523178807947	-20.4066225165563	140.975364238411	11.4150993377483				0.528953642384106	-0.000211920529801304	-0.00286092715231785	16.6739072847682	-55.1321854304636	-1.98596026490066				0.533827814569536	0.0627284768211921	-0.45594701986755	-2.23258278145695	146.866490066225	-10.8402649006623				0.352529801324503	-0.208529801324503	-0.357721854304636	12.8429139072848	-3.1764238410596	-1.17562913907285				0.532026490066225	0.0354966887417219	0.0379337748344371	-5.9282119205298	-45.5880794701987	7.78251655629139				0.383788079470199	0.0171655629139073	-0.452238410596026	-26.2996026490066	16.9576158940397	19.685298013245			
60	1440	0.647841059602649	0.194754966887417	-0.407523178807947	-24.8866225165563	139.575364238411	9.73509933774834				0.384953642384106	0.0157880794701987	-0.0188609271523178	16.3939072847682	-48.4121854304636	-3.94596026490066				0.517827814569536	0.0627284768211921	-0.48794701986755	6.16741721854305	146.026490066225	-13.0802649006623				0.352529801324503	-0.256529801324503	-0.325721854304636	17.8829139072848	-11.8564238410596	5.26437086092715				0.500026490066225	0.00349668874172187	0.0699337748344371	-0.608211920529802	-41.6680794701987	7.78251655629139				0.399788079470199	0.0811655629139073	-0.420238410596026	-25.4596026490066	7.43761589403974	8.20529801324503			
61	1460	0.519841059602649	0.290754966887417	-0.311523178807947	-6.96662251655629	141.255364238411	13.9350993377483				0.400953642384106	0.0637880794701987	-0.00286092715231785	3.79390728476821	-36.0921854304636	-9.54596026490066				0.469827814569536	-0.00127152317880793	-0.43994701986755	1.96741721854305	138.186490066225	-13.3602649006623				0.368529801324503	-0.336529801324503	-0.309721854304636	15.6429139072848	-20.2564238410596	11.4243708609272				0.500026490066225	-0.0285033112582781	0.0699337748344371	1.6317880794702	-43.0680794701987	7.50251655629139				0.415788079470199	0.129165562913907	-0.452238410596026	-19.2996026490066	-7.68238410596027	-4.95470198675497			
62	1480	0.519841059602649	0.242754966887417	-0.407523178807947	10.1133774834437	139.575364238411	14.2150993377483				0.480953642384106	0.0797880794701987	-0.0348609271523178	-1.52609271523179	-32.4521854304636	-8.70596026490066				0.597827814569536	-0.0172715231788079	-0.45594701986755	-0.832582781456954	139.866490066225	-15.0402649006623				0.368529801324503	-0.320529801324503	-0.293721854304636	3.88291390728477	-29.2164238410596	12.2643708609272				0.500026490066225	0.0194966887417219	0.00593377483443711	-2.8482119205298	-46.4280794701987	6.38251655629139				0.399788079470199	0.129165562913907	-0.516238410596026	-6.13960264900662	-22.8023841059603	-15.034701986755			
63	1500	0.631841059602649	0.194754966887417	-0.375523178807947	34.1933774834437	125.015364238411	9.45509933774835				0.480953642384106	0.0637880794701987	-0.0348609271523178	1.27390728476821	-36.9321854304636	-11.5059602649007				0.597827814569536	-0.0172715231788079	-0.42394701986755	10.367417218543	128.666490066225	-18.1202649006623				0.336529801324503	-0.224529801324503	-0.293721854304636	1.64291390728477	-36.4964238410596	17.8643708609272				0.516026490066225	0.0514966887417219	-0.0260662251655629	-2.8482119205298	-41.6680794701987	6.38251655629139				0.367788079470199	0.113165562913907	-0.500238410596026	-2.21960264900662	-34.2823841059603	-21.474701986755			
64	1520	0.695841059602649	0.162754966887417	-0.327523178807947	37.2733774834437	112.975364238411	1.61509933774834				0.576953642384106	0.0797880794701987	-0.0508609271523178	-0.966092715231788	-17.8921854304636	-1.14596026490066				0.613827814569536	-0.00127152317880793	-0.45594701986755	7.84741721854305	124.466490066225	-19.2402649006623				0.304529801324503	-0.240529801324503	-0.325721854304636	3.60291390728477	-40.6964238410596	23.4643708609272				0.516026490066225	0.0354966887417219	-0.0100662251655629	1.3517880794702	-42.2280794701987	7.78251655629139				0.335788079470199	0.0811655629139073	-0.452238410596026	-9.49960264900662	-39.0423841059603	-25.674701986755			
65	1540	0.759841059602649	0.0827549668874172	-0.423523178807947	46.2333774834437	108.215364238411	-0.344900662251656				0.592953642384106	0.111788079470199	0.0291390728476822	0.433907284768212	-17.0521854304636	-2.26596026490066				0.677827814569536	-0.0172715231788079	-0.50394701986755	-4.47258278145695	102.626490066225	-13.9202649006623				0.288529801324503	-0.288529801324503	-0.373721854304636	3.88291390728477	-44.0564238410596	25.4243708609272				0.516026490066225	0.0354966887417219	-0.0580662251655629	7.5117880794702	-39.7080794701987	8.34251655629139				0.319788079470199	0.129165562913907	-0.452238410596026	-15.3796026490066	-39.8823841059603	-29.874701986755			
66	1560	0.791841059602649	0.00275496688741723	-0.407523178807947	35.0333774834437	90.5753642384106	0.775099337748344				0.560953642384106	0.0957880794701987	0.0451390728476822	4.63390728476821	-21.8121854304636	-0.585960264900661				0.693827814569536	-0.0332715231788079	-0.50394701986755	-1.11258278145695	87.7864900662252	-9.72026490066225				0.272529801324503	-0.304529801324503	-0.389721854304636	-1.15708609271523	-47.1364238410596	24.3043708609272				0.500026490066225	0.0354966887417219	-0.0740662251655629	6.1117880794702	-32.9880794701987	8.90251655629139				0.303788079470199	0.129165562913907	-0.500238410596026	-10.3396026490066	-41.0023841059603	-32.674701986755			
67	1580	0.791841059602649	-0.0612450331125828	-0.327523178807947	40.0733774834437	77.6953642384106	6.37509933774834				0.592953642384106	0.111788079470199	0.0131390728476822	2.95390728476821	-18.1721854304636	-2.54596026490066				0.741827814569536	-0.0812715231788079	-0.56794701986755	17.927417218543	74.3464900662252	-8.88026490066225				0.272529801324503	-0.320529801324503	-0.405721854304636	-5.07708609271523	-46.5764238410596	22.9043708609272				0.564026490066225	0.0354966887417219	-0.0580662251655629	8.9117880794702	-24.8680794701987	6.66251655629139				0.303788079470199	0.0811655629139073	-0.516238410596026	5.90039735099338	-44.6423841059603	-30.714701986755			
68	1600	0.839841059602649	-0.157245033112583	-0.359523178807947	23.2733774834437	70.1353642384106	9.17509933774834				0.736953642384106	0.0957880794701987	0.0451390728476822	3.23390728476821	-10.0521854304636	-3.66596026490066				0.885827814569536	-0.0492715231788079	-0.50394701986755	15.967417218543	54.1864900662252	-0.20026490066225				0.320529801324503	-0.368529801324503	-0.437721854304636	-0.877086092715232	-35.9364238410596	27.1043708609272				0.676026490066225	0.0194966887417219	-0.0260662251655629	11.1517880794702	-23.4680794701987	4.42251655629139				0.367788079470199	0.0971655629139073	-0.564238410596026	8.70039735099338	-44.0823841059603	-25.674701986755			
69	1620	0.887841059602649	-0.157245033112583	-0.391523178807947	1.99337748344371	55.5753642384106	10.2950993377483				0.784953642384106	0.111788079470199	0.0291390728476822	6.87390728476821	-13.6921854304636	-2.82596026490066				0.853827814569536	-0.0332715231788079	-0.42394701986755	0.287417218543046	32.0664900662252	2.31973509933775				0.352529801324503	-0.416529801324503	-0.485721854304636	9.20291390728477	-26.4164238410596	25.4243708609272				0.724026490066225	0.0194966887417219	-0.106066225165563	11.7117880794702	-19.8280794701987	3.02251655629139				0.415788079470199	0.0811655629139073	-0.612238410596026	13.1803973509934	-40.1623841059603	-23.714701986755			
70	1640	0.839841059602649	-0.0292450331125828	-0.247523178807947	-8.36662251655629	52.4953642384106	14.4950993377483				0.816953642384106	0.0957880794701987	-0.0188609271523178	8.55390728476821	-13.4121854304636	-3.66596026490066				0.885827814569536	-0.0652715231788079	-0.40794701986755	4.76741721854305	19.7464900662252	3.99973509933775				0.368529801324503	-0.384529801324503	-0.501721854304636	6.12291390728477	-19.9764238410596	15.0643708609272				0.772026490066225	0.0194966887417219	-0.0900662251655629	11.9917880794702	-11.7080794701987	1.62251655629139				0.447788079470199	0.0651655629139073	-0.628238410596026	17.6603973509934	-37.0823841059603	-21.474701986755			
71	1660	0.919841059602649	0.00275496688741723	-0.279523178807947	-8.36662251655629	41.0153642384106	15.6150993377483				0.864953642384106	0.0797880794701987	-0.0188609271523178	3.51390728476821	-6.69218543046358	-2.26596026490066				0.885827814569536	-0.0172715231788079	-0.35994701986755	5.88741721854305	14.9864900662252	4.27973509933775				0.368529801324503	-0.368529801324503	-0.501721854304636	12.0029139072848	-10.4564238410596	8.90437086092715				0.836026490066225	0.00349668874172187	-0.0740662251655629	13.6717880794702	-9.18807947019868	2.46251655629139				0.463788079470199	0.0491655629139073	-0.692238410596026	20.4603973509934	-34.5623841059603	-18.114701986755			
72	1680	0.983841059602649	0.0987549668874172	-0.295523178807947	-10.3266225165563	32.3353642384106	9.17509933774834				0.976953642384106	0.0157880794701987	0.0291390728476822	1.83390728476821	-6.13218543046358	-0.86596026490066				0.901827814569536	-0.0492715231788079	-0.31194701986755	-3.91258278145695	11.6264900662252	3.43973509933775				0.416529801324503	-0.448529801324503	-0.549721854304636	31.3229139072848	2.4235761589404	12.2643708609272				0.900026490066225	0.00349668874172187	-0.0900662251655629	13.3917880794702	-5.26807947019868	3.58251655629139				0.495788079470199	0.0651655629139073	-0.724238410596026	21.5803973509934	-28.6823841059603	-15.874701986755			
73	1700	0.983841059602649	0.162754966887417	-0.199523178807947	5.07337748344371	29.8153642384106	3.29509933774834				1.00895364238411	0.0637880794701987	-0.0508609271523178	-1.24609271523179	-4.45218543046358	-0.0259602649006601				0.917827814569536	-0.0332715231788079	-0.23194701986755	-10.072582781457	14.1464900662252	4.27973509933775				0.480529801324503	-0.544529801324503	-0.629721854304636	32.4429139072848	5.2235761589404	11.9843708609272				0.948026490066225	-0.0445033112582781	-0.0900662251655629	14.2317880794702	-4.98807947019868	4.70251655629139				0.559788079470199	0.0971655629139073	-0.740238410596026	19.9003973509934	-18.8823841059603	-18.114701986755			
74	1720	0.951841059602649	0.130754966887417	-0.183523178807947	20.7533774834437	24.7753642384106	-1.46490066225166				1.00895364238411	0.0957880794701987	-0.0188609271523178	-5.16609271523179	0.867814569536424	-0.30596026490066				0.933827814569536	0.0147284768211921	-0.26394701986755	-6.15258278145695	16.9464900662252	3.71973509933775				0.496529801324503	-0.544529801324503	-0.693721854304636	24.8829139072848	1.3035761589404	6.66437086092715				0.980026490066225	-0.0125033112582781	-0.0420662251655629	11.7117880794702	0.611920529801325	4.42251655629139				0.591788079470199	0.0491655629139073	-0.772238410596026	27.7403973509934	-13.0023841059603	-16.714701986755			
75	1740	0.919841059602649	0.0187549668874172	-0.151523178807947	22.7133774834437	22.8153642384106	-3.98490066225166				0.976953642384106	0.0637880794701987	0.0131390728476822	-0.686092715231788	-8.93218543046358	0.25403973509934				0.917827814569536	-0.00127152317880793	-0.31194701986755	-12.872582781457	13.5864900662252	5.11973509933775				0.480529801324503	-0.512529801324503	-0.661721854304636	19.8429139072848	1.0235761589404	-4.53562913907285				0.980026490066225	-0.0125033112582781	-0.0420662251655629	7.2317880794702	1.73192052980133	5.26251655629139				0.559788079470199	-0.0468344370860927	-0.708238410596026	29.1403973509934	-9.36238410596027	-11.954701986755			
76	1760	0.935841059602649	-0.0452450331125828	-0.135523178807947	17.9533774834437	19.7353642384106	-3.14490066225166				0.896953642384106	0.0637880794701987	-0.0508609271523178	0.433907284768212	-9.49218543046358	2.21403973509934				0.885827814569536	-0.0492715231788079	-0.31194701986755	-13.432582781457	12.1864900662252	5.67973509933775				0.480529801324503	-0.496529801324503	-0.597721854304636	14.5229139072848	2.4235761589404	-13.2156291390728				0.932026490066225	-0.0285033112582781	-0.0900662251655629	8.3517880794702	0.611920529801325	6.66251655629139				0.543788079470199	-0.0788344370860927	-0.692238410596026	14.8603973509934	0.157615894039735	-6.07470198675497			
77	1780	0.967841059602649	-0.0452450331125828	-0.055523178807947	11.5133774834437	21.1353642384106	0.215099337748344				0.960953642384106	0.111788079470199	-0.0668609271523178	-4.88609271523179	5.06781456953642	0.53403973509934				0.901827814569536	-0.00127152317880793	-0.24794701986755	-7.83258278145695	10.5064900662252	5.95973509933775				0.496529801324503	-0.512529801324503	-0.581721854304636	13.9629139072848	-0.3764238410596	-12.9356291390728				0.932026490066225	0.00349668874172187	-0.0580662251655629	6.9517880794702	-1.34807947019868	7.50251655629139				0.527788079470199	-0.0308344370860927	-0.660238410596027	-0.259602649006623	9.67761589403974	-2.99470198675497			
78	1800	0.983841059602649	-0.0772450331125828	-0.151523178807947	0.593377483443709	23.0953642384106	2.45509933774835				1.00895364238411	0.111788079470199	-0.0348609271523178	-3.20609271523179	8.14781456953643	0.25403973509934				0.917827814569536	0.0307284768211921	-0.24794701986755	-10.912582781457	9.10649006622517	9.03973509933775				0.496529801324503	-0.512529801324503	-0.613721854304636	8.92291390728477	-5.1364238410596	-10.1356291390728				0.932026490066225	0.00349668874172187	-0.0420662251655629	2.1917880794702	-1.90807947019868	5.82251655629139				0.543788079470199	0.0491655629139073	-0.708238410596026	-1.37960264900662	11.9176158940397	-3.55470198675497			
79	1820	0.951841059602649	-0.0292450331125828	-0.135523178807947	-9.76662251655629	27.0153642384106	-0.624900662251656				0.992953642384106	0.0637880794701987	-0.0508609271523178	-6.00609271523179	3.38781456953642	3.89403973509934				0.917827814569536	-0.0172715231788079	-0.29594701986755	-10.352582781457	4.34649006622517	10.4397350993378				0.528529801324503	-0.528529801324503	-0.613721854304636	3.32291390728477	-3.7364238410596	-7.61562913907285				0.964026490066225	0.00349668874172187	-0.0260662251655629	2.7517880794702	-1.34807947019868	5.26251655629139				0.591788079470199	0.0491655629139073	-0.772238410596026	11.5003973509934	10.5176158940397	-3.55470198675497			
80	1840	0.935841059602649	0.0507549668874172	-0.167523178807947	-12.8466225165563	21.6953642384106	-2.58490066225166				0.944953642384106	0.0797880794701987	-0.0188609271523178	-10.7660927152318	3.94781456953642	3.89403973509934				0.901827814569536	-0.0172715231788079	-0.31194701986755	-16.232582781457	4.34649006622517	9.87973509933775				0.512529801324503	-0.560529801324503	-0.613721854304636	11.1629139072848	3.8235761589404	-5.65562913907285				0.980026490066225	0.00349668874172187	-0.0740662251655629	3.5917880794702	-2.46807947019868	5.26251655629139				0.607788079470199	0.0331655629139073	-0.788238410596027	16.8203973509934	9.39761589403974	-1.59470198675497			
81	1860	0.935841059602649	0.130754966887417	-0.167523178807947	-6.40662251655629	13.2953642384106	-1.74490066225166				0.944953642384106	0.111788079470199	-0.0348609271523178	-2.08609271523179	7.30781456953642	6.13403973509934				0.901827814569536	0.0307284768211921	-0.35994701986755	-16.512582781457	4.90649006622517	8.19973509933775				0.528529801324503	-0.560529801324503	-0.597721854304636	12.8429139072848	8.0235761589404	-2.01562913907285				0.964026490066225	0.00349668874172187	-0.0900662251655629	2.4717880794702	-3.58807947019868	5.26251655629139				0.607788079470199	0.0171655629139073	-0.788238410596027	13.7403973509934	6.31761589403974	-2.15470198675497			
82	1880	0.983841059602649	0.0667549668874172	-0.103523178807947	3.67337748344371	13.0153642384106	-1.46490066225166				1.00895364238411	0.0957880794701987	-0.0348609271523178	-2.92609271523179	9.54781456953642	6.41403973509934				0.917827814569536	0.0947284768211921	-0.34394701986755	-12.312582781457	5.46649006622517	5.39973509933775				0.512529801324503	-0.544529801324503	-0.597721854304636	8.08291390728477	3.5435761589404	2.46437086092715				0.916026490066225	0.00349668874172187	-0.0580662251655629	3.5917880794702	-1.62807947019868	6.66251655629139				0.591788079470199	0.00116556291390731	-0.788238410596027	7.58039735099338	2.67761589403974	-5.23470198675497			
83	1900	0.983841059602649	0.00275496688741723	-0.151523178807947	4.79337748344371	12.7353642384106	-2.02490066225166				0.976953642384106	0.0957880794701987	0.0451390728476822	-2.08609271523179	2.82781456953642	4.73403973509934				0.901827814569536	0.110728476821192	-0.35994701986755	-9.79258278145695	1.26649006622517	3.43973509933775				0.496529801324503	-0.560529801324503	-0.597721854304636	3.32291390728477	-3.1764238410596	5.26437086092715				0.916026490066225	-0.0285033112582781	-0.0420662251655629	4.9917880794702	1.17192052980133	8.06251655629139				0.591788079470199	0.0171655629139073	-0.820238410596026	5.62039735099338	-2.36238410596027	-6.63470198675497			
84	1920	0.967841059602649	-0.0132450331125828	-0.151523178807947	4.23337748344371	12.4553642384106	-3.14490066225166				0.960953642384106	0.127788079470199	0.0131390728476822	1.83390728476821	-3.05218543046358	0.25403973509934				0.885827814569536	0.0947284768211921	-0.40794701986755	-3.35258278145695	2.10649006622517	0.0797350993377501				0.496529801324503	-0.560529801324503	-0.629721854304636	-3.95708609271523	-8.4964238410596	5.54437086092715				0.916026490066225	-0.0285033112582781	-0.0580662251655629	1.9117880794702	10.1319205298013	6.66251655629139				0.559788079470199	0.0331655629139073	-0.836238410596026	13.7403973509934	-10.4823841059603	-4.11470198675497			
85	1940	0.967841059602649	0.0187549668874172	-0.167523178807947	4.51337748344371	6.8553642384106	-3.14490066225166				0.976953642384106	0.127788079470199	0.0451390728476822	-1.24609271523179	0.307814569536424	-0.30596026490066				0.901827814569536	0.126728476821192	-0.39194701986755	-1.39258278145695	2.94649006622517	-1.32026490066225				0.480529801324503	-0.528529801324503	-0.613721854304636	-9.83708609271523	-10.7364238410596	0.224370860927152				0.916026490066225	-0.0125033112582781	-0.0580662251655629	-2.2882119205298	14.0519205298013	4.42251655629139				0.527788079470199	0.0331655629139073	-0.804238410596027	19.9003973509934	-15.2423841059603	-0.194701986754968			
86	1960	0.951841059602649	0.0667549668874172	-0.167523178807947	1.71337748344371	0.695364238410596	-3.14490066225166				0.944953642384106	0.143788079470199	-0.00286092715231785	4.91390728476821	-5.85218543046358	4.45403973509934				0.901827814569536	0.0947284768211921	-0.35994701986755	4.76741721854305	1.54649006622517	-3.28026490066225				0.512529801324503	-0.496529801324503	-0.565721854304636	-9.83708609271523	-10.4564238410596	-3.97562913907285				0.932026490066225	0.0194966887417219	-0.0900662251655629	-1.4482119205298	16.5719205298013	3.30251655629139				0.495788079470199	0.00116556291390731	-0.772238410596026	25.5003973509934	-18.3223841059603	2.32529801324503			
87	2100	0	0	0	0	0	0				0	0	0	0	0	0				0	0	0	0	0	0				0.496529801324503	-0.512529801324503	-0.645721854304636	6.68291390728477	-10.7364238410596	-12.9356291390728				0.948026490066225	-0.0125033112582781	-0.0740662251655629	8.3517880794702	-0.508079470198675	2.46251655629139				0.511788079470199	0.0491655629139073	-0.836238410596026	6.74039735099338	-0.962384105960265	-16.154701986755			
88	2120	0	0	0	0	0	0				0	0	0	0	0	0				0	0	0	0	0	0				0.464529801324503	-0.528529801324503	-0.613721854304636	5.56291390728477	-11.5764238410596	-15.4556291390728				0.948026490066225	-0.0125033112582781	-0.0740662251655629	6.1117880794702	2.85192052980133	2.74251655629139				0.479788079470199	0.0331655629139073	-0.820238410596026	16.2603973509934	-2.36238410596027	-19.794701986755			
89	2140	0.951841059602649	0.0347549668874172	-0.215523178807947	-0.806622516556291	8.8153642384106	-0.624900662251656				0.992953642384106	0.127788079470199	-0.0988609271523179	-7.68609271523179	-1.37218543046358	2.77403973509934				0.885827814569536	0.0627284768211921	-0.39194701986755	-6.71258278145695	3.22649006622517	2.03973509933775				0.416529801324503	-0.544529801324503	-0.613721854304636	5.28291390728477	-6.8164238410596	-14.6156291390728				0.948026490066225	-0.0285033112582781	-0.0740662251655629	8.3517880794702	6.49192052980132	3.30251655629139				0.479788079470199	0.0171655629139073	-0.804238410596027	19.3403973509934	-2.64238410596027	-14.474701986755			
90	2160	0.983841059602649	0.0507549668874172	-0.183523178807947	0.313377483443709	8.8153642384106	-0.0649006622516557				1.00895364238411	0.0797880794701987	-0.0828609271523179	-5.16609271523179	0.0278145695364242	4.17403973509934				0.869827814569536	0.0627284768211921	-0.35994701986755	-11.472582781457	1.26649006622517	2.87973509933775				0.432529801324503	-0.528529801324503	-0.613721854304636	5.00291390728477	1.3035761589404	-11.2556291390728				0.948026490066225	-0.0125033112582781	-0.0900662251655629	5.8317880794702	9.29192052980133	2.46251655629139				0.479788079470199	-0.0468344370860927	-0.820238410596026	18.7803973509934	-5.72238410596027	-10.834701986755			
91	2180	0.967841059602649	0.0507549668874172	-0.167523178807947	-1.36662251655629	4.8953642384106	-1.18490066225166				0.960953642384106	0.0957880794701987	-0.0988609271523179	-0.686092715231788	-3.61218543046358	2.49403973509934				0.885827814569536	0.0467284768211921	-0.39194701986755	-9.23258278145695	0.986490066225167	3.99973509933775				0.448529801324503	-0.544529801324503	-0.629721854304636	6.40291390728477	6.0635761589404	-4.81562913907285				0.964026490066225	-0.0285033112582781	-0.0900662251655629	5.8317880794702	9.85192052980133	2.74251655629139				0.511788079470199	-0.0308344370860927	-0.804238410596027	12.0603973509934	-6.28238410596027	-10.274701986755			
92	2200	0.951841059602649	0.0507549668874172	-0.183523178807947	-1.36662251655629	2.0953642384106	-1.46490066225166				0.944953642384106	0.0957880794701987	-0.114860927152318	-2.36609271523179	-3.61218543046358	2.21403973509934				0.885827814569536	0.0307284768211921	-0.37594701986755	-4.47258278145695	0.986490066225167	3.71973509933775				0.480529801324503	-0.544529801324503	-0.629721854304636	12.5629139072848	7.7435761589404	1.06437086092715				0.980026490066225	-0.0445033112582781	-0.0740662251655629	4.1517880794702	9.01192052980133	3.30251655629139				0.527788079470199	-0.0308344370860927	-0.788238410596027	8.70039735099338	-5.44238410596027	-11.954701986755			
93	2220	0.935841059602649	0.0507549668874172	-0.119523178807947	-0.526622516556291	-0.424635761589404	-0.344900662251656				0.944953642384106	0.111788079470199	-0.0988609271523179	-5.44609271523179	-0.532185430463576	1.09403973509934				0.885827814569536	0.0467284768211921	-0.35994701986755	-3.07258278145695	2.38649006622517	0.91973509933775				0.496529801324503	-0.576529801324503	-0.629721854304636	9.48291390728477	5.5035761589404	2.74437086092715				0.980026490066225	-0.0445033112582781	-0.0740662251655629	4.1517880794702	6.49192052980132	3.58251655629139				0.527788079470199	-0.0788344370860927	-0.788238410596027	14.3003973509934	-4.32238410596027	-12.794701986755			
94	2240	0.967841059602649	0.0347549668874172	-0.119523178807947	3.67337748344371	0.975364238410596	1.61509933774834				1.00895364238411	0.0797880794701987	-0.0988609271523179	-3.48609271523179	3.66781456953642	3.33403973509934				0.901827814569536	0.0467284768211921	-0.35994701986755	2.80741721854305	2.10649006622517	1.47973509933775				0.512529801324503	-0.592529801324503	-0.613721854304636	1.08291390728477	3.8235761589404	4.70437086092715				0.980026490066225	-0.0445033112582781	-0.0420662251655629	1.3517880794702	4.81192052980133	5.54251655629139				0.511788079470199	-0.142834437086093	-0.788238410596027	15.4203973509934	-4.60238410596027	-8.03470198675497			
95	2260	0.967841059602649	0.00275496688741723	-0.119523178807947	4.51337748344371	2.3753642384106	0.215099337748344				1.02495364238411	0.0957880794701987	-0.0668609271523178	0.713907284768212	1.14781456953642	2.77403973509934				0.917827814569536	0.0307284768211921	-0.34394701986755	7.00741721854305	3.22649006622517	1.19973509933775				0.512529801324503	-0.576529801324503	-0.629721854304636	-2.83708609271523	1.8635761589404	8.06437086092715				0.980026490066225	-0.0445033112582781	-0.0260662251655629	0.231788079470198	5.37192052980133	4.70251655629139				0.495788079470199	-0.126834437086093	-0.804238410596027	3.10039735099338	-1.52238410596026	-0.754701986754968			
96	2280	0.967841059602649	0.00275496688741723	-0.119523178807947	0.873377483443709	2.9353642384106	-0.624900662251656				1.00895364238411	0.0957880794701987	-0.114860927152318	-2.92609271523179	-1.09218543046358	1.93403973509934				0.917827814569536	0.0307284768211921	-0.32794701986755	3.08741721854305	5.74649006622517	2.59973509933775				0.496529801324503	-0.576529801324503	-0.645721854304636	-1.99708609271523	-0.0964238410596001	11.7043708609272				0.996026490066225	-0.0445033112582781	-0.0420662251655629	-2.8482119205298	2.85192052980133	3.86251655629139				0.511788079470199	-0.0788344370860927	-0.820238410596026	-4.45960264900662	0.157615894039735	4.84529801324503			
97	2300	0.951841059602649	0.0347549668874172	-0.135523178807947	-0.806622516556291	5.1753642384106	-1.18490066225166				0.976953642384106	0.0797880794701987	-0.0668609271523178	-9.36609271523179	3.10781456953642	1.65403973509934				0.901827814569536	0.0147284768211921	-0.32794701986755	-0.272582781456954	6.86649006622517	1.75973509933775				0.512529801324503	-0.592529801324503	-0.645721854304636	-4.51708609271523	-0.9364238410596	13.3843708609272				0.980026490066225	-0.0445033112582781	-0.0260662251655629	-2.8482119205298	3.41192052980132	3.86251655629139				0.527788079470199	-0.0628344370860927	-0.820238410596026	1.42039735099338	-0.962384105960265	5.68529801324503			
98	2320	0.935841059602649	0.0347549668874172	-0.135523178807947	1.43337748344371	7.1353642384106	-0.344900662251656				0.960953642384106	0.0477880794701987	-0.00286092715231785	-11.6060927152318	-0.532185430463576	2.77403973509934				0.885827814569536	0.0147284768211921	-0.27994701986755	-2.51258278145695	5.74649006622517	1.47973509933775				0.512529801324503	-0.576529801324503	-0.629721854304636	-7.59708609271523	1.5835761589404	13.6643708609272				0.996026490066225	-0.0445033112582781	-0.0420662251655629	-4.2482119205298	2.01192052980133	3.02251655629139				0.511788079470199	-0.110834437086093	-0.804238410596027	8.42039735099338	-4.32238410596027	9.88529801324503			
99	2340	0.967841059602649	0.00275496688741723	-0.135523178807947	1.15337748344371	7.1353642384106	-0.904900662251656				0.960953642384106	0.0797880794701987	-0.0828609271523179	-10.2060927152318	-1.37218543046358	3.61403973509934				0.901827814569536	-0.00127152317880793	-0.27994701986755	-4.75258278145695	4.34649006622517	0.91973509933775				0.464529801324503	-0.528529801324503	-0.581721854304636	-10.9570860927152	5.2235761589404	11.7043708609272				0.980026490066225	-0.0605033112582781	-0.0260662251655629	-2.0082119205298	-1.06807947019868	2.74251655629139				0.511788079470199	-0.110834437086093	-0.788238410596027	2.54039735099338	-3.76238410596027	14.645298013245			
100	2360	0.967841059602649	0.00275496688741723	-0.103523178807947	-3.88662251655629	3.7753642384106	-1.46490066225166				0.992953642384106	0.0797880794701987	-0.0668609271523178	-11.3260927152318	7.30781456953642	2.77403973509934				0.933827814569536	0.0147284768211921	-0.27994701986755	-6.99258278145695	4.90649006622517	1.19973509933775				0.448529801324503	-0.512529801324503	-0.581721854304636	-7.87708609271523	6.9035761589404	10.3043708609272				0.932026490066225	-0.0605033112582781	-0.0260662251655629	-7.0482119205298	-1.34807947019868	3.58251655629139				0.495788079470199	-0.126834437086093	-0.788238410596027	-7.53960264900662	-1.80238410596026	18.005298013245			
101	2380	0.935841059602649	0.0187549668874172	-0.119523178807947	-7.80662251655629	3.4953642384106	-0.344900662251656				0.960953642384106	0.0797880794701987	-0.0508609271523178	-10.7660927152318	3.66781456953642	4.73403973509934				0.917827814569536	0.0147284768211921	-0.31194701986755	-5.31258278145695	4.06649006622517	1.47973509933775				0.448529801324503	-0.496529801324503	-0.581721854304636	-5.35708609271523	8.0235761589404	10.5843708609272				0.948026490066225	-0.0605033112582781	-0.0260662251655629	-8.4482119205298	-0.508079470198675	3.86251655629139				0.511788079470199	-0.0628344370860927	-0.772238410596026	-9.21960264900662	0.157615894039735	19.125298013245			
102	2400	0.951841059602649	0.0187549668874172	-0.119523178807947	-7.52662251655629	7.6953642384106	-0.344900662251656				0.960953642384106	0.0637880794701987	-0.0508609271523178	-11.3260927152318	3.38781456953642	4.45403973509934				0.901827814569536	-0.00127152317880793	-0.31194701986755	-6.15258278145695	5.18649006622517	1.75973509933775				0.464529801324503	-0.512529801324503	-0.581721854304636	-3.67708609271523	8.3035761589404	10.8643708609272				0.932026490066225	-0.0605033112582781	-0.0100662251655629	-10.1282119205298	2.01192052980133	4.42251655629139				0.511788079470199	-0.0628344370860927	-0.772238410596026	-3.61960264900662	0.997615894039735	20.525298013245			
103	2420	0.967841059602649	0.0347549668874172	-0.103523178807947	-8.92662251655629	7.9753642384106	-0.344900662251656				0.976953642384106	0.0477880794701987	-0.0348609271523178	-12.7260927152318	1.98781456953642	3.33403973509934				0.901827814569536	0.0147284768211921	-0.29594701986755	-7.83258278145695	4.62649006622517	2.59973509933775				0.480529801324503	-0.560529801324503	-0.597721854304636	-4.51708609271523	9.7035761589404	9.46437086092715				0.948026490066225	-0.0605033112582781	-0.0100662251655629	-12.9282119205298	2.85192052980133	4.98251655629139				0.527788079470199	-0.0788344370860927	-0.788238410596027	-1.65960264900662	3.23761589403974	21.085298013245			
104	2440	0.967841059602649	0.0347549668874172	-0.119523178807947	-11.4466225165563	4.0553642384106	-1.46490066225166				0.992953642384106	0.0957880794701987	-0.0348609271523178	-13.2860927152318	4.50781456953642	1.65403973509934				0.901827814569536	0.0147284768211921	-0.31194701986755	-10.352582781457	4.06649006622517	3.43973509933775				0.512529801324503	-0.560529801324503	-0.581721854304636	-3.39708609271523	13.0635761589404	8.06437086092715				0.964026490066225	-0.0605033112582781	-0.0100662251655629	-14.3282119205298	3.41192052980132	4.70251655629139				0.511788079470199	-0.0788344370860927	-0.788238410596027	-1.65960264900662	5.19761589403974	18.285298013245			
105	2460	0.951841059602649	0.0187549668874172	-0.135523178807947	-6.68662251655629	2.9353642384106	-1.18490066225166				0.992953642384106	0.0477880794701987	-0.00286092715231785	-13.5660927152318	5.06781456953642	4.45403973509934				0.917827814569536	0.0147284768211921	-0.32794701986755	-10.072582781457	2.10649006622517	2.59973509933775				0.512529801324503	-0.544529801324503	-0.581721854304636	-1.71708609271523	14.4635761589404	7.78437086092715				0.948026490066225	-0.0445033112582781	-0.0100662251655629	-16.2882119205298	1.45192052980132	3.30251655629139				0.495788079470199	-0.0628344370860927	-0.788238410596027	-4.73960264900662	6.03761589403974	17.445298013245			
106	2480	0.951841059602649	0.00275496688741723	-0.119523178807947	-6.12662251655629	3.7753642384106	-1.46490066225166				0.960953642384106	0.0637880794701987	-0.0188609271523178	-14.9660927152318	3.94781456953642	3.33403973509934				0.917827814569536	0.0307284768211921	-0.32794701986755	-9.79258278145695	1.82649006622517	2.59973509933775				0.512529801324503	-0.528529801324503	-0.581721854304636	-3.11708609271523	15.0235761589404	7.50437086092715				0.932026490066225	-0.0445033112582781	0.00593377483443711	-15.4482119205298	1.45192052980132	3.86251655629139				0.495788079470199	-0.0628344370860927	-0.804238410596027	-4.17960264900662	6.03761589403974	16.325298013245			
107	2500	0.967841059602649	0.00275496688741723	-0.103523178807947	-4.72662251655629	3.7753642384106	-0.624900662251656				0.976953642384106	0.0637880794701987	-0.00286092715231785	-12.4460927152318	1.98781456953642	2.21403973509934				0.917827814569536	0.0307284768211921	-0.31194701986755	-8.67258278145695	1.26649006622517	1.47973509933775				0.512529801324503	-0.528529801324503	-0.581721854304636	-3.11708609271523	14.4635761589404	7.78437086092715				0.932026490066225	-0.0605033112582781	0.00593377483443711	-13.7682119205298	4.25192052980133	3.30251655629139				0.479788079470199	-0.0628344370860927	-0.788238410596027	-2.77960264900662	5.47761589403974	14.645298013245			
108	2520	0.983841059602649	0.0187549668874172	-0.087523178807947	-5.56662251655629	3.2153642384106	-0.624900662251656				1.00895364238411	0.0637880794701987	-0.0348609271523178	-11.0460927152318	1.14781456953642	1.93403973509934				0.901827814569536	0.0307284768211921	-0.32794701986755	-7.83258278145695	1.82649006622517	1.75973509933775				0.544529801324503	-0.560529801324503	-0.581721854304636	-6.47708609271523	10.2635761589404	4.98437086092715				0.932026490066225	-0.0605033112582781	-0.0100662251655629	-14.3282119205298	6.77192052980133	2.46251655629139				0.495788079470199	-0.0628344370860927	-0.804238410596027	-1.37960264900662	5.47761589403974	12.685298013245			
109	2540	0.983841059602649	0.0187549668874172	-0.103523178807947	-10.6066225165563	3.2153642384106	-0.904900662251656				1.00895364238411	0.0637880794701987	-0.00286092715231785	-14.4060927152318	3.94781456953642	1.93403973509934				0.917827814569536	0.0307284768211921	-0.31194701986755	-8.11258278145695	2.38649006622517	2.03973509933775				0.560529801324503	-0.544529801324503	-0.581721854304636	-8.15708609271523	7.4635761589404	2.46437086092715				0.980026490066225	-0.0605033112582781	-0.0100662251655629	-12.6482119205298	9.01192052980133	2.18251655629139				0.511788079470199	-0.0788344370860927	-0.804238410596027	1.70039735099338	5.47761589403974	9.88529801324503			
110	2560	0.967841059602649	0.0667549668874172	-0.103523178807947	-12.0066225165563	0.975364238410596	-1.74490066225166				0.944953642384106	0.111788079470199	-0.0348609271523178	-13.0060927152318	1.14781456953642	1.65403973509934				0.901827814569536	0.0147284768211921	-0.32794701986755	-7.55258278145695	0.426490066225167	1.19973509933775				0.560529801324503	-0.544529801324503	-0.565721854304636	-6.47708609271523	6.6235761589404	1.62437086092715				0.980026490066225	-0.0445033112582781	0.00593377483443711	-10.6882119205298	9.85192052980133	1.62251655629139				0.511788079470199	-0.0788344370860927	-0.804238410596027	1.70039735099338	5.19761589403974	7.92529801324503			
111	2580	0.951841059602649	0.0827549668874172	-0.055523178807947	-7.24662251655629	2.3753642384106	-0.904900662251656				0.960953642384106	0.0957880794701987	-0.0508609271523178	-7.68609271523179	4.50781456953642	2.77403973509934				0.901827814569536	0.0467284768211921	-0.31194701986755	-6.99258278145695	0.986490066225167	1.19973509933775				0.560529801324503	-0.512529801324503	-0.549721854304636	-4.51708609271523	7.4635761589404	1.06437086092715				0.964026490066225	-0.0285033112582781	0.00593377483443711	-9.5682119205298	7.33192052980133	1.62251655629139				0.511788079470199	-0.0628344370860927	-0.804238410596027	3.10039735099338	5.19761589403974	7.08529801324503			
112	2600	0.983841059602649	0.0507549668874172	-0.071523178807947	-3.32662251655629	2.0953642384106	-0.904900662251656				1.00895364238411	0.111788079470199	-0.0668609271523178	-6.00609271523179	2.26781456953642	3.33403973509934				0.901827814569536	0.0467284768211921	-0.32794701986755	-3.91258278145695	2.66649006622517	0.63973509933775				0.560529801324503	-0.512529801324503	-0.565721854304636	-1.43708609271523	7.7435761589404	3.30437086092715				0.948026490066225	-0.0445033112582781	0.0219337748344371	-5.3682119205298	5.93192052980133	1.90251655629139				0.495788079470199	-0.0788344370860927	-0.804238410596027	2.26039735099338	3.51761589403974	4.28529801324503			
113	2620	0.983841059602649	0.0507549668874172	-0.087523178807947	-5.00662251655629	0.975364238410596	-1.74490066225166				0.992953642384106	0.111788079470199	-0.0188609271523178	-5.72609271523179	6.18781456953642	1.93403973509934				0.901827814569536	0.0627284768211921	-0.31194701986755	-4.47258278145695	3.22649006622517	0.91973509933775				0.576529801324503	-0.528529801324503	-0.581721854304636	1.64291390728477	6.3435761589404	3.58437086092715				0.980026490066225	-0.0445033112582781	0.00593377483443711	-3.1282119205298	4.53192052980133	1.34251655629139				0.495788079470199	-0.0788344370860927	-0.804238410596027	3.66039735099338	2.67761589403974	1.76529801324503			
114	2640	0.951841059602649	0.0187549668874172	-0.071523178807947	-2.20662251655629	1.2553642384106	-1.46490066225166				0.976953642384106	0.0637880794701987	-0.00286092715231785	-5.72609271523179	7.86781456953642	2.49403973509934				0.917827814569536	0.0467284768211921	-0.34394701986755	-1.11258278145695	2.94649006622517	0.91973509933775				0.592529801324503	-0.544529801324503	-0.581721854304636	-1.15708609271523	3.8235761589404	1.06437086092715				0.980026490066225	-0.0285033112582781	-0.0100662251655629	-2.8482119205298	4.53192052980133	1.34251655629139				0.495788079470199	-0.0948344370860927	-0.820238410596026	4.78039735099338	1.83761589403974	0.645298013245032			
115	2660	0.967841059602649	0.0347549668874172	-0.087523178807947	2.83337748344371	1.8153642384106	-1.18490066225166				0.960953642384106	0.0957880794701987	-0.00286092715231785	-0.966092715231788	5.90781456953642	2.49403973509934				0.917827814569536	0.0627284768211921	-0.32794701986755	-0.272582781456954	1.82649006622517	0.63973509933775				0.576529801324503	-0.528529801324503	-0.565721854304636	-2.83708609271523	0.7435761589404	-3.97562913907285				0.980026490066225	-0.0445033112582781	0.00593377483443711	0.511788079470198	5.65192052980133	1.06251655629139				0.495788079470199	-0.110834437086093	-0.804238410596027	6.74039735099338	0.997615894039735	0.925298013245032			
116	2680	0.983841059602649	0.0347549668874172	-0.103523178807947	0.0333774834437086	1.5353642384106	-0.624900662251656				0.976953642384106	0.111788079470199	-0.0508609271523178	2.39390728476821	1.98781456953642	3.33403973509934				0.917827814569536	0.0467284768211921	-0.32794701986755	1.96741721854305	2.38649006622517	-1.04026490066225				0.544529801324503	-0.512529801324503	-0.549721854304636	-1.43708609271523	-0.0964238410596001	-5.93562913907285				0.964026490066225	-0.0445033112582781	0.0219337748344371	4.1517880794702	4.25192052980133	0.502516556291392				0.495788079470199	-0.110834437086093	-0.772238410596026	4.50039735099338	1.55761589403974	1.76529801324503			
117	2700	0.967841059602649	0.0507549668874172	-0.103523178807947	-2.48662251655629	-0.704635761589404	-0.904900662251656				0.976953642384106	0.111788079470199	-0.0348609271523178	3.51390728476821	5.34781456953642	3.05403973509934				0.901827814569536	0.0467284768211921	-0.32794701986755	4.20741721854305	1.54649006622517	-1.60026490066225				0.528529801324503	-0.528529801324503	-0.549721854304636	2.48291390728477	1.3035761589404	-5.93562913907285				0.948026490066225	-0.0605033112582781	0.0219337748344371	4.1517880794702	1.73192052980133	0.502516556291392				0.495788079470199	-0.0948344370860927	-0.788238410596027	3.10039735099338	2.95761589403974	2.04529801324503			
118	2720	0.967841059602649	0.0507549668874172	-0.071523178807947	1.71337748344371	0.695364238410596	0.775099337748344				0.960953642384106	0.0637880794701987	-0.00286092715231785	3.51390728476821	7.86781456953642	1.93403973509934				0.901827814569536	0.0467284768211921	-0.34394701986755	7.84741721854305	0.986490066225167	-1.32026490066225				0.528529801324503	-0.544529801324503	-0.581721854304636	3.60291390728477	2.7035761589404	-4.53562913907285				0.948026490066225	-0.0445033112582781	0.0219337748344371	3.5917880794702	2.01192052980133	0.222516556291392				0.511788079470199	-0.110834437086093	-0.772238410596026	4.50039735099338	4.07761589403974	1.20529801324503			
119	2740	0.967841059602649	0.0507549668874172	-0.087523178807947	5.91337748344371	0.695364238410596	-0.0649006622516557				0.976953642384106	0.0477880794701987	-0.00286092715231785	6.87390728476821	8.98781456953643	1.65403973509934				0.901827814569536	0.0467284768211921	-0.32794701986755	7.56741721854305	0.706490066225167	-1.04026490066225				0.528529801324503	-0.544529801324503	-0.565721854304636	0.522913907284768	2.9835761589404	-4.53562913907285				0.948026490066225	-0.0605033112582781	0.0219337748344371	6.1117880794702	4.81192052980133	-0.617483443708608				0.511788079470199	-0.126834437086093	-0.788238410596027	6.18039735099338	3.23761589403974	0.645298013245032			
120	2760	0.967841059602649	0.0347549668874172	-0.087523178807947	3.95337748344371	-1.2646357615894	-0.624900662251656				0.992953642384106	0.0797880794701987	-0.0188609271523178	9.67390728476821	5.62781456953642	0.53403973509934				0.917827814569536	0.0147284768211921	-0.31194701986755	5.60741721854305	0.986490066225167	-0.20026490066225				0.544529801324503	-0.528529801324503	-0.565721854304636	-0.317086092715232	5.2235761589404	-4.81562913907285				0.948026490066225	-0.0605033112582781	0.0219337748344371	4.4317880794702	6.21192052980133	-1.17748344370861				0.527788079470199	-0.126834437086093	-0.788238410596027	5.34039735099338	2.67761589403974	0.645298013245032			
121	2780	0.951841059602649	0.0187549668874172	-0.119523178807947	3.67337748344371	-2.1046357615894	-0.904900662251656				0.992953642384106	0.0637880794701987	-0.0188609271523178	11.0739072847682	4.78781456953642	1.37403973509934				0.917827814569536	0.0147284768211921	-0.31194701986755	7.56741721854305	0.146490066225167	-0.76026490066225				0.544529801324503	-0.512529801324503	-0.565721854304636	1.36291390728477	4.9435761589404	-3.41562913907285				0.964026490066225	-0.0765033112582781	0.00593377483443711	5.5517880794702	5.65192052980133	-0.617483443708608				0.527788079470199	-0.0948344370860927	-0.788238410596027	5.90039735099338	3.23761589403974	-1.59470198675497			
122	2800	0.951841059602649	0.0187549668874172	-0.119523178807947	3.67337748344371	-2.1046357615894	-0.344900662251656				0.992953642384106	0.0637880794701987	-0.00286092715231785	4.35390728476821	5.90781456953642	-0.0259602649006601				0.917827814569536	0.0147284768211921	-0.29594701986755	7.56741721854305	-0.973509933774833	-0.76026490066225				0.560529801324503	-0.512529801324503	-0.565721854304636	2.76291390728477	1.5835761589404	-4.53562913907285				0.964026490066225	-0.0605033112582781	0.0219337748344371	5.8317880794702	3.41192052980132	-0.617483443708608				0.527788079470199	-0.110834437086093	-0.772238410596026	7.02039735099338	3.79761589403974	-4.67470198675497			
123	2820	0.951841059602649	0.0187549668874172	-0.119523178807947	1.43337748344371	0.695364238410596	0.215099337748344				0.976953642384106	0.0637880794701987	-0.00286092715231785	-1.24609271523179	8.14781456953643	-1.14596026490066				0.901827814569536	0.0307284768211921	-0.29594701986755	6.16741721854305	0.426490066225167	-0.76026490066225				0.560529801324503	-0.544529801324503	-0.581721854304636	2.76291390728477	-0.0964238410596001	-6.49562913907285				0.964026490066225	-0.0765033112582781	0.0539337748344371	5.8317880794702	4.25192052980133	-0.337483443708608				0.527788079470199	-0.126834437086093	-0.788238410596027	8.70039735099338	1.83761589403974	-6.35470198675497			
124	2840	0.967841059602649	0.0187549668874172	-0.135523178807947	0.0333774834437086	0.695364238410596	-0.904900662251656				0.976953642384106	0.0637880794701987	0.0131390728476822	1.55390728476821	6.74781456953642	-1.14596026490066				0.917827814569536	0.0307284768211921	-0.29594701986755	1.12741721854305	-0.693509933774834	-0.20026490066225				0.544529801324503	-0.560529801324503	-0.581721854304636	3.04291390728477	0.7435761589404	-5.93562913907285				0.980026490066225	-0.0605033112582781	0.00593377483443711	6.6717880794702	2.01192052980133	-1.17748344370861				0.543788079470199	-0.126834437086093	-0.788238410596027	6.46039735099338	-0.402384105960265	-7.75470198675497			
125	2860	0.967841059602649	0.0347549668874172	-0.135523178807947	-3.32662251655629	-0.984635761589404	-1.46490066225166				1.00895364238411	0.0797880794701987	-0.0188609271523178	4.35390728476821	2.54781456953642	0.53403973509934				0.917827814569536	0.0147284768211921	-0.31194701986755	2.80741721854305	0.706490066225167	-0.20026490066225				0.544529801324503	-0.560529801324503	-0.565721854304636	3.04291390728477	-1.4964238410596	-5.65562913907285				0.964026490066225	-0.0445033112582781	0.0539337748344371	0.231788079470198	5.37192052980133	-3.97748344370861				0.543788079470199	-0.126834437086093	-0.788238410596027	5.06039735099338	-0.682384105960265	-7.19470198675497			
126	2880	0.967841059602649	0.0507549668874172	-0.135523178807947	-2.20662251655629	-1.8246357615894	-1.18490066225166				1.00895364238411	0.0477880794701987	0.0131390728476822	0.433907284768212	0.307814569536424	0.53403973509934				0.917827814569536	0.0147284768211921	-0.31194701986755	4.48741721854305	-0.413509933774833	0.0797350993377501				0.544529801324503	-0.512529801324503	-0.597721854304636	4.16291390728477	-1.7764238410596	-4.81562913907285				0.964026490066225	-0.0445033112582781	0.0219337748344371	1.6317880794702	4.25192052980133	-3.13748344370861				0.543788079470199	-0.126834437086093	-0.772238410596026	5.90039735099338	-1.24238410596026	-7.47470198675497			
127	2900	0.951841059602649	0.0347549668874172	-0.119523178807947	0.593377483443709	-1.2646357615894	0.495099337748344				0.960953642384106	0.0637880794701987	0.0131390728476822	-0.126092715231788	3.66781456953642	-1.14596026490066				0.901827814569536	0.0147284768211921	-0.32794701986755	3.92741721854305	0.706490066225167	0.35973509933775				0.544529801324503	-0.528529801324503	-0.581721854304636	0.802913907284768	-0.9364238410596	-3.97562913907285				0.980026490066225	-0.0605033112582781	0.0219337748344371	4.7117880794702	3.41192052980132	-2.85748344370861				0.527788079470199	-0.126834437086093	-0.772238410596026	6.46039735099338	-0.402384105960265	-7.47470198675497			
128	2920	0.967841059602649	0.0187549668874172	-0.087523178807947	0.873377483443709	-0.984635761589404	-0.0649006622516557				0.976953642384106	0.0797880794701987	-0.0188609271523178	0.713907284768212	5.34781456953642	-0.30596026490066				0.901827814569536	0.0147284768211921	-0.32794701986755	-0.272582781456954	-0.413509933774833	0.0797350993377501				0.528529801324503	-0.512529801324503	-0.549721854304636	-1.99708609271523	-2.8964238410596	-3.69562913907285				0.948026490066225	-0.0445033112582781	0.0379337748344371	4.9917880794702	3.41192052980132	-3.13748344370861				0.543788079470199	-0.126834437086093	-0.772238410596026	3.38039735099338	0.997615894039735	-6.63470198675497			
129	2940	0.983841059602649	0.0187549668874172	-0.119523178807947	-0.246622516556291	-1.2646357615894	-0.624900662251656				0.992953642384106	0.111788079470199	0.0131390728476822	1.55390728476821	4.22781456953642	-0.585960264900661				0.917827814569536	0.0307284768211921	-0.32794701986755	-1.39258278145695	-0.693509933774834	-0.76026490066225				0.544529801324503	-0.512529801324503	-0.565721854304636	2.48291390728477	-2.3364238410596	-4.25562913907285				0.964026490066225	-0.0445033112582781	0.0219337748344371	3.3117880794702	2.01192052980133	-3.13748344370861				0.527788079470199	-0.126834437086093	-0.772238410596026	2.82039735099338	0.717615894039735	-7.47470198675497			
130	2960	0.967841059602649	0.0347549668874172	-0.103523178807947	-2.20662251655629	-1.2646357615894	-0.624900662251656				0.992953642384106	0.0637880794701987	0.0131390728476822	2.67390728476821	3.10781456953642	1.65403973509934				0.901827814569536	0.0307284768211921	-0.34394701986755	1.40741721854305	-0.693509933774834	-0.20026490066225				0.496529801324503	-0.448529801324503	-0.661721854304636	-4.79708609271523	-5.1364238410596	0.224370860927152				0.964026490066225	-0.0285033112582781	0.0379337748344371	2.1917880794702	2.29192052980133	-3.41748344370861				0.543788079470199	-0.110834437086093	-0.772238410596026	1.98039735099338	1.55761589403974	-7.47470198675497			
131	2980	0.951841059602649	0.0347549668874172	-0.103523178807947	-1.08662251655629	-0.984635761589404	-0.344900662251656				0.976953642384106	0.0637880794701987	0.0131390728476822	1.55390728476821	5.62781456953642	0.53403973509934				0.901827814569536	0.0307284768211921	-0.34394701986755	8.40741721854305	-0.413509933774833	-0.48026490066225				0.576529801324503	-0.528529801324503	-0.581721854304636	0.802913907284768	1.8635761589404	-2.85562913907285				0.948026490066225	-0.0445033112582781	0.0379337748344371	5.5517880794702	0.611920529801325	-2.85748344370861				0.527788079470199	-0.110834437086093	-0.788238410596027	0.300397350993377	0.997615894039735	-6.07470198675497			
132	3120	0	0	0	0	0	0				0	0	0	0	0	0				0	0	0	0	0	0				0.528529801324503	-0.496529801324503	-0.565721854304636	5.28291390728477	1.8635761589404	-4.81562913907285				0.948026490066225	-0.0445033112582781	0.0219337748344371	1.6317880794702	1.45192052980132	-3.69748344370861				0.511788079470199	-0.110834437086093	-0.772238410596026	5.62039735099338	-6.28238410596027	-1.31470198675497			
133	3140	0	0	0	0	0	0				0	0	0	0	0	0				0	0	0	0	0	0				0.544529801324503	-0.496529801324503	-0.549721854304636	2.76291390728477	3.5435761589404	-5.65562913907285				0.948026490066225	-0.0445033112582781	0.0379337748344371	2.4717880794702	2.57192052980133	-3.13748344370861				0.527788079470199	-0.110834437086093	-0.788238410596027	3.10039735099338	-6.28238410596027	-1.87470198675497			
134	3160	0.951841059602649	0.0187549668874172	-0.119523178807947	-3.60662251655629	-6.5846357615894	-1.74490066225166				0.976953642384106	0.0957880794701987	0.0131390728476822	0.713907284768212	1.98781456953642	-1.14596026490066				0.901827814569536	0.0147284768211921	-0.29594701986755	-0.552582781456954	-5.45350993377483	-2.16026490066225				0.560529801324503	-0.528529801324503	-0.549721854304636	2.48291390728477	2.7035761589404	-5.09562913907285				0.948026490066225	-0.0445033112582781	0.0539337748344371	1.6317880794702	2.85192052980133	-2.57748344370861				0.543788079470199	-0.0948344370860927	-0.788238410596027	3.38039735099338	-4.88238410596027	-5.23470198675497			
135	3180	0.967841059602649	0.0187549668874172	-0.103523178807947	-1.08662251655629	-7.1446357615894	-1.74490066225166				0.976953642384106	0.0797880794701987	0.0291390728476822	-1.24609271523179	1.42781456953642	-1.14596026490066				0.901827814569536	0.0307284768211921	-0.32794701986755	1.12741721854305	-5.73350993377484	-1.60026490066225				0.560529801324503	-0.528529801324503	-0.581721854304636	3.88291390728477	2.9835761589404	-4.53562913907285				0.964026490066225	-0.0125033112582781	0.0379337748344371	-0.0482119205298018	2.57192052980133	-1.73748344370861				0.527788079470199	-0.110834437086093	-0.804238410596027	5.34039735099338	-4.04238410596027	-6.63470198675497			
136	3200	0.967841059602649	0.0187549668874172	-0.119523178807947	-0.806622516556291	-7.7046357615894	-2.58490066225166				0.992953642384106	0.0797880794701987	0.0291390728476822	0.153907284768212	3.94781456953642	-1.14596026490066				0.901827814569536	0.0307284768211921	-0.34394701986755	0.287417218543046	-7.41350993377483	-1.32026490066225				0.560529801324503	-0.528529801324503	-0.565721854304636	4.16291390728477	2.9835761589404	-4.81562913907285				0.964026490066225	-0.0605033112582781	0.0219337748344371	3.0317880794702	2.57192052980133	-2.29748344370861				0.511788079470199	-0.126834437086093	-0.788238410596027	4.22039735099338	-4.60238410596027	-7.19470198675497			
137	3220	0.967841059602649	0.0347549668874172	-0.135523178807947	-1.64662251655629	-8.26463576158941	-3.14490066225166				1.00895364238411	0.0797880794701987	0.0131390728476822	3.79390728476821	0.867814569536424	0.25403973509934				0.901827814569536	0.0307284768211921	-0.35994701986755	2.52741721854305	-7.41350993377483	-2.16026490066225				0.544529801324503	-0.512529801324503	-0.565721854304636	8.08291390728477	4.1035761589404	-5.37562913907285				0.948026490066225	-0.0445033112582781	0.0539337748344371	2.1917880794702	2.29192052980133	-2.85748344370861				0.495788079470199	-0.110834437086093	-0.772238410596026	1.98039735099338	-3.48238410596027	-8.31470198675497			
138	3240	0.951841059602649	0.0507549668874172	-0.151523178807947	-5.00662251655629	-9.1046357615894	-3.14490066225166				0.976953642384106	0.111788079470199	-0.00286092715231785	6.31390728476821	-1.09218543046358	0.53403973509934				0.901827814569536	0.0307284768211921	-0.35994701986755	3.08741721854305	-6.57350993377483	-3.56026490066225				0.544529801324503	-0.512529801324503	-0.565721854304636	6.96291390728477	5.2235761589404	-4.53562913907285				0.964026490066225	-0.0445033112582781	0.0379337748344371	1.3517880794702	1.73192052980133	-1.17748344370861				0.527788079470199	-0.110834437086093	-0.772238410596026	0.0203973509933773	-2.64238410596027	-9.71470198675497			
139	3260	0.951841059602649	0.0187549668874172	-0.151523178807947	-1.36662251655629	-8.26463576158941	-2.86490066225166				0.960953642384106	0.0797880794701987	-0.0188609271523178	4.91390728476821	0.0278145695364242	-0.0259602649006601				0.885827814569536	0.0467284768211921	-0.35994701986755	4.76741721854305	-5.45350993377483	-3.28026490066225				0.560529801324503	-0.528529801324503	-0.565721854304636	2.76291390728477	4.3835761589404	-4.25562913907285				0.964026490066225	-0.0285033112582781	0.0379337748344371	1.3517880794702	2.29192052980133	-2.01748344370861				0.511788079470199	-0.110834437086093	-0.788238410596027	1.98039735099338	-1.80238410596026	-9.15470198675497			
140	3280	0.967841059602649	0.0187549668874172	-0.135523178807947	2.27337748344371	-8.26463576158941	-2.58490066225166				1.00895364238411	0.0637880794701987	0.0131390728476822	4.07390728476821	2.26781456953642	-0.86596026490066				0.885827814569536	0.0147284768211921	-0.35994701986755	5.88741721854305	-6.01350993377483	-4.68026490066225				0.576529801324503	-0.528529801324503	-0.581721854304636	2.20291390728477	-0.0964238410596001	-3.69562913907285				0.964026490066225	-0.0285033112582781	0.0379337748344371	1.3517880794702	1.73192052980133	-2.29748344370861				0.527788079470199	-0.126834437086093	-0.788238410596027	3.10039735099338	-1.80238410596026	-8.31470198675497			
141	3300	0.951841059602649	0.0187549668874172	-0.151523178807947	0.0333774834437086	-7.4246357615894	-2.02490066225166				1.02495364238411	0.0637880794701987	-0.00286092715231785	4.91390728476821	-0.532185430463576	-1.14596026490066				0.901827814569536	0.0147284768211921	-0.37594701986755	6.72741721854305	-5.45350993377483	-3.28026490066225				0.576529801324503	-0.528529801324503	-0.581721854304636	1.36291390728477	-3.7364238410596	-3.69562913907285				0.980026490066225	-0.0445033112582781	0.0539337748344371	3.5917880794702	2.29192052980133	-1.45748344370861				0.511788079470199	-0.126834437086093	-0.804238410596027	0.580397350993377	-0.122384105960265	-8.03470198675497			
