No	Time	12-AccX	12-AccY	12-AccZ	12-GyroX	12-GyroY	12-GyroZ	13-AccX	13-AccY	13-AccZ	13-GyroX	13-GyroY	13-GyroZ	14-AccX	14-AccY	14-AccZ	14-GyroX	14-GyroY	14-GyroZ	15-AccX	15-AccY	15-AccZ	15-GyroX	15-GyroY	15-GyroZ	16-AccX	16-AccY	16-AccZ	16-GyroX	16-GyroY	16-GyroZ	17-AccX	17-AccY	17-AccZ	17-GyroX	17-GyroY	17-GyroZ
0	100	0	0	0	0	0	0				0	0	0	0	0	0				0	0	0	0	0	0				0.352529801324503	-0.0805298013245033	-0.901721854304636	1.08291390728477	-0.9364238410596	-2.01562913907285				0.932026490066225	0.131496688741722	0.213933774834437	3.0317880794702	0.0519205298013249	-0.0574834437086077				0.431788079470199	-0.238834437086093	-0.820238410596026	1.42039735099338	-0.962384105960265	-1.87470198675497			
1	120	-0.216158940397351	0.146754966887417	-0.919523178807947	0.593377483443709	0.415364238410596	-0.344900662251656				0.928953642384106	0.111788079470199	0.397139072847682	1.27390728476821	-1.37218543046358	0.81403973509934				-0.250172185430464	-0.0972715231788079	-0.87194701986755	0.567417218543046	0.706490066225167	-0.48026490066225				0.352529801324503	-0.0805298013245033	-0.885721854304636	1.36291390728477	0.1835761589404	-2.85562913907285				0.948026490066225	0.131496688741722	0.197933774834437	2.1917880794702	0.0519205298013249	-0.337483443708608				0.431788079470199	-0.238834437086093	-0.820238410596026	0.860397350993377	-1.24238410596026	-2.71470198675497			
2	140	-0.200158940397351	0.162754966887417	-0.935523178807947	-0.246622516556291	0.415364238410596	-1.46490066225166				0.912953642384106	0.111788079470199	0.397139072847682	0.993907284768212	-1.93218543046358	1.09403973509934				-0.250172185430464	-0.0812715231788079	-0.87194701986755	0.567417218543046	0.146490066225167	-0.48026490066225				0.368529801324503	-0.0805298013245033	-0.901721854304636	1.64291390728477	0.4635761589404	-1.45562913907285				0.948026490066225	0.147496688741722	0.197933774834437	2.4717880794702	0.891920529801325	-0.337483443708608				0.447788079470199	-0.238834437086093	-0.836238410596026	2.26039735099338	-1.24238410596026	-2.15470198675497			
3	160	-0.216158940397351	0.146754966887417	-0.919523178807947	0.0333774834437086	-0.144635761589404	-1.46490066225166				0.928953642384106	0.111788079470199	0.397139072847682	1.27390728476821	-3.05218543046358	-0.0259602649006601				-0.250172185430464	-0.0812715231788079	-0.87194701986755	0.567417218543046	-0.413509933774833	-0.48026490066225				0.368529801324503	-0.0805298013245033	-0.885721854304636	1.36291390728477	0.1835761589404	-1.73562913907285				0.948026490066225	0.131496688741722	0.197933774834437	2.1917880794702	0.331920529801325	0.502516556291392				0.431788079470199	-0.254834437086093	-0.820238410596026	2.26039735099338	-1.52238410596026	-0.754701986754968			
4	180	-0.216158940397351	0.146754966887417	-0.935523178807947	0.0333774834437086	-0.144635761589404	-2.02490066225166				0.928953642384106	0.127788079470199	0.397139072847682	1.27390728476821	-3.61218543046358	0.25403973509934				-0.250172185430464	-0.0812715231788079	-0.88794701986755	0.567417218543046	-0.133509933774833	-0.48026490066225				0.352529801324503	-0.0645298013245033	-0.885721854304636	0.802913907284768	-0.3764238410596	-0.615629139072848				0.932026490066225	0.131496688741722	0.197933774834437	2.4717880794702	-0.508079470198675	0.782516556291392				0.431788079470199	-0.254834437086093	-0.820238410596026	0.860397350993377	-0.402384105960265	-0.754701986754968			
5	200	-0.216158940397351	0.130754966887417	-0.935523178807947	-0.246622516556291	0.135364238410596	-0.624900662251656				0.928953642384106	0.127788079470199	0.381139072847682	-0.126092715231788	-3.33218543046358	-0.30596026490066				-0.266172185430464	-0.0812715231788079	-0.87194701986755	0.00741721854304636	0.146490066225167	-0.76026490066225				0.352529801324503	-0.0645298013245033	-0.885721854304636	1.08291390728477	-0.9364238410596	-1.17562913907285				0.948026490066225	0.147496688741722	0.229933774834437	2.4717880794702	1.73192052980133	-0.0574834437086077				0.415788079470199	-0.238834437086093	-0.820238410596026	0.300397350993377	-0.962384105960265	-0.754701986754968			
6	220	-0.216158940397351	0.146754966887417	-0.935523178807947	0.313377483443709	-0.144635761589404	-1.46490066225166				0.928953642384106	0.127788079470199	0.381139072847682	1.55390728476821	-2.49218543046358	-0.30596026490066				-0.266172185430464	-0.0812715231788079	-0.87194701986755	1.12741721854305	-0.133509933774833	-0.48026490066225				0.352529801324503	-0.0805298013245033	-0.901721854304636	1.08291390728477	-1.2164238410596	-2.01562913907285				0.948026490066225	0.147496688741722	0.197933774834437	-0.328211920529802	-0.508079470198675	0.502516556291392				0.431788079470199	-0.222834437086093	-0.836238410596026	1.14039735099338	-1.52238410596026	-0.754701986754968			
7	240	-0.216158940397351	0.146754966887417	-0.935523178807947	-0.526622516556291	0.415364238410596	-0.624900662251656				0.928953642384106	0.111788079470199	0.381139072847682	1.55390728476821	-2.49218543046358	0.81403973509934				-0.266172185430464	-0.0812715231788079	-0.87194701986755	0.567417218543046	0.146490066225167	-0.20026490066225				0.352529801324503	-0.0965298013245033	-0.901721854304636	1.36291390728477	-0.9364238410596	-1.45562913907285				0.948026490066225	0.147496688741722	0.213933774834437	0.231788079470198	0.891920529801325	0.222516556291392				0.415788079470199	-0.238834437086093	-0.820238410596026	2.54039735099338	-0.682384105960265	-2.15470198675497			
8	260	-0.216158940397351	0.162754966887417	-0.935523178807947	0.0333774834437086	-0.144635761589404	-0.904900662251656				0.928953642384106	0.127788079470199	0.381139072847682	-0.406092715231788	-2.49218543046358	-0.0259602649006601				-0.266172185430464	-0.0812715231788079	-0.88794701986755	0.847417218543046	0.146490066225167	-0.20026490066225				0.352529801324503	-0.0805298013245033	-0.901721854304636	1.08291390728477	0.4635761589404	-0.615629139072848				0.932026490066225	0.147496688741722	0.197933774834437	-0.608211920529802	1.73192052980133	-0.897483443708608				0.399788079470199	-0.238834437086093	-0.804238410596027	0.860397350993377	-0.122384105960265	-1.59470198675497			
9	280	-0.216158940397351	0.146754966887417	-0.935523178807947	0.593377483443709	-0.144635761589404	-1.18490066225166				0.944953642384106	0.127788079470199	0.397139072847682	-0.686092715231788	-3.89218543046358	-0.0259602649006601				-0.266172185430464	-0.0812715231788079	-0.87194701986755	0.847417218543046	0.706490066225167	0.0797350993377501				0.352529801324503	-0.0805298013245033	-0.901721854304636	0.522913907284768	-0.3764238410596	-0.0556291390728476				0.948026490066225	0.131496688741722	0.197933774834437	1.0717880794702	0.331920529801325	-0.617483443708608				0.415788079470199	-0.222834437086093	-0.820238410596026	-0.539602649006623	0.717615894039735	-2.71470198675497			
10	300	-0.216158940397351	0.146754966887417	-0.935523178807947	0.313377483443709	0.695364238410596	-0.904900662251656				0.944953642384106	0.127788079470199	0.397139072847682	0.433907284768212	-6.13218543046358	-0.30596026490066				-0.266172185430464	-0.0812715231788079	-0.88794701986755	0.847417218543046	0.146490066225167	0.63973509933775				0.368529801324503	-0.0805298013245033	-0.901721854304636	-0.0370860927152318	-0.3764238410596	-0.895629139072848				0.964026490066225	0.131496688741722	0.197933774834437	1.9117880794702	-0.228079470198675	-0.617483443708608				0.415788079470199	-0.222834437086093	-0.836238410596026	0.0203973509933773	0.717615894039735	-2.43470198675497			
11	320	-0.200158940397351	0.146754966887417	-0.935523178807947	-0.246622516556291	0.135364238410596	-1.18490066225166				0.928953642384106	0.127788079470199	0.365139072847682	1.55390728476821	-5.57218543046358	0.81403973509934				-0.250172185430464	-0.0812715231788079	-0.88794701986755	0.287417218543046	0.426490066225167	-0.48026490066225				0.384529801324503	-0.0805298013245033	-0.901721854304636	1.36291390728477	-1.4964238410596	-1.17562913907285				0.964026490066225	0.131496688741722	0.197933774834437	1.6317880794702	0.0519205298013249	-0.0574834437086077				0.415788079470199	-0.238834437086093	-0.852238410596026	0.0203973509933773	0.157615894039735	-4.11470198675497			
12	340	-0.216158940397351	0.146754966887417	-0.919523178807947	-0.526622516556291	0.695364238410596	-0.904900662251656				0.928953642384106	0.111788079470199	0.381139072847682	2.67390728476821	-5.57218543046358	0.81403973509934				-0.250172185430464	-0.0812715231788079	-0.87194701986755	0.567417218543046	0.426490066225167	-0.20026490066225				0.352529801324503	-0.0805298013245033	-0.901721854304636	1.64291390728477	-0.9364238410596	-0.335629139072848				0.964026490066225	0.147496688741722	0.197933774834437	1.3517880794702	-0.788079470198675	0.502516556291392				0.415788079470199	-0.238834437086093	-0.836238410596026	1.42039735099338	-0.682384105960265	-3.83470198675497			
13	360	-0.216158940397351	0.162754966887417	-0.919523178807947	0.313377483443709	0.975364238410596	-1.46490066225166				0.928953642384106	0.111788079470199	0.381139072847682	2.67390728476821	-5.57218543046358	1.93403973509934				-0.266172185430464	-0.0812715231788079	-0.88794701986755	0.287417218543046	0.146490066225167	-0.76026490066225				0.352529801324503	-0.0965298013245033	-0.901721854304636	-0.317086092715232	-1.7764238410596	-0.0556291390728476				0.948026490066225	0.131496688741722	0.181933774834437	3.5917880794702	0.611920529801325	-0.337483443708608				0.415788079470199	-0.238834437086093	-0.836238410596026	-0.539602649006623	-0.962384105960265	-3.83470198675497			
14	380	-0.216158940397351	0.146754966887417	-0.935523178807947	0.0333774834437086	1.2553642384106	-0.624900662251656				0.944953642384106	0.127788079470199	0.381139072847682	2.67390728476821	-6.13218543046358	1.65403973509934				-0.266172185430464	-0.0812715231788079	-0.88794701986755	-0.272582781456954	0.706490066225167	0.0797350993377501				0.352529801324503	-0.0965298013245033	-0.901721854304636	-1.15708609271523	-3.1764238410596	-0.615629139072848				0.948026490066225	0.131496688741722	0.197933774834437	3.3117880794702	-0.228079470198675	-0.337483443708608				0.415788079470199	-0.238834437086093	-0.820238410596026	-0.259602649006623	-1.52238410596026	-2.99470198675497			
15	400	-0.200158940397351	0.162754966887417	-0.935523178807947	-0.246622516556291	0.695364238410596	-0.904900662251656				0.928953642384106	0.127788079470199	0.365139072847682	2.11390728476821	-5.01218543046358	0.81403973509934				-0.266172185430464	-0.0652715231788079	-0.88794701986755	-0.272582781456954	0.706490066225167	-0.20026490066225				0.352529801324503	-0.0805298013245033	-0.901721854304636	-1.71708609271523	-2.6164238410596	-0.615629139072848				0.948026490066225	0.131496688741722	0.197933774834437	3.3117880794702	0.0519205298013249	-0.337483443708608				0.415788079470199	-0.238834437086093	-0.820238410596026	-0.259602649006623	-1.24238410596026	-1.87470198675497			
16	420	-0.200158940397351	0.146754966887417	-0.935523178807947	-0.526622516556291	0.415364238410596	-0.624900662251656				0.928953642384106	0.127788079470199	0.365139072847682	1.55390728476821	-5.01218543046358	0.53403973509934				-0.266172185430464	-0.0812715231788079	-0.87194701986755	0.847417218543046	0.986490066225167	-1.04026490066225				0.352529801324503	-0.0805298013245033	-0.885721854304636	-1.99708609271523	-2.8964238410596	-0.615629139072848				0.948026490066225	0.131496688741722	0.197933774834437	2.4717880794702	0.0519205298013249	-0.337483443708608				0.415788079470199	-0.238834437086093	-0.820238410596026	0.0203973509933773	-1.52238410596026	-0.754701986754968			
17	440	-0.200158940397351	0.146754966887417	-0.935523178807947	0.0333774834437086	0.135364238410596	-0.624900662251656				0.928953642384106	0.111788079470199	0.365139072847682	1.55390728476821	-3.61218543046358	0.81403973509934				-0.266172185430464	-0.0812715231788079	-0.87194701986755	0.847417218543046	-0.133509933774833	-0.76026490066225				0.352529801324503	-0.0805298013245033	-0.901721854304636	-0.877086092715232	-2.3364238410596	-0.0556291390728476				0.932026490066225	0.131496688741722	0.197933774834437	1.9117880794702	0.0519205298013249	-0.897483443708608				0.415788079470199	-0.238834437086093	-0.804238410596027	-0.259602649006623	-1.24238410596026	-1.31470198675497			
18	460	-0.216158940397351	0.146754966887417	-0.919523178807947	0.593377483443709	0.135364238410596	-1.46490066225166				0.928953642384106	0.111788079470199	0.365139072847682	0.713907284768212	-1.65218543046358	1.09403973509934				-0.250172185430464	-0.0812715231788079	-0.88794701986755	1.12741721854305	-0.133509933774833	-0.48026490066225				0.336529801324503	-0.0805298013245033	-0.885721854304636	0.242913907284768	-1.4964238410596	-0.895629139072848				0.948026490066225	0.131496688741722	0.181933774834437	1.9117880794702	-2.46807947019868	-0.337483443708608				0.415788079470199	-0.238834437086093	-0.820238410596026	-0.819602649006623	0.157615894039735	-1.03470198675497			
19	480	-0.216158940397351	0.146754966887417	-0.935523178807947	0.593377483443709	0.135364238410596	-1.18490066225166				0.928953642384106	0.111788079470199	0.349139072847682	0.993907284768212	0.867814569536424	0.81403973509934				-0.250172185430464	-0.0812715231788079	-0.87194701986755	0.567417218543046	-0.133509933774833	-0.20026490066225				0.336529801324503	-0.0805298013245033	-0.869721854304636	0.242913907284768	-1.4964238410596	-0.895629139072848				0.916026490066225	0.131496688741722	0.197933774834437	2.1917880794702	0.0519205298013249	-0.337483443708608				0.415788079470199	-0.222834437086093	-0.820238410596026	0.300397350993377	0.437615894039735	-1.31470198675497			
20	500	-0.232158940397351	0.162754966887417	-0.935523178807947	-0.246622516556291	0.695364238410596	-0.344900662251656				0.928953642384106	0.111788079470199	0.381139072847682	1.55390728476821	2.54781456953642	0.81403973509934				-0.266172185430464	-0.0812715231788079	-0.87194701986755	-0.272582781456954	-0.133509933774833	-0.48026490066225				0.352529801324503	-0.0645298013245033	-0.901721854304636	1.08291390728477	-1.2164238410596	-2.29562913907285				0.932026490066225	0.147496688741722	0.197933774834437	0.791788079470198	-0.228079470198675	-0.337483443708608				0.415788079470199	-0.222834437086093	-0.836238410596026	0.580397350993377	0.157615894039735	-2.71470198675497			
21	520	-0.216158940397351	0.146754966887417	-0.919523178807947	0.873377483443709	0.135364238410596	-0.624900662251656				0.944953642384106	0.127788079470199	0.365139072847682	1.83390728476821	0.307814569536424	-0.86596026490066				-0.266172185430464	-0.0812715231788079	-0.87194701986755	0.00741721854304636	-0.133509933774833	0.0797350993377501				0.352529801324503	-0.0805298013245033	-0.901721854304636	0.242913907284768	-0.3764238410596	-2.01562913907285				0.948026490066225	0.131496688741722	0.181933774834437	2.7517880794702	0.331920529801325	0.502516556291392				0.415788079470199	-0.222834437086093	-0.820238410596026	1.14039735099338	0.717615894039735	-2.43470198675497			
22	540	-0.216158940397351	0.146754966887417	-0.935523178807947	0.0333774834437086	-0.704635761589404	-1.46490066225166				0.944953642384106	0.111788079470199	0.365139072847682	0.153907284768212	-1.09218543046358	-0.585960264900661				-0.266172185430464	-0.0972715231788079	-0.87194701986755	1.12741721854305	0.146490066225167	0.0797350993377501				0.352529801324503	-0.0805298013245033	-0.901721854304636	0.802913907284768	-0.3764238410596	-2.29562913907285				0.964026490066225	0.131496688741722	0.197933774834437	1.9117880794702	-0.228079470198675	-0.337483443708608				0.415788079470199	-0.238834437086093	-0.820238410596026	1.14039735099338	1.27761589403974	-3.27470198675497			
23	560	-0.216158940397351	0.146754966887417	-0.935523178807947	0.0333774834437086	0.135364238410596	-0.904900662251656				0.944953642384106	0.127788079470199	0.365139072847682	-0.126092715231788	-1.65218543046358	-0.30596026490066				-0.250172185430464	-0.0812715231788079	-0.88794701986755	1.40741721854305	-0.973509933774833	0.0797350993377501				0.352529801324503	-0.0645298013245033	-0.917721854304636	2.48291390728477	0.4635761589404	-2.85562913907285				0.948026490066225	0.131496688741722	0.197933774834437	1.3517880794702	-0.788079470198675	-0.897483443708608				0.431788079470199	-0.222834437086093	-0.820238410596026	0.300397350993377	1.27761589403974	-4.67470198675497			
24	580	-0.216158940397351	0.146754966887417	-0.951523178807947	-0.806622516556291	0.415364238410596	-0.904900662251656				0.928953642384106	0.111788079470199	0.365139072847682	-0.126092715231788	-0.532185430463576	0.81403973509934				-0.266172185430464	-0.0812715231788079	-0.87194701986755	0.00741721854304636	0.146490066225167	0.0797350993377501				0.352529801324503	-0.0805298013245033	-0.901721854304636	1.64291390728477	-0.3764238410596	-2.85562913907285				0.948026490066225	0.131496688741722	0.197933774834437	1.9117880794702	-1.34807947019868	-0.0574834437086077				0.415788079470199	-0.222834437086093	-0.836238410596026	0.0203973509933773	1.27761589403974	-4.67470198675497			
25	600	-0.200158940397351	0.146754966887417	-0.935523178807947	-0.526622516556291	0.695364238410596	-1.18490066225166				0.928953642384106	0.127788079470199	0.365139072847682	0.713907284768212	0.0278145695364242	0.81403973509934				-0.266172185430464	-0.0812715231788079	-0.87194701986755	0.00741721854304636	0.706490066225167	0.0797350993377501				0.352529801324503	-0.0805298013245033	-0.901721854304636	1.36291390728477	-0.3764238410596	-3.69562913907285				0.948026490066225	0.147496688741722	0.197933774834437	2.1917880794702	-0.788079470198675	-0.897483443708608				0.415788079470199	-0.222834437086093	-0.836238410596026	1.42039735099338	-0.402384105960265	-4.67470198675497			
26	620	-0.200158940397351	0.146754966887417	-0.935523178807947	-0.246622516556291	0.415364238410596	-0.624900662251656				0.944953642384106	0.127788079470199	0.381139072847682	2.11390728476821	-0.252185430463576	0.81403973509934				-0.266172185430464	-0.0812715231788079	-0.88794701986755	0.567417218543046	0.426490066225167	-0.48026490066225				0.352529801324503	-0.0805298013245033	-0.901721854304636	1.08291390728477	-0.9364238410596	-3.69562913907285				0.948026490066225	0.147496688741722	0.197933774834437	2.4717880794702	-1.06807947019868	-0.617483443708608				0.431788079470199	-0.238834437086093	-0.836238410596026	-0.259602649006623	-0.122384105960265	-4.39470198675497			
27	640	-0.200158940397351	0.162754966887417	-0.935523178807947	-0.246622516556291	0.135364238410596	0.215099337748344				0.928953642384106	0.127788079470199	0.381139072847682	2.95390728476821	-2.77218543046358	0.81403973509934				-0.266172185430464	-0.0812715231788079	-0.87194701986755	0.847417218543046	0.426490066225167	-0.48026490066225				0.352529801324503	-0.0805298013245033	-0.917721854304636	0.522913907284768	-1.4964238410596	-3.13562913907285				0.948026490066225	0.147496688741722	0.197933774834437	2.4717880794702	-1.06807947019868	-0.337483443708608				0.415788079470199	-0.222834437086093	-0.820238410596026	-0.819602649006623	-0.122384105960265	-3.83470198675497			
28	660	-0.216158940397351	0.146754966887417	-0.935523178807947	0.313377483443709	0.135364238410596	-0.344900662251656				0.928953642384106	0.111788079470199	0.365139072847682	2.11390728476821	-3.61218543046358	1.09403973509934				-0.266172185430464	-0.0972715231788079	-0.88794701986755	1.12741721854305	0.426490066225167	-0.48026490066225				0.352529801324503	-0.0805298013245033	-0.885721854304636	-0.0370860927152318	-2.0564238410596	-2.57562913907285				0.948026490066225	0.131496688741722	0.197933774834437	2.7517880794702	-0.788079470198675	-0.337483443708608				0.431788079470199	-0.238834437086093	-0.820238410596026	1.42039735099338	-0.402384105960265	-3.55470198675497			
29	680	-0.216158940397351	0.146754966887417	-0.935523178807947	-1.36662251655629	0.135364238410596	-0.624900662251656				0.944953642384106	0.127788079470199	0.365139072847682	1.27390728476821	-1.93218543046358	1.09403973509934				-0.250172185430464	-0.0812715231788079	-0.87194701986755	0.287417218543046	0.426490066225167	-0.20026490066225				0.336529801324503	-0.0805298013245033	-0.917721854304636	-0.0370860927152318	-1.7764238410596	-1.73562913907285				0.932026490066225	0.131496688741722	0.197933774834437	2.4717880794702	-1.90807947019868	-0.617483443708608				0.431788079470199	-0.238834437086093	-0.820238410596026	0.580397350993377	-0.122384105960265	-2.43470198675497			
30	700	-0.200158940397351	0.146754966887417	-0.935523178807947	0.873377483443709	0.695364238410596	-0.904900662251656				0.928953642384106	0.127788079470199	0.365139072847682	0.713907284768212	-1.65218543046358	1.37403973509934				-0.266172185430464	-0.0812715231788079	-0.87194701986755	0.00741721854304636	0.146490066225167	-0.76026490066225				0.336529801324503	-0.0805298013245033	-0.901721854304636	-0.317086092715232	-0.9364238410596	-1.17562913907285				0.948026490066225	0.131496688741722	0.197933774834437	2.4717880794702	-0.788079470198675	-0.897483443708608				0.431788079470199	-0.238834437086093	-0.820238410596026	-0.819602649006623	0.437615894039735	-2.15470198675497			
31	720	-0.216158940397351	0.146754966887417	-0.935523178807947	-0.246622516556291	0.415364238410596	-1.18490066225166				0.928953642384106	0.127788079470199	0.365139072847682	0.153907284768212	-1.09218543046358	1.65403973509934				-0.250172185430464	-0.0812715231788079	-0.88794701986755	0.00741721854304636	0.146490066225167	-0.20026490066225				0.352529801324503	-0.0805298013245033	-0.901721854304636	0.522913907284768	-0.6564238410596	-1.17562913907285				0.948026490066225	0.147496688741722	0.197933774834437	2.1917880794702	-0.508079470198675	-1.17748344370861				0.415788079470199	-0.222834437086093	-0.820238410596026	-1.37960264900662	0.157615894039735	-1.87470198675497			
32	740	-0.200158940397351	0.146754966887417	-0.919523178807947	0.313377483443709	-0.144635761589404	-1.46490066225166				0.928953642384106	0.111788079470199	0.349139072847682	1.27390728476821	-0.252185430463576	0.53403973509934				-0.250172185430464	-0.0972715231788079	-0.88794701986755	0.847417218543046	0.146490066225167	-0.48026490066225				0.336529801324503	-0.0645298013245033	-0.901721854304636	0.522913907284768	-1.4964238410596	-0.895629139072848				0.932026490066225	0.131496688741722	0.197933774834437	1.9117880794702	-0.788079470198675	-0.897483443708608				0.431788079470199	-0.222834437086093	-0.820238410596026	-0.539602649006623	0.437615894039735	-1.31470198675497			
33	760	-0.216158940397351	0.146754966887417	-0.935523178807947	1.15337748344371	-0.424635761589404	-0.904900662251656				0.928953642384106	0.127788079470199	0.365139072847682	1.27390728476821	0.0278145695364242	0.53403973509934				-0.266172185430464	-0.0812715231788079	-0.88794701986755	1.12741721854305	-0.413509933774833	-0.20026490066225				0.352529801324503	-0.0805298013245033	-0.901721854304636	-0.877086092715232	-1.7764238410596	-1.73562913907285				0.948026490066225	0.147496688741722	0.197933774834437	0.791788079470198	-0.508079470198675	-0.0574834437086077				0.415788079470199	-0.222834437086093	-0.820238410596026	0.300397350993377	0.717615894039735	-1.59470198675497			
34	780	-0.200158940397351	0.146754966887417	-0.935523178807947	0.0333774834437086	0.415364238410596	-0.904900662251656				0.944953642384106	0.127788079470199	0.349139072847682	2.67390728476821	-2.21218543046358	0.81403973509934				-0.266172185430464	-0.0972715231788079	-0.87194701986755	0.567417218543046	-0.413509933774833	-0.48026490066225				0.352529801324503	-0.0805298013245033	-0.901721854304636	-0.597086092715232	-2.6164238410596	-1.73562913907285				0.948026490066225	0.147496688741722	0.197933774834437	1.9117880794702	-1.06807947019868	-0.617483443708608				0.431788079470199	-0.222834437086093	-0.820238410596026	0.0203973509933773	0.997615894039735	-2.99470198675497			
35	800	-0.216158940397351	0.162754966887417	-0.935523178807947	-0.806622516556291	-0.144635761589404	-0.0649006622516557				0.944953642384106	0.111788079470199	0.349139072847682	2.39390728476821	-1.65218543046358	0.81403973509934				-0.266172185430464	-0.0972715231788079	-0.87194701986755	0.847417218543046	-0.133509933774833	0.0797350993377501				0.336529801324503	-0.0805298013245033	-0.901721854304636	-0.317086092715232	-1.7764238410596	-2.29562913907285				0.948026490066225	0.147496688741722	0.213933774834437	1.3517880794702	1.17192052980133	-0.897483443708608				0.415788079470199	-0.222834437086093	-0.820238410596026	0.580397350993377	0.997615894039735	-2.43470198675497			
36	820	-0.216158940397351	0.146754966887417	-0.951523178807947	1.43337748344371	0.135364238410596	-0.624900662251656				0.944953642384106	0.127788079470199	0.365139072847682	1.83390728476821	-1.37218543046358	0.81403973509934				-0.266172185430464	-0.0812715231788079	-0.83994701986755	0.567417218543046	0.146490066225167	-0.48026490066225				0.352529801324503	-0.0805298013245033	-0.901721854304636	0.522913907284768	-0.6564238410596	-1.45562913907285				0.948026490066225	0.147496688741722	0.197933774834437	2.4717880794702	-1.06807947019868	0.502516556291392				0.415788079470199	-0.222834437086093	-0.852238410596026	-0.819602649006623	0.717615894039735	-2.43470198675497			
37	840	-0.216158940397351	0.146754966887417	-0.935523178807947	0.593377483443709	-0.424635761589404	-0.344900662251656				0.928953642384106	0.127788079470199	0.349139072847682	1.55390728476821	-1.09218543046358	1.09403973509934				-0.266172185430464	-0.0812715231788079	-0.88794701986755	1.12741721854305	0.146490066225167	-0.48026490066225				0.352529801324503	-0.0645298013245033	-0.901721854304636	0.802913907284768	-1.2164238410596	-1.45562913907285				0.948026490066225	0.147496688741722	0.197933774834437	1.3517880794702	0.0519205298013249	-0.337483443708608				0.431788079470199	-0.238834437086093	-0.820238410596026	0.300397350993377	-1.24238410596026	-2.43470198675497			
38	860	-0.216158940397351	0.146754966887417	-0.935523178807947	-0.806622516556291	0.975364238410596	-1.18490066225166				0.928953642384106	0.111788079470199	0.349139072847682	-0.406092715231788	2.26781456953642	1.93403973509934				-0.266172185430464	-0.0812715231788079	-0.88794701986755	0.567417218543046	0.146490066225167	-0.20026490066225				0.336529801324503	-0.0645298013245033	-0.917721854304636	1.36291390728477	0.1835761589404	-1.17562913907285				0.932026490066225	0.147496688741722	0.197933774834437	-0.328211920529802	1.17192052980133	-2.01748344370861				0.415788079470199	-0.222834437086093	-0.820238410596026	0.860397350993377	-1.24238410596026	-2.43470198675497			
39	880	-0.200158940397351	0.146754966887417	-0.919523178807947	0.593377483443709	0.135364238410596	-0.904900662251656				0.944953642384106	0.111788079470199	0.381139072847682	-0.126092715231788	-0.812185430463576	0.53403973509934				-0.250172185430464	-0.0812715231788079	-0.88794701986755	0.00741721854304636	0.426490066225167	-0.20026490066225				0.352529801324503	-0.0645298013245033	-0.901721854304636	1.92291390728477	1.0235761589404	-1.73562913907285				0.948026490066225	0.131496688741722	0.197933774834437	1.0717880794702	0.611920529801325	-0.897483443708608				0.431788079470199	-0.238834437086093	-0.836238410596026	0.860397350993377	-0.122384105960265	-2.71470198675497			
40	900	-0.200158940397351	0.146754966887417	-0.935523178807947	0.313377483443709	0.135364238410596	-1.18490066225166				0.944953642384106	0.111788079470199	0.365139072847682	2.11390728476821	-5.57218543046358	-0.30596026490066				-0.250172185430464	-0.0972715231788079	-0.87194701986755	-0.552582781456954	0.146490066225167	-0.76026490066225				0.352529801324503	-0.0805298013245033	-0.885721854304636	0.522913907284768	0.4635761589404	-1.73562913907285				0.964026490066225	0.131496688741722	0.197933774834437	2.1917880794702	0.331920529801325	0.502516556291392				0.447788079470199	-0.222834437086093	-0.836238410596026	1.42039735099338	0.157615894039735	-3.27470198675497			
41	920	-0.216158940397351	0.162754966887417	-0.935523178807947	0.593377483443709	-0.144635761589404	-1.74490066225166				0.944953642384106	0.127788079470199	0.333139072847682	2.39390728476821	-3.89218543046358	-0.0259602649006601				-0.266172185430464	-0.0972715231788079	-0.88794701986755	0.00741721854304636	-0.133509933774833	-0.20026490066225				0.352529801324503	-0.0645298013245033	-0.901721854304636	1.08291390728477	-0.6564238410596	-0.615629139072848				0.948026490066225	0.147496688741722	0.197933774834437	1.6317880794702	0.0519205298013249	-0.0574834437086077				0.431788079470199	-0.238834437086093	-0.836238410596026	0.580397350993377	-0.402384105960265	-2.99470198675497			
42	940	-0.216158940397351	0.146754966887417	-0.935523178807947	0.313377483443709	0.695364238410596	-0.624900662251656				0.944953642384106	0.127788079470199	0.333139072847682	2.67390728476821	-2.21218543046358	0.81403973509934				-0.266172185430464	-0.0812715231788079	-0.88794701986755	0.567417218543046	0.706490066225167	-0.20026490066225				0	0	0	0	0	0				0	0	0	0	0	0				0	0	0	0	0	0			
43	1060	-0.216158940397351	0.146754966887417	-0.919523178807947	-0.246622516556291	0.135364238410596	-0.904900662251656				0.944953642384106	0.111788079470199	0.349139072847682	0.993907284768212	0.587814569536424	1.09403973509934				-0.266172185430464	-0.0812715231788079	-0.87194701986755	0.287417218543046	0.146490066225167	-0.76026490066225				0.336529801324503	-0.0805298013245033	-0.901721854304636	1.08291390728477	0.1835761589404	0.504370860927152				0.948026490066225	0.131496688741722	0.181933774834437	-0.328211920529802	-1.06807947019868	0.502516556291392				0.415788079470199	-0.222834437086093	-0.820238410596026	0.860397350993377	-0.402384105960265	-0.194701986754968			
44	1080	-0.216158940397351	0.162754966887417	-0.919523178807947	-0.526622516556291	0.135364238410596	-1.18490066225166				0.944953642384106	0.111788079470199	0.349139072847682	1.55390728476821	1.14781456953642	1.09403973509934				-0.266172185430464	-0.0812715231788079	-0.88794701986755	0.847417218543046	-0.133509933774833	-0.48026490066225				0.352529801324503	-0.0645298013245033	-0.885721854304636	1.64291390728477	0.4635761589404	0.504370860927152				0.932026490066225	0.147496688741722	0.197933774834437	-0.888211920529802	0.891920529801325	-0.337483443708608				0.415788079470199	-0.222834437086093	-0.820238410596026	0.300397350993377	0.717615894039735	0.645298013245032			
45	1100	-0.216158940397351	0.146754966887417	-0.935523178807947	0.593377483443709	-0.424635761589404	-1.46490066225166				0.944953642384106	0.111788079470199	0.349139072847682	0.433907284768212	3.10781456953642	0.81403973509934				-0.266172185430464	-0.0812715231788079	-0.87194701986755	0.847417218543046	0.706490066225167	-0.76026490066225				0.336529801324503	-0.0645298013245033	-0.901721854304636	0.522913907284768	1.0235761589404	0.224370860927152				0.948026490066225	0.131496688741722	0.181933774834437	-1.1682119205298	0.0519205298013249	-0.337483443708608				0.415788079470199	-0.222834437086093	-0.820238410596026	0.300397350993377	0.157615894039735	0.0852980132450323			
46	1120	-0.216158940397351	0.146754966887417	-0.919523178807947	0.593377483443709	0.415364238410596	-1.46490066225166				0.944953642384106	0.127788079470199	0.349139072847682	-0.126092715231788	1.98781456953642	0.53403973509934				-0.266172185430464	-0.0812715231788079	-0.87194701986755	0.567417218543046	0.986490066225167	-0.20026490066225				0.336529801324503	-0.0805298013245033	-0.901721854304636	1.64291390728477	2.1435761589404	1.06437086092715				0.948026490066225	0.131496688741722	0.197933774834437	0.231788079470198	0.0519205298013249	0.502516556291392				0.415788079470199	-0.238834437086093	-0.836238410596026	1.70039735099338	-0.402384105960265	-0.194701986754968			
47	1140	-0.200158940397351	0.146754966887417	-0.935523178807947	0.593377483443709	-0.144635761589404	-1.46490066225166				0.960953642384106	0.111788079470199	0.349139072847682	-0.686092715231788	0.867814569536424	0.25403973509934				-0.250172185430464	-0.0812715231788079	-0.88794701986755	-0.272582781456954	0.426490066225167	-0.48026490066225				0.336529801324503	-0.0805298013245033	-0.901721854304636	0.522913907284768	1.0235761589404	2.46437086092715				0.948026490066225	0.147496688741722	0.197933774834437	-0.888211920529802	0.0519205298013249	-0.0574834437086077				0.431788079470199	-0.238834437086093	-0.836238410596026	0.0203973509933773	-0.122384105960265	0.925298013245032			
48	1160	-0.216158940397351	0.146754966887417	-0.935523178807947	-1.64662251655629	-0.144635761589404	-1.74490066225166				0.928953642384106	0.127788079470199	0.365139072847682	-1.24609271523179	-0.252185430463576	0.81403973509934				-0.250172185430464	-0.0812715231788079	-0.87194701986755	1.12741721854305	0.426490066225167	-0.76026490066225				0.336529801324503	-0.0805298013245033	-0.917721854304636	0.242913907284768	1.8635761589404	2.74437086092715				0.964026490066225	0.147496688741722	0.181933774834437	-2.2882119205298	-0.508079470198675	-0.337483443708608				0.431788079470199	-0.238834437086093	-0.820238410596026	-0.819602649006623	0.437615894039735	0.645298013245032			
49	1180	-0.216158940397351	0.146754966887417	-0.951523178807947	-0.806622516556291	0.135364238410596	-1.18490066225166				0.928953642384106	0.127788079470199	0.349139072847682	-1.52609271523179	1.70781456953642	0.53403973509934				-0.266172185430464	-0.0812715231788079	-0.88794701986755	0.847417218543046	0.426490066225167	-1.04026490066225				0.336529801324503	-0.0805298013245033	-0.901721854304636	2.48291390728477	2.4235761589404	2.74437086092715				0.948026490066225	0.131496688741722	0.181933774834437	-1.4482119205298	0.0519205298013249	0.782516556291392				0.415788079470199	-0.238834437086093	-0.836238410596026	0.300397350993377	0.437615894039735	1.48529801324503			
50	1200	-0.216158940397351	0.146754966887417	-0.951523178807947	0.873377483443709	0.135364238410596	-0.904900662251656				0.928953642384106	0.111788079470199	0.349139072847682	0.433907284768212	1.70781456953642	0.53403973509934				-0.266172185430464	-0.0812715231788079	-0.88794701986755	-0.272582781456954	0.146490066225167	-0.20026490066225				0.352529801324503	-0.0805298013245033	-0.901721854304636	0.242913907284768	1.0235761589404	2.18437086092715				0.948026490066225	0.147496688741722	0.197933774834437	-2.0082119205298	0.0519205298013249	-0.617483443708608				0.415788079470199	-0.238834437086093	-0.836238410596026	0.860397350993377	-0.962384105960265	1.20529801324503			
51	1220	-0.216158940397351	0.146754966887417	-0.935523178807947	-0.526622516556291	0.695364238410596	-1.18490066225166				0.928953642384106	0.127788079470199	0.365139072847682	-0.126092715231788	3.10781456953642	-0.585960264900661				-0.266172185430464	-0.0812715231788079	-0.88794701986755	-0.552582781456954	0.706490066225167	0.0797350993377501				0.352529801324503	-0.0805298013245033	-0.901721854304636	0.242913907284768	1.3035761589404	3.02437086092715				0.948026490066225	0.147496688741722	0.197933774834437	-2.8482119205298	-0.228079470198675	0.222516556291392				0.415788079470199	-0.238834437086093	-0.836238410596026	-0.819602649006623	-1.24238410596026	2.88529801324503			
52	1240	-0.216158940397351	0.162754966887417	-0.919523178807947	-0.526622516556291	0.415364238410596	-0.624900662251656				0.944953642384106	0.111788079470199	0.365139072847682	0.153907284768212	2.82781456953642	-0.0259602649006601				-0.266172185430464	-0.0812715231788079	-0.87194701986755	0.847417218543046	0.986490066225167	0.0797350993377501				0.336529801324503	-0.0965298013245033	-0.917721854304636	0.242913907284768	1.8635761589404	3.58437086092715				0.948026490066225	0.147496688741722	0.181933774834437	-2.8482119205298	0.611920529801325	1.06251655629139				0.431788079470199	-0.238834437086093	-0.820238410596026	-0.819602649006623	-0.122384105960265	3.44529801324503			
53	1260	-0.216158940397351	0.146754966887417	-0.935523178807947	0.313377483443709	0.415364238410596	-0.344900662251656				0.944953642384106	0.111788079470199	0.333139072847682	-0.966092715231788	1.14781456953642	1.09403973509934				-0.250172185430464	-0.0812715231788079	-0.88794701986755	1.12741721854305	0.146490066225167	-0.20026490066225				0.352529801324503	-0.0965298013245033	-0.901721854304636	-0.0370860927152318	1.8635761589404	4.42437086092715				0.948026490066225	0.147496688741722	0.197933774834437	-2.8482119205298	1.17192052980133	0.222516556291392				0.431788079470199	-0.222834437086093	-0.836238410596026	0.860397350993377	-0.962384105960265	3.16529801324503			
54	1280	-0.216158940397351	0.146754966887417	-0.951523178807947	0.313377483443709	0.135364238410596	-1.74490066225166				0.928953642384106	0.111788079470199	0.333139072847682	-2.64609271523179	1.42781456953642	1.09403973509934				-0.266172185430464	-0.0812715231788079	-0.88794701986755	0.287417218543046	0.426490066225167	-0.48026490066225				0.336529801324503	-0.0805298013245033	-0.901721854304636	-0.597086092715232	0.1835761589404	5.26437086092715				0.948026490066225	0.131496688741722	0.197933774834437	-2.8482119205298	0.331920529801325	0.222516556291392				0.415788079470199	-0.238834437086093	-0.820238410596026	0.0203973509933773	-1.52238410596026	3.16529801324503			
55	1300	-0.216158940397351	0.146754966887417	-0.935523178807947	-1.92662251655629	0.975364238410596	-1.46490066225166				0.944953642384106	0.127788079470199	0.349139072847682	-4.04609271523179	2.82781456953642	0.53403973509934				-0.266172185430464	-0.0812715231788079	-0.88794701986755	-1.11258278145695	0.706490066225167	-0.48026490066225				0.336529801324503	-0.0965298013245033	-0.901721854304636	-1.43708609271523	0.7435761589404	5.82437086092715				0.948026490066225	0.131496688741722	0.197933774834437	-3.4082119205298	0.611920529801325	0.502516556291392				0.399788079470199	-0.222834437086093	-0.836238410596026	-0.819602649006623	-1.24238410596026	2.60529801324503			
56	1320	-0.216158940397351	0.162754966887417	-0.919523178807947	-1.08662251655629	1.2553642384106	-1.18490066225166				0.944953642384106	0.111788079470199	0.349139072847682	-1.80609271523179	3.38781456953642	2.77403973509934				-0.266172185430464	-0.0812715231788079	-0.87194701986755	0.287417218543046	0.986490066225167	-0.48026490066225				0.336529801324503	-0.0965298013245033	-0.901721854304636	-2.27708609271523	0.1835761589404	6.10437086092715				0.932026490066225	0.131496688741722	0.197933774834437	-3.6882119205298	0.611920529801325	0.222516556291392				0.399788079470199	-0.222834437086093	-0.836238410596026	-0.539602649006623	0.157615894039735	3.16529801324503			
57	1340	-0.216158940397351	0.162754966887417	-0.919523178807947	-0.806622516556291	0.135364238410596	-0.624900662251656				0.944953642384106	0.111788079470199	0.365139072847682	0.433907284768212	4.78781456953642	3.05403973509934				-0.250172185430464	-0.0812715231788079	-0.87194701986755	-0.272582781456954	0.426490066225167	-0.20026490066225				0.336529801324503	-0.0965298013245033	-0.917721854304636	-3.11708609271523	0.4635761589404	6.94437086092715				0.948026490066225	0.131496688741722	0.181933774834437	-4.5282119205298	2.01192052980133	0.502516556291392				0.415788079470199	-0.222834437086093	-0.836238410596026	-0.259602649006623	-0.122384105960265	3.44529801324503			
58	1360	-0.200158940397351	0.146754966887417	-0.935523178807947	-1.08662251655629	0.135364238410596	-0.344900662251656				0.976953642384106	0.127788079470199	0.349139072847682	1.83390728476821	4.22781456953642	2.21403973509934				-0.250172185430464	-0.0812715231788079	-0.88794701986755	0.287417218543046	0.426490066225167	-0.48026490066225				0.352529801324503	-0.0965298013245033	-0.917721854304636	-3.67708609271523	1.3035761589404	7.50437086092715				0.948026490066225	0.131496688741722	0.181933774834437	-3.6882119205298	3.97192052980133	0.222516556291392				0.415788079470199	-0.238834437086093	-0.852238410596026	1.14039735099338	-1.52238410596026	2.88529801324503			
59	1380	-0.200158940397351	0.146754966887417	-0.935523178807947	-1.36662251655629	0.695364238410596	-0.0649006622516557				0.944953642384106	0.143788079470199	0.333139072847682	2.39390728476821	2.82781456953642	1.37403973509934				-0.266172185430464	-0.0652715231788079	-0.87194701986755	0.847417218543046	0.426490066225167	-0.48026490066225				0.352529801324503	-0.0965298013245033	-0.901721854304636	-3.95708609271523	1.5835761589404	7.78437086092715				0.964026490066225	0.131496688741722	0.181933774834437	-3.6882119205298	2.29192052980133	-0.0574834437086077				0.415788079470199	-0.238834437086093	-0.852238410596026	0.860397350993377	-2.36238410596027	3.72529801324503			
60	1400	-0.200158940397351	0.146754966887417	-0.919523178807947	-1.08662251655629	0.135364238410596	0.215099337748344				0.976953642384106	0.111788079470199	0.317139072847682	-0.126092715231788	0.587814569536424	3.89403973509934				-0.266172185430464	-0.0652715231788079	-0.88794701986755	2.24741721854305	0.706490066225167	-0.48026490066225				0.336529801324503	-0.0805298013245033	-0.901721854304636	-2.83708609271523	1.5835761589404	8.34437086092715				0.948026490066225	0.147496688741722	0.181933774834437	-3.9682119205298	2.29192052980133	1.06251655629139				0.399788079470199	-0.254834437086093	-0.852238410596026	-0.539602649006623	-4.04238410596027	4.56529801324503			
61	1420	-0.216158940397351	0.146754966887417	-0.951523178807947	-1.92662251655629	-0.424635761589404	-0.344900662251656				0.960953642384106	0.111788079470199	0.317139072847682	-0.126092715231788	-0.252185430463576	2.77403973509934				-0.266172185430464	-0.0812715231788079	-0.88794701986755	2.24741721854305	0.146490066225167	-1.60026490066225				0.320529801324503	-0.0805298013245033	-0.917721854304636	-0.877086092715232	2.1435761589404	8.34437086092715				0.964026490066225	0.131496688741722	0.165933774834437	-4.5282119205298	2.29192052980133	1.06251655629139				0.399788079470199	-0.238834437086093	-0.852238410596026	0.0203973509933773	-5.16238410596027	6.52529801324503			
62	1440	-0.232158940397351	0.162754966887417	-0.935523178807947	-1.92662251655629	0.415364238410596	0.215099337748344				0.960953642384106	0.143788079470199	0.333139072847682	2.39390728476821	0.867814569536424	4.45403973509934				-0.266172185430464	-0.0652715231788079	-0.88794701986755	1.40741721854305	0.426490066225167	-1.04026490066225				0.336529801324503	-0.0965298013245033	-0.917721854304636	2.48291390728477	0.1835761589404	8.06437086092715				0.964026490066225	0.147496688741722	0.165933774834437	-5.9282119205298	3.97192052980133	-0.617483443708608				0.415788079470199	-0.254834437086093	-0.900238410596026	0.300397350993377	-7.68238410596027	6.80529801324503			
63	1460	-0.216158940397351	0.130754966887417	-0.951523178807947	-1.08662251655629	2.0953642384106	0.495099337748344				0.992953642384106	0.111788079470199	0.317139072847682	1.83390728476821	0.587814569536424	7.25403973509934				-0.266172185430464	-0.0812715231788079	-0.90394701986755	1.96741721854305	0.706490066225167	-1.60026490066225				0.320529801324503	-0.144529801324503	-0.981721854304636	4.16291390728477	-2.8964238410596	7.50437086092715				0.980026490066225	0.147496688741722	0.181933774834437	-7.0482119205298	5.37192052980133	0.502516556291392				0.431788079470199	-0.302834437086093	-0.900238410596026	0.580397350993377	-9.36238410596027	13.525298013245			
64	1480	-0.216158940397351	0.114754966887417	-0.919523178807947	-4.16662251655629	2.3753642384106	0.495099337748344				1.07295364238411	0.207788079470199	0.317139072847682	5.47390728476821	-15.9321854304636	-0.86596026490066				-0.250172185430464	-0.0812715231788079	-0.88794701986755	2.52741721854305	1.54649006622517	-3.28026490066225				0.304529801324503	-0.160529801324503	-1.01372185430464	21.5229139072848	-3.7364238410596	4.14437086092715				0.996026490066225	0.115496688741722	0.165933774834437	-9.2882119205298	7.89192052980133	-0.0574834437086077				0.367788079470199	-0.366834437086093	-0.948238410596026	5.62039735099338	-19.7223841059603	24.725298013245			
65	1500	-0.200158940397351	0.114754966887417	-0.951523178807947	-4.72662251655629	0.695364238410596	0.775099337748344				1.12095364238411	0.143788079470199	0.285139072847682	17.2339072847682	-44.7721854304636	1.93403973509934				-0.250172185430464	-0.0812715231788079	-0.87194701986755	3.92741721854305	0.706490066225167	-3.00026490066225				0.256529801324503	-0.160529801324503	-1.04572185430464	31.6029139072848	-6.8164238410596	-0.895629139072848				1.01202649006623	0.131496688741722	0.117933774834437	-10.4082119205298	8.17192052980133	-0.617483443708608				0.335788079470199	-0.286834437086093	-0.996238410596026	-5.85960264900662	-22.2423841059603	33.965298013245			
66	1520	-0.232158940397351	0.114754966887417	-0.935523178807947	-10.0466225165563	0.975364238410596	2.45509933774835				1.05695364238411	0.127788079470199	0.221139072847682	13.3139072847682	-58.2121854304636	0.25403973509934				-0.266172185430464	-0.0652715231788079	-0.87194701986755	5.04741721854305	2.10649006622517	-5.52026490066225				0.304529801324503	-0.128529801324503	-1.07772185430464	2.76291390728477	-14.9364238410596	-0.895629139072848				1.02802649006623	0.147496688741722	0.0859337748344371	-13.7682119205298	11.5319205298013	-0.0574834437086077				0.335788079470199	-0.270834437086093	-0.996238410596026	-8.93960264900662	-28.9623841059603	42.365298013245			
67	1540	-0.248158940397351	0.0987549668874172	-0.935523178807947	-11.4466225165563	1.5353642384106	3.85509933774834				1.04095364238411	0.111788079470199	0.173139072847682	7.99390728476821	-58.4921854304636	4.17403973509934				-0.266172185430464	-0.0812715231788079	-0.88794701986755	6.72741721854305	0.986490066225167	-7.48026490066225				0.352529801324503	-0.128529801324503	-1.09372185430464	-5.63708609271523	-17.7364238410596	-9.01562913907285				1.10802649006623	0.115496688741722	0.0699337748344371	-12.3682119205298	9.57192052980133	-1.17748344370861				0.255788079470199	-0.334834437086093	-1.02823841059603	9.82039735099338	-40.7223841059603	50.205298013245			
68	1560	-0.296158940397351	0.130754966887417	-0.935523178807947	-14.5266225165563	1.5353642384106	6.09509933774834				0.992953642384106	0.255788079470199	0.173139072847682	4.35390728476821	-54.0121854304636	1.65403973509934				-0.314172185430464	-0.0492715231788079	-0.87194701986755	8.68741721854305	0.706490066225167	-8.32026490066225				0.272529801324503	-0.128529801324503	-1.06172185430464	-7.87708609271523	-25.0164238410596	-16.0156291390729				1.10802649006623	0.147496688741722	0.0379337748344371	-10.9682119205298	2.85192052980133	-4.25748344370861				0.159788079470199	-0.286834437086093	-0.996238410596026	-8.09960264900662	-44.9223841059603	63.645298013245			
69	1580	-0.312158940397351	0.146754966887417	-0.951523178807947	-16.4866225165563	2.6553642384106	9.45509933774835				0.960953642384106	0.223788079470199	0.109139072847682	5.47390728476821	-39.7321854304636	9.49403973509934				-0.330172185430464	-0.0812715231788079	-0.87194701986755	11.767417218543	0.706490066225167	-6.36026490066225				0.208529801324503	-0.224529801324503	-1.07772185430464	-12.3570860927152	-27.5364238410596	-16.5756291390728				1.04402649006623	0.147496688741722	-0.0260662251655629	-7.6082119205298	-1.34807947019868	-3.69748344370861				0.0637880794701987	-0.222834437086093	-0.948238410596026	-13.9796026490066	-37.3623841059603	73.725298013245			
70	1600	-0.280158940397351	0.146754966887417	-0.951523178807947	-17.3266225165563	3.4953642384106	11.9750993377483				0.960953642384106	0.127788079470199	0.0451390728476822	4.07390728476821	-23.4921854304636	17.0540397350993				-0.298172185430464	-0.129271523178808	-0.87194701986755	12.327417218543	2.38649006622517	-2.44026490066225				0.176529801324503	-0.208529801324503	-1.02972185430464	-29.9970860927152	-32.0164238410596	-17.1356291390729				0.996026490066225	0.147496688741722	-0.0740662251655629	-2.8482119205298	0.611920529801325	-3.97748344370861				-0.000211920529801336	-0.190834437086093	-0.964238410596026	-15.0996026490066	-27.5623841059603	79.605298013245			
71	1620	-0.280158940397351	0.146754966887417	-0.951523178807947	-21.2466225165563	5.1753642384106	13.0950993377483				1.02495364238411	0.0477880794701987	-0.114860927152318	-1.80609271523179	-8.37218543046358	18.4540397350993				-0.266172185430464	-0.193271523178808	-0.85594701986755	16.247417218543	2.38649006622517	2.03973509933775				0.176529801324503	-0.176529801324503	-0.981721854304636	-40.6370860927152	-32.5764238410596	-20.4956291390729				1.01202649006623	0.0994966887417219	-0.0420662251655629	3.8717880794702	-0.788079470198675	-3.97748344370861				-0.0162119205298013	-0.142834437086093	-0.996238410596026	7.58039735099338	-16.6423841059603	87.445298013245			
72	1640	-0.264158940397351	0.178754966887417	-0.919523178807947	-31.6066225165563	0.415364238410596	12.8150993377483				0.960953642384106	0.159788079470199	0.0451390728476822	-41.0060927152318	15.7078145695364	13.6940397350993				-0.282172185430464	-0.257271523178808	-0.83994701986755	21.0074172185431	2.94649006622517	5.11973509933775				0.128529801324503	-0.160529801324503	-0.997721854304636	-35.0370860927152	-30.3364238410596	-20.4956291390729				1.02802649006623	0.0994966887417219	-0.0420662251655629	3.8717880794702	-7.50807947019868	-2.85748344370861				-0.000211920529801336	-0.190834437086093	-0.996238410596026	37.8203973509934	-17.7623841059603	100.605298013245			
73	1660	-0.216158940397351	0.194754966887417	-0.919523178807947	-32.1666225165563	4.0553642384106	12.2550993377483				0.784953642384106	0.255788079470199	0.157139072847682	-45.4860927152318	17.9478145695364	14.8140397350993				-0.282172185430464	-0.257271523178808	-0.83994701986755	13.167417218543	4.62649006622517	10.9997350993378				0.0965298013245033	-0.176529801324503	-0.981721854304636	-24.3970860927152	-30.3364238410596	-14.6156291390728				0.980026490066225	0.131496688741722	-0.0420662251655629	5.8317880794702	-9.46807947019868	-2.29748344370861				-0.000211920529801336	-0.206834437086093	-0.916238410596027	29.4203973509934	-24.2023841059603	107.885298013245			
74	1680	-0.200158940397351	0.242754966887417	-0.967523178807947	-29.0866225165563	4.6153642384106	12.2550993377483				0.800953642384106	0.0957880794701987	0.0451390728476822	-7.40609271523179	24.3878145695364	28.8140397350993				-0.282172185430464	-0.193271523178808	-0.88794701986755	1.12741721854305	7.70649006622517	17.7197350993378				0.0805298013245033	-0.208529801324503	-0.965721854304636	-20.1970860927152	-37.3364238410596	-11.5356291390728				0.900026490066225	0.115496688741722	-0.0900662251655629	11.4317880794702	-9.74807947019868	-1.73748344370861				0.0157880794701987	-0.174834437086093	-0.932238410596026	13.4603973509934	-12.4423841059603	106.765298013245			
75	1700	-0.232158940397351	0.274754966887417	-0.967523178807947	-25.7266225165563	7.1353642384106	15.8950993377483				0.896953642384106	-0.0962119205298013	0.141139072847682	7.71390728476821	66.9478145695364	39.7340397350993				-0.330172185430464	-0.0972715231788079	-0.96794701986755	11.767417218543	5.18649006622517	18.5597350993378				0.160529801324503	-0.192529801324503	-0.981721854304636	-23.5570860927152	-43.7764238410596	-13.2156291390728				0.884026490066225	0.0834966887417219	-0.0420662251655629	24.0317880794702	3.97192052980133	-2.01748344370861				0.0317880794701987	-0.0788344370860927	-0.884238410596026	23.2603973509934	-3.20238410596026	107.605298013245			
76	1720	-0.216158940397351	0.242754966887417	-0.919523178807947	-22.3666225165563	9.3753642384106	19.2550993377483				0.944953642384106	0.0637880794701987	0.237139072847682	-6.84609271523179	76.7478145695364	32.7340397350993				-0.346172185430464	-0.0492715231788079	-0.95194701986755	24.3674172185431	8.26649006622517	18.2797350993378				0.240529801324503	-0.144529801324503	-1.01372185430464	-24.3970860927152	-51.8964238410596	-12.0956291390728				0.916026490066225	0.0194966887417219	0.0539337748344371	37.1917880794702	11.8119205298013	-0.0574834437086077				-0.0802119205298013	-0.110834437086093	-0.916238410596027	33.9003973509934	-6.56238410596027	104.805298013245			
77	1740	-0.264158940397351	0.242754966887417	-0.967523178807947	-29.3666225165563	11.0553642384106	19.5350993377483				1.00895364238411	0.223788079470199	0.173139072847682	2.11390728476821	70.8678145695364	18.7340397350993				-0.346172185430464	0.0307284768211921	-0.95194701986755	22.6874172185431	11.3464900662252	17.7197350993378				0.256529801324503	-0.0485298013245033	-0.997721854304636	-24.6770860927152	-60.8564238410596	-16.5756291390728				0.996026490066225	0.0354966887417219	0.133933774834437	38.5917880794702	5.93192052980133	-3.13748344370861				-0.0802119205298013	-0.126834437086093	-0.900238410596026	24.3803973509934	1.83761589403974	96.125298013245			
78	1760	-0.328158940397351	0.290754966887417	-0.983523178807947	-26.2866225165563	12.7353642384106	20.6550993377483				0.896953642384106	0.207788079470199	0.237139072847682	10.7939072847682	64.7078145695364	15.0940397350993				-0.426172185430464	-0.00127152317880793	-0.96794701986755	29.1274172185431	16.1064900662252	11.8397350993378				0.176529801324503	-0.0965298013245033	-0.949721854304636	-14.3170860927152	-53.2964238410596	-24.9756291390729				1.07602649006623	0.0994966887417219	0.149933774834437	53.1517880794702	-2.74807947019868	-9.01748344370861				-0.0162119205298013	-0.0788344370860927	-0.884238410596026	28.8603973509934	6.31761589403974	83.525298013245			
79	1780	-0.296158940397351	0.290754966887417	-0.999523178807947	-24.3266225165563	22.2553642384106	21.4950993377483				0.896953642384106	-0.0802119205298013	0.477139072847682	18.6339072847682	75.6278145695364	35.8140397350993				-0.394172185430464	-0.0492715231788079	-0.95194701986755	16.247417218543	7.14649006622517	5.39973509933775				0.160529801324503	-0.128529801324503	-0.901721854304636	-14.0370860927152	-36.2164238410596	-31.6956291390729				0.980026490066225	0.211496688741722	0.117933774834437	27.6717880794702	-3.86807947019868	-25.8174834437086				-0.0162119205298013	-0.0628344370860927	-0.948238410596026	23.8203973509934	8.27761589403974	67.565298013245			
80	1800	-0.280158940397351	0.306754966887417	-1.04752317880795	-33.0066225165563	30.9353642384106	21.7750993377483				1.07295364238411	-0.0802119205298013	0.669139072847682	8.55390728476821	99.7078145695364	31.3340397350993				-0.298172185430464	-0.145271523178808	-1.01594701986755	38.0874172185431	22.2664900662252	-6.36026490066225				0.256529801324503	-0.0485298013245033	-0.917721854304636	-10.1170860927152	-29.4964238410596	-32.8156291390729				0.868026490066225	0.323496688741722	0.101933774834437	53.9917880794702	0.331920529801325	-20.7774834437086				-0.0162119205298013	-0.0468344370860927	-0.964238410596026	16.8203973509934	13.0376158940397	41.525298013245			
81	1820	-0.264158940397351	0.322754966887417	-0.903523178807947	-23.2066225165563	37.0953642384106	22.8950993377483				1.08895364238411	0.143788079470199	0.669139072847682	-9.64609271523179	118.187814569536	21.8140397350993				-0.298172185430464	-0.257271523178808	-1.01594701986755	22.407417218543	27.8664900662252	-12.8002649006623				0.256529801324503	0.143470198675497	-0.981721854304636	-5.63708609271523	-28.3764238410596	-33.6556291390729				0.996026490066225	0.291496688741722	0.213933774834437	85.3517880794702	35.3319205298013	-15.7374834437086				0.0957880794701987	-0.142834437086093	-0.980238410596026	23.8203973509934	13.8776158940397	18.285298013245			
82	1840	-0.248158940397351	0.418754966887417	-0.967523178807947	-17.6066225165563	47.1753642384106	26.2550993377483				0.992953642384106	0.175788079470199	0.861139072847682	2.39390728476821	105.867814569536	32.1740397350993				-0.266172185430464	-0.129271523178808	-0.95194701986755	30.247417218543	36.5464900662252	-13.6402649006623				0.000529801324503301	-0.0165298013245033	-1.23772185430464	17.3229139072848	2.7035761589404	-40.6556291390729				1.07602649006623	0.371496688741722	0.405933774834437	78.3517880794702	32.5319205298013	-23.5774834437086				0.207788079470199	-0.366834437086093	-0.964238410596026	20.1803973509934	13.5976158940397	2.32529801324503			
83	1860	-0.216158940397351	0.370754966887417	-1.06352317880795	-15.0866225165563	55.8553642384106	31.2950993377483				1.12095364238411	-0.000211920529801304	0.861139072847682	6.59390728476821	72.8278145695364	25.1740397350993				-0.298172185430464	-0.177271523178808	-0.96794701986755	28.567417218543	40.7464900662252	-8.88026490066225				-0.0154701986754967	-0.144529801324503	-1.36572185430464	-0.597086092715232	30.9835761589404	-43.4556291390729				1.17202649006623	0.307496688741722	0.405933774834437	86.1917880794702	33.3719205298013	-30.8574834437086				0.431788079470199	-0.590834437086093	-0.948238410596026	5.62039735099338	11.9176158940397	-15.874701986755			
84	1880	-0.168158940397351	0.370754966887417	-1.06352317880795	-11.7266225165563	62.8553642384106	36.0550993377484				1.12095364238411	-0.272211920529801	0.781139072847682	-12.7260927152318	50.7078145695364	26.2940397350993				-0.266172185430464	-0.273271523178808	-0.96794701986755	27.447417218543	50.8264900662252	-6.36026490066225				0.176529801324503	-0.0165298013245033	-1.26972185430464	-35.0370860927152	27.6235761589404	-31.6956291390729				1.12402649006623	0.195496688741722	0.421933774834437	78.0717880794702	33.9319205298013	-35.6174834437086				1.1037880794702	-0.878834437086093	-0.964238410596026	-3.05960264900662	34.5976158940397	-32.114701986755			
85	1900	-0.136158940397351	0.354754966887417	-1.04752317880795	-11.4466225165563	68.4553642384106	38.5750993377483				1.07295364238411	-0.0482119205298013	1.02113907284768	-23.0860927152318	59.9478145695364	8.09403973509934				-0.282172185430464	-0.289271523178808	-0.99994701986755	21.287417218543	59.2264900662252	-4.96026490066225				0.224529801324503	0.271470198675497	-1.17372185430464	-38.1170860927152	7.4635761589404	-24.4156291390728				1.20402649006623	0.163496688741722	0.709933774834437	92.0717880794702	52.1319205298013	-26.3774834437086				1.2637880794702	-1.98283443708609	-1.42823841059603	-87.0596026490066	-36.2423841059603	-42.754701986755			
86	1920	-0.072158940397351	0.354754966887417	-0.999523178807947	-8.64662251655629	73.2153642384106	37.4550993377484				1.23295364238411	0.0477880794701987	0.909139072847682	22.2739072847682	52.6678145695364	8.09403973509934				-0.202172185430464	-0.305271523178808	-1.06394701986755	5.32741721854305	63.7064900662252	-6.08026490066225				0.256529801324503	0.367470198675497	-1.15772185430464	-29.9970860927152	-2.3364238410596	-24.9756291390729				1.31602649006623	0.323496688741722	0.773933774834437	-12.9282119205298	42.0519205298013	-37.8574834437086				-0.432211920529801	-1.15083443708609	-0.356238410596026	103.620397350993	-30.9223841059603	29.485298013245			
87	1940	-0.024158940397351	0.450754966887417	-1.01552317880795	-6.68662251655629	78.5353642384106	38.2950993377484				1.26495364238411	-0.240211920529801	0.749139072847682	28.4339072847682	38.3878145695364	3.61403973509934				-0.170172185430464	-0.225271523178808	-1.06394701986755	-1.39258278145695	73.7864900662252	-8.88026490066225				0.176529801324503	0.271470198675497	-1.17372185430464	-15.9970860927152	3.2635761589404	1.34437086092715				1.30002649006623	0.307496688741722	0.597933774834437	-16.5682119205298	17.6919205298013	-21.0574834437086				0.543788079470199	-0.894834437086093	-0.932238410596026	3.94039735099338	53.6376158940397	26.965298013245			
88	1960	-0.008158940397351	0.434754966887417	-1.07952317880795	14.3133774834437	86.9353642384106	37.1750993377484				0	0	0	0	0	0				0	0	0	0	0	0				0.112529801324503	0.111470198675497	-1.20572185430464	-15.1570860927152	18.1035761589404	18.1443708609272				1.15602649006623	0.291496688741722	0.677933774834437	-38.6882119205298	19.9319205298013	-15.1774834437086				0.575788079470199	-0.718834437086093	-0.964238410596026	93.2603973509934	60.0776158940397	13.805298013245			
89	2080	0	0	0	0	0	0				1.10495364238411	0.0157880794701987	0.733139072847682	1.55390728476821	-33.8521854304636	4.45403973509934				0.213827814569536	-0.209271523178808	-0.91994701986755	-17.632582781457	137.626490066225	-18.6802649006623				0.288529801324503	0.255470198675497	-1.02972185430464	-18.5170860927152	72.9835761589404	17.5843708609272				1.06002649006623	0.435496688741722	0.421933774834437	-4.8082119205298	25.8119205298013	-7.61748344370861				0.463788079470199	-0.606834437086093	-0.932238410596026	66.3803973509934	55.8776158940397	-49.194701986755			
90	2100	0.471841059602649	0.194754966887417	-0.839523178807947	40.0733774834437	140.415364238411	31.0150993377483				1.00895364238411	0.0957880794701987	0.685139072847682	18.9139072847682	-27.1321854304636	4.73403973509934				0.245827814569536	-0.113271523178808	-0.88794701986755	-13.432582781457	139.586490066225	-18.6802649006623				0.432529801324503	0.303470198675497	-0.965721854304636	5.00291390728477	73.2635761589404	22.9043708609272				1.06002649006623	0.403496688741722	0.405933774834437	-10.9682119205298	26.6519205298013	-3.69748344370861				0.495788079470199	-0.862834437086093	-0.932238410596026	49.0203973509934	51.6776158940397	-39.114701986755			
91	2120	0.503841059602649	0.114754966887417	-0.839523178807947	34.4733774834437	140.415364238411	32.1350993377484				1.12095364238411	0.0477880794701987	0.573139072847682	18.9139072847682	-13.9721854304636	6.97403973509934				0.357827814569536	-0.0492715231788079	-0.85594701986755	-4.75258278145695	141.546490066225	-23.1602649006623				0.544529801324503	0.159470198675497	-1.02972185430464	29.0829139072848	64.8635761589404	35.7843708609272				1.10802649006623	0.355496688741722	0.421933774834437	-11.2482119205298	19.3719205298013	3.30251655629139				0.607788079470199	-1.00683443708609	-0.788238410596027	21.5803973509934	44.6776158940397	-29.314701986755			
92	2140	0.503841059602649	0.0987549668874172	-0.791523178807947	12.0733774834437	146.855364238411	32.9750993377484				1.12095364238411	-0.0322119205298013	0.605139072847682	-7.40609271523179	-19.2921854304636	4.73403973509934				0.373827814569536	-0.0972715231788079	-0.80794701986755	7.84741721854305	144.626490066225	-25.9602649006623				0.544529801324503	0.0314701986754967	-1.02972185430464	32.1629139072848	63.1835761589404	36.3443708609272				1.06002649006623	0.339496688741722	0.469933774834437	-15.7282119205298	7.05192052980133	7.22251655629139				0.575788079470199	-0.910834437086093	-0.724238410596026	-13.1396026490066	49.9976158940397	-13.354701986755			
93	2160	0.471841059602649	0.162754966887417	-0.679523178807947	1.43337748344371	149.935364238411	35.2150993377483				0.912953642384106	0.0637880794701987	0.557139072847682	-4.32609271523179	-45.8921854304636	-3.38596026490066				0.325827814569536	-0.113271523178808	-0.79194701986755	4.20741721854305	148.546490066225	-28.4802649006623				0.400529801324503	0.0314701986754967	-0.949721854304636	21.8029139072848	68.7835761589404	33.2643708609272				0.964026490066225	0.307496688741722	0.453933774834437	-25.5282119205298	0.611920529801325	10.0225165562914				0.543788079470199	-0.782834437086093	-0.692238410596026	-24.6196026490066	57.8376158940397	-6.35470198675497			
94	2180	0.487841059602649	0.210754966887417	-0.663523178807947	6.47337748344371	152.735364238411	32.6950993377484				0.880953642384106	0.0157880794701987	0.445139072847682	11.0739072847682	-45.3321854304636	-0.0259602649006601				0.325827814569536	-0.113271523178808	-0.69594701986755	-6.43258278145695	154.146490066225	-31.5602649006623				0.384529801324503	0.111470198675497	-0.821721854304636	19.8429139072848	69.9035761589404	31.8643708609272				0.900026490066225	0.259496688741722	0.389933774834437	-26.3682119205298	-3.86807947019868	15.3425165562914				0.527788079470199	-0.638834437086093	-0.644238410596026	-20.9796026490066	53.6376158940397	-9.15470198675497			
95	2200	0.503841059602649	0.226754966887417	-0.631523178807947	16.5533774834437	160.855364238411	31.8550993377483				0.928953642384106	-0.000211920529801304	0.429139072847682	6.87390728476821	-40.8521854304636	-3.66596026490066				0.389827814569536	-0.0492715231788079	-0.59994701986755	-19.592582781457	157.226490066225	-33.8002649006623				0.464529801324503	0.159470198675497	-0.709721854304636	28.8029139072848	64.3035761589404	32.9843708609272				0.852026490066225	0.243496688741722	0.389933774834437	-30.0082119205298	-8.06807947019868	18.7025165562914				0.559788079470199	-0.542834437086093	-0.596238410596026	-16.2196026490066	50.2776158940397	-21.754701986755			
96	2220	0.519841059602649	0.194754966887417	-0.583523178807947	20.7533774834437	165.615364238411	30.7350993377483				0.960953642384106	0.0317880794701987	0.333139072847682	14.1539072847682	-53.7321854304636	-6.18596026490066				0.453827814569536	0.0627284768211921	-0.58394701986755	-17.352582781457	160.586490066225	-29.6002649006623				0.512529801324503	0.0634701986754967	-0.693721854304636	49.2429139072848	59.5435761589404	35.5043708609272				0.820026490066225	0.243496688741722	0.389933774834437	-25.5282119205298	-10.5880794701987	21.5025165562914				0.543788079470199	-0.430834437086093	-0.612238410596026	-10.8996026490066	49.9976158940397	-21.754701986755			
97	2240	0.519841059602649	0.194754966887417	-0.567523178807947	25.7933774834437	174.015364238411	29.3350993377483				0.800953642384106	0.127788079470199	0.301139072847682	29.2739072847682	-80.6121854304636	-7.58596026490066				0.485827814569536	0.0947284768211921	-0.58394701986755	-2.23258278145695	159.746490066225	-27.6402649006623				0.480529801324503	-0.0485298013245033	-0.677721854304636	53.7229139072848	57.5835761589404	31.5843708609272				0.756026490066225	0.259496688741722	0.325933774834437	-28.0482119205298	-22.3480794701987	25.9825165562914				0.479788079470199	-0.430834437086093	-0.548238410596027	14.0203973509934	48.0376158940397	-16.994701986755			
98	2260	0.551841059602649	0.194754966887417	-0.455523178807947	33.6333774834437	173.735364238411	27.6550993377483				0.752953642384106	0.159788079470199	0.221139072847682	34.5939072847682	-96.0121854304636	-2.82596026490066				0.405827814569536	0.0627284768211921	-0.55194701986755	2.24741721854305	155.826490066225	-25.4002649006623				0.400529801324503	-0.0325298013245033	-0.581721854304636	43.0829139072848	53.6635761589404	26.8243708609272				0.708026490066225	0.227496688741722	0.213933774834437	-24.1282119205298	-28.2280794701987	27.6625165562914				0.367788079470199	-0.526834437086093	-0.532238410596027	13.1803973509934	28.1576158940397	-9.99470198675497			
99	2280	0.599841059602649	0.162754966887417	-0.471523178807947	29.7133774834437	171.215364238411	26.5350993377483				0.704953642384106	0.0157880794701987	0.253139072847682	35.1539072847682	-87.8921854304636	10.0540397350993				0.421827814569536	0.0147284768211921	-0.45594701986755	3.92741721854305	157.786490066225	-22.0402649006623				0.304529801324503	-0.000529801324503289	-0.485721854304636	44.2029139072848	50.0235761589404	25.4243708609272				0.660026490066225	0.179496688741722	0.117933774834437	-16.0082119205298	-32.1480794701987	29.9025165562914				0.287788079470199	-0.510834437086093	-0.452238410596026	-17.0596026490066	27.5976158940397	-0.754701986754968			
100	2300	0.615841059602649	0.194754966887417	-0.471523178807947	13.1933774834437	169.255364238411	26.2550993377483				0.608953642384106	-0.000211920529801304	0.0931390728476822	27.3139072847682	-88.7321854304636	6.69403973509934				0.501827814569536	-0.00127152317880793	-0.50394701986755	2.24741721854305	164.506490066225	-25.1202649006623				0.352529801324503	-0.000529801324503289	-0.437721854304636	55.6829139072848	42.4635761589404	29.0643708609272				0.676026490066225	0.115496688741722	0.0539337748344371	-13.4882119205298	-35.2280794701987	34.9425165562914				0.223788079470199	-0.366834437086093	-0.420238410596026	-49.5396026490066	28.1576158940397	2.04529801324503			
101	2320	0.599841059602649	0.146754966887417	-0.423523178807947	12.0733774834437	173.175364238411	17.8550993377483				0.528953642384106	-0.000211920529801304	-0.0668609271523178	25.0739072847682	-94.6121854304636	2.49403973509934				0.613827814569536	0.0147284768211921	-0.47194701986755	-6.43258278145695	157.786490066225	-25.6802649006623				0.384529801324503	-0.0645298013245033	-0.421721854304636	66.6029139072848	34.0635761589404	34.9443708609272				0.612026490066225	0.0194966887417219	0.165933774834437	-7.3282119205298	-44.1880794701987	36.0625165562914				0.175788079470199	-0.238834437086093	-0.404238410596026	-67.4596026490066	38.2376158940397	1.76529801324503			
102	2340	0.647841059602649	0.226754966887417	-0.375523178807947	22.7133774834437	170.935364238411	10.5750993377483				0.464953642384106	0.0477880794701987	-0.0188609271523178	11.3539072847682	-96.8521854304636	-5.90596026490066				0.629827814569536	-0.0172715231788079	-0.48794701986755	0.00741721854304636	146.866490066225	-24.2802649006623				0.336529801324503	-0.176529801324503	-0.469721854304636	74.7229139072848	21.1835761589404	37.7443708609272				0.564026490066225	0.0194966887417219	0.197933774834437	-9.8482119205298	-70.2280794701987	38.0225165562914				0.175788079470199	-0.174834437086093	-0.420238410596026	-59.6196026490066	28.1576158940397	-6.91470198675497			
103	2360	0.631841059602649	0.258754966887417	-0.375523178807947	22.1533774834437	167.015364238411	12.5350993377483				0.464953642384106	0.0477880794701987	0.141139072847682	3.79390728476821	-63.5321854304636	-2.82596026490066				0.661827814569536	0.0147284768211921	-0.48794701986755	-0.272582781456954	140.986490066225	-22.8802649006623				0.304529801324503	-0.240529801324503	-0.517721854304636	65.7629139072848	2.4235761589404	35.7843708609272				0.516026490066225	0.0674966887417219	0.0859337748344371	-15.7282119205298	-84.7880794701987	38.8625165562914				0.191788079470199	-0.158834437086093	-0.452238410596026	-49.8196026490066	18.6376158940397	-16.154701986755			
104	2380	0.647841059602649	0.194754966887417	-0.359523178807947	22.7133774834437	158.615364238411	13.0950993377483				0.592953642384106	-0.000211920529801304	0.269139072847682	0.713907284768212	-37.7721854304636	-1.42596026490066				0.613827814569536	-0.0492715231788079	-0.50394701986755	-5.59258278145695	132.026490066225	-24.5602649006623				0.304529801324503	-0.272529801324503	-0.533721854304636	46.1629139072848	-12.1364238410596	29.0643708609272				0.516026490066225	0.0194966887417219	0.0219337748344371	-3.4082119205298	-81.4280794701987	35.7825165562914				0.175788079470199	-0.158834437086093	-0.468238410596026	-45.8996026490066	20.5976158940397	-21.754701986755			
105	2400	0.759841059602649	0.178754966887417	-0.295523178807947	38.1133774834437	158.055364238411	10.5750993377483				0.592953642384106	0.0477880794701987	0.269139072847682	1.83390728476821	-68.2921854304636	-9.26596026490066				0.629827814569536	-0.0972715231788079	-0.48794701986755	-20.432582781457	121.666490066225	-22.0402649006623				0.272529801324503	-0.288529801324503	-0.549721854304636	34.1229139072848	-24.4564238410596	24.8643708609272				0.500026490066225	0.0194966887417219	0.101933774834437	0.231788079470198	-70.7880794701987	30.4625165562914				0.191788079470199	-0.158834437086093	-0.468238410596026	-57.9396026490066	20.5976158940397	-21.754701986755			
106	2420	0.807841059602649	0.146754966887417	-0.263523178807947	54.6333774834437	153.295364238411	9.45509933774835				0.528953642384106	0.143788079470199	0.0451390728476822	16.6739072847682	-83.9721854304636	-15.7059602649007				0.741827814569536	-0.0812715231788079	-0.40794701986755	-30.512582781457	120.546490066225	-13.0802649006623				0.288529801324503	-0.272529801324503	-0.581721854304636	22.3629139072848	-35.6564238410596	26.5443708609272				0.548026490066225	0.0514966887417219	0.101933774834437	-2.2882119205298	-68.5480794701987	25.9825165562914				0.223788079470199	-0.190834437086093	-0.484238410596026	-57.6596026490066	20.5976158940397	-18.114701986755			
107	2440	0	0	0	0	0	0				0.528953642384106	0.159788079470199	-0.0348609271523178	28.7139072847682	-46.7321854304636	-11.7859602649007				0.837827814569536	-0.00127152317880793	-0.32794701986755	-24.632582781457	110.746490066225	-3.56026490066225				0.304529801324503	-0.256529801324503	-0.613721854304636	15.9229139072848	-42.9364238410596	30.4643708609272				0.580026490066225	0.0674966887417219	0.0539337748344371	-4.2482119205298	-64.3480794701987	21.2225165562914				0.255788079470199	-0.238834437086093	-0.468238410596026	-49.2596026490066	6.59761589403974	-18.674701986755			
108	2460	0.823841059602649	-0.0452450331125828	-0.167523178807947	45.3933774834437	133.415364238411	13.6550993377483				0.656953642384106	0.111788079470199	0.141139072847682	7.99390728476821	-27.6921854304636	-10.3859602649007				0.885827814569536	-0.0812715231788079	-0.29594701986755	-34.992582781457	91.7064900662252	2.59973509933775				0.336529801324503	-0.288529801324503	-0.629721854304636	10.3229139072848	-44.0564238410596	28.5043708609272				0.644026490066225	0.0674966887417219	0.0539337748344371	-0.0482119205298018	-58.1880794701987	15.6225165562914				0.287788079470199	-0.270834437086093	-0.500238410596026	-58.2196026490066	-4.88238410596027	-19.234701986755			
109	2480	0.839841059602649	-0.109245033112583	-0.055523178807947	34.4733774834437	119.975364238411	19.2550993377483				0.608953642384106	0.143788079470199	0.317139072847682	6.31390728476821	-35.5321854304636	-8.70596026490066				0.837827814569536	-0.0972715231788079	-0.26394701986755	-28.552582781457	80.7864900662252	3.99973509933775				0.320529801324503	-0.272529801324503	-0.645721854304636	6.68291390728477	-49.3764238410596	21.7843708609272				0.644026490066225	0.0834966887417219	0.0699337748344371	-3.6882119205298	-59.0280794701987	10.5825165562914				0.351788079470199	-0.254834437086093	-0.532238410596027	-64.0996026490066	-6.84238410596027	-12.514701986755			
110	2500	0.967841059602649	-0.109245033112583	-0.023523178807947	41.4733774834437	100.375364238411	13.0950993377483				0.576953642384106	0.111788079470199	0.301139072847682	19.1939072847682	-26.5721854304636	-11.2259602649007				0.853827814569536	-0.0172715231788079	-0.21594701986755	-23.792582781457	72.9464900662252	3.71973509933775				0.288529801324503	-0.208529801324503	-0.677721854304636	-5.63708609271523	-58.8964238410596	16.7443708609272				0.644026490066225	0.0674966887417219	0.0379337748344371	-2.5682119205298	-57.9080794701987	6.66251655629139				0.367788079470199	-0.286834437086093	-0.564238410596026	-59.0596026490066	-12.4423841059603	-6.35470198675497			
111	2520	1.07984105960265	-0.0452450331125828	0.024476821192053	27.1933774834437	86.3753642384106	-0.624900662251656				0.816953642384106	0.0317880794701987	0.269139072847682	13.0339072847682	-2.21218543046358	-11.7859602649007				0.933827814569536	0.0467284768211921	-0.23194701986755	-18.472582781457	61.7464900662252	5.67973509933775				0.256529801324503	-0.208529801324503	-0.677721854304636	-13.7570860927152	-64.4964238410596	11.7043708609272				0.660026490066225	0.0834966887417219	0.0699337748344371	-2.8482119205298	-50.3480794701987	1.90251655629139				0.367788079470199	-0.254834437086093	-0.580238410596026	-57.0996026490066	-18.6023841059603	-0.194701986754968			
112	2540	1.11184105960265	0.0187549668874172	0.00847682119205304	-0.246622516556291	70.6953642384106	-0.904900662251656				0.880953642384106	0.0797880794701987	0.381139072847682	24.2339072847682	-7.81218543046358	-6.74596026490066				1.04582781456954	0.0307284768211921	-0.19994701986755	0.00741721854304636	51.1064900662252	7.07973509933775				0.208529801324503	-0.208529801324503	-0.725721854304636	-20.1970860927152	-64.2164238410596	3.30437086092715				0.740026490066225	0.0834966887417219	0.0379337748344371	0.231788079470198	-35.7880794701987	-1.73748344370861				0.367788079470199	-0.206834437086093	-0.676238410596026	-51.4996026490066	-17.2023841059603	8.76529801324503			
113	2560	1.14384105960265	0.0827549668874172	-0.135523178807947	-15.9266225165563	49.1353642384106	6.65509933774834				0.768953642384106	0.159788079470199	0.237139072847682	15.8339072847682	-29.6521854304636	-5.34596026490066				1.02982781456954	0.0147284768211921	-0.15194701986755	11.767417218543	41.0264900662252	3.43973509933775				0.192529801324503	-0.224529801324503	-0.789721854304636	-17.3970860927152	-54.9764238410596	-2.85562913907285				0.820026490066225	0.115496688741722	0.0699337748344371	-4.2482119205298	-20.9480794701987	-4.53748344370861				0.447788079470199	-0.238834437086093	-0.724238410596026	-42.2596026490066	-15.5223841059603	15.765298013245			
114	2580	1.07984105960265	0.178754966887417	-0.263523178807947	-12.2866225165563	23.6553642384106	7.77509933774834				0.784953642384106	0.111788079470199	0.301139072847682	2.67390728476821	-4.73218543046358	-6.46596026490066				0.965827814569536	0.0627284768211921	-0.0559470198675496	15.407417218543	30.3864900662252	-3.28026490066225				0.224529801324503	-0.240529801324503	-0.805721854304636	-5.91708609271523	-37.3364238410596	-8.17562913907285				0.884026490066225	0.147496688741722	0.0219337748344371	-8.1682119205298	-16.7480794701987	-6.21748344370861				0.527788079470199	-0.350834437086093	-0.708238410596026	-36.3796026490066	-15.8023841059603	18.005298013245			
115	2600	1.06384105960265	0.0507549668874172	-0.119523178807947	9.55337748344371	0.415364238410596	12.8150993377483				0.960953642384106	0.0637880794701987	0.397139072847682	8.27390728476821	12.9078145695364	-5.06596026490066				0.965827814569536	0.0787284768211921	0.0240529801324504	11.767417218543	27.3064900662252	-9.16026490066225				0.192529801324503	-0.272529801324503	-0.789721854304636	4.16291390728477	-9.0564238410596	-9.29562913907285				0.884026490066225	0.115496688741722	0.0219337748344371	-6.7682119205298	-7.22807947019868	-7.33748344370861				0.559788079470199	-0.302834437086093	-0.660238410596027	-36.9396026490066	-9.64238410596027	21.085298013245			
116	2620	0.983841059602649	0.00275496688741723	0.072476821192053	26.0733774834437	-4.3446357615894	14.7750993377483				1.00895364238411	0.0637880794701987	0.285139072847682	11.9139072847682	7.58781456953643	-1.42596026490066				0.965827814569536	0.0947284768211921	0.0560529801324504	27.727417218543	21.1464900662252	-13.0802649006623				0.144529801324503	-0.224529801324503	-0.773721854304636	13.6829139072848	20.6235761589404	-5.65562913907285				0.900026490066225	0.115496688741722	0.0699337748344371	-8.1682119205298	5.93192052980133	-8.73748344370861				0.511788079470199	-0.302834437086093	-0.612238410596026	-35.8196026490066	-6.84238410596027	21.645298013245			
117	2640	0.871841059602649	-0.0452450331125828	0.280476821192053	45.6733774834437	6.0153642384106	10.8550993377483				0.960953642384106	-0.0162119205298013	0.301139072847682	-0.406092715231788	-3.33218543046358	-1.70596026490066				0.933827814569536	0.0467284768211921	0.0400529801324504	36.6874172185431	22.8264900662252	-17.2802649006623				0.288529801324503	-0.144529801324503	-0.773721854304636	10.8829139072848	27.6235761589404	-0.895629139072848				0.884026490066225	0.0834966887417219	0.133933774834437	-22.7282119205298	11.8119205298013	-7.61748344370861				0.527788079470199	-0.334834437086093	-0.644238410596026	-30.2196026490066	-5.16238410596027	24.165298013245			
118	2660	0.823841059602649	-0.0452450331125828	0.440476821192053	54.3533774834437	27.0153642384106	6.65509933774834				0.912953642384106	-0.0482119205298013	0.317139072847682	-11.6060927152318	-12.8521854304636	-2.54596026490066				0.949827814569536	0.0147284768211921	0.0400529801324504	35.007417218543	26.4664900662252	-19.8002649006623				0.448529801324503	-0.176529801324503	-0.789721854304636	-12.6370860927152	17.5435761589404	4.70437086092715				0.868026490066225	0.0674966887417219	0.197933774834437	-25.8082119205298	16.5719205298013	-3.41748344370861				0.575788079470199	-0.366834437086093	-0.612238410596026	-22.0996026490066	3.23761589403974	27.245298013245			
119	2680	0.887841059602649	-0.0452450331125828	0.536476821192053	39.7933774834437	34.0153642384106	2.17509933774834				0.896953642384106	-0.0162119205298013	0.253139072847682	-13.2860927152318	-17.6121854304636	-3.94596026490066				0.997827814569536	-0.0972715231788079	-0.0239470198675496	30.5274172185431	23.1064900662252	-20.0802649006623				0.448529801324503	-0.208529801324503	-0.853721854304636	-28.0370860927152	17.2635761589404	9.18437086092715				0.900026490066225	0.0674966887417219	0.197933774834437	-30.2882119205298	10.4119205298013	-0.337483443708608				0.623788079470199	-0.398834437086093	-0.644238410596026	-17.0596026490066	16.3976158940397	26.125298013245			
120	2700	0.951841059602649	-0.0612450331125828	0.472476821192053	13.7533774834437	25.8953642384106	-0.904900662251656				0.960953642384106	-0.000211920529801304	0.173139072847682	-14.9660927152318	-11.7321854304636	-2.26596026490066				0.981827814569536	-0.113271523178808	-0.0559470198675496	16.807417218543	15.5464900662252	-21.4802649006623				0.432529801324503	-0.224529801324503	-0.901721854304636	-14.3170860927152	14.4635761589404	12.5443708609272				0.980026490066225	0.0834966887417219	0.165933774834437	-30.8482119205298	7.33192052980133	1.90251655629139				0.639788079470199	-0.446834437086093	-0.676238410596026	3.94039735099338	10.5176158940397	21.925298013245			
121	2720	0.935841059602649	-0.0772450331125828	0.376476821192053	-10.6066225165563	22.2553642384106	-1.46490066225166				1.02495364238411	-0.0162119205298013	0.205139072847682	-29.2460927152318	-9.21218543046358	-2.26596026490066				0.981827814569536	-0.193271523178808	0.0240529801324504	20.447417218543	9.10649006622517	-23.4402649006623				0.416529801324503	-0.224529801324503	-0.837721854304636	-1.71708609271523	8.8635761589404	14.5043708609272				0.996026490066225	0.0674966887417219	0.181933774834437	-32.5282119205298	7.05192052980133	2.46251655629139				0.623788079470199	-0.446834437086093	-0.692238410596026	3.10039735099338	9.39761589403974	20.805298013245			
122	2740	0.967841059602649	-0.0612450331125828	0.344476821192053	-11.4466225165563	34.0153642384106	-2.58490066225166				0.960953642384106	0.0317880794701987	0.285139072847682	-35.9660927152318	-3.89218543046358	-2.26596026490066				0.965827814569536	-0.289271523178808	0.00805298013245037	20.447417218543	0.986490066225167	-20.6402649006623				0.480529801324503	-0.208529801324503	-0.805721854304636	-1.99708609271523	8.0235761589404	19.2643708609272				0.964026490066225	0.0674966887417219	0.197933774834437	-42.6082119205298	-0.788079470198675	4.14251655629139				0.575788079470199	-0.414834437086093	-0.724238410596026	-7.53960264900662	10.5176158940397	18.285298013245			
123	2760	0.983841059602649	-0.0452450331125828	0.280476821192053	-13.9666225165563	39.3353642384106	-2.02490066225166				0.912953642384106	0.111788079470199	0.269139072847682	-30.6460927152318	-12.5721854304636	-3.66596026490066				0.965827814569536	-0.337271523178808	0.0880529801324504	2.24741721854305	2.38649006622517	-10.0002649006623				0.560529801324503	-0.208529801324503	-0.789721854304636	-8.15708609271523	6.0635761589404	27.3843708609272				0.916026490066225	0.163496688741722	0.149933774834437	-40.0882119205298	-0.508079470198675	4.98251655629139				0.527788079470199	-0.318834437086093	-0.724238410596026	-7.81960264900662	12.4776158940397	18.565298013245			
124	2780	1.03184105960265	0.00275496688741723	0.200476821192053	-19.0066225165563	32.8953642384106	-0.344900662251656				0.928953642384106	0.175788079470199	0.205139072847682	-21.1260927152318	-9.77218543046358	-1.42596026490066				1.01382781456954	-0.209271523178808	0.10405298013245	-20.712582781457	2.38649006622517	0.0797350993377501				0.592529801324503	-0.208529801324503	-0.821721854304636	-19.0770860927152	2.4235761589404	28.7843708609272				0.916026490066225	0.179496688741722	0.181933774834437	-33.9282119205298	-1.34807947019868	6.38251655629139				0.479788079470199	-0.286834437086093	-0.724238410596026	-11.7396026490066	9.95761589403974	19.405298013245			
125	2800	1.04784105960265	0.0187549668874172	0.104476821192053	-25.4466225165563	17.2153642384106	1.61509933774834				0.960953642384106	0.175788079470199	0.221139072847682	-12.7260927152318	1.42781456953642	1.09403973509934				1.06182781456954	-0.0812715231788079	0.0400529801324504	-20.432582781457	2.38649006622517	7.35973509933775				0.608529801324503	-0.192529801324503	-0.821721854304636	-19.9170860927152	4.1035761589404	28.5043708609272				0.948026490066225	0.179496688741722	0.165933774834437	-26.9282119205298	0.331920529801325	3.86251655629139				0.479788079470199	-0.254834437086093	-0.756238410596026	-15.9396026490066	4.07761589403974	20.245298013245			
126	2820	1.04784105960265	0.0347549668874172	0.024476821192053	-23.2066225165563	1.2553642384106	3.01509933774834				1.00895364238411	0.143788079470199	0.285139072847682	-11.8860927152318	10.3878145695364	5.01403973509934				1.06182781456954	-0.0172715231788079	0.0560529801324504	-6.71258278145695	2.94649006622517	10.1597350993378				0.576529801324503	-0.208529801324503	-0.821721854304636	-9.83708609271523	6.3435761589404	22.6243708609272				0.964026490066225	0.179496688741722	0.149933774834437	-17.6882119205298	4.25192052980133	2.18251655629139				0.479788079470199	-0.238834437086093	-0.772238410596026	-14.8196026490066	5.19761589403974	16.325298013245			
127	2840	0.983841059602649	0.00275496688741723	0.072476821192053	-2.76662251655629	-3.2246357615894	4.13509933774834				1.00895364238411	0.0477880794701987	0.333139072847682	-9.92609271523179	14.3078145695364	6.69403973509934				1.02982781456954	0.0467284768211921	0.0400529801324504	-5.87258278145695	2.66649006622517	7.35973509933775				0.496529801324503	-0.240529801324503	-0.837721854304636	0.802913907284768	14.4635761589404	17.0243708609272				0.964026490066225	0.147496688741722	0.165933774834437	-12.9282119205298	10.4119205298013	0.782516556291392				0.495788079470199	-0.222834437086093	-0.820238410596026	-2.21960264900662	9.95761589403974	8.76529801324503			
128	2860	0.951841059602649	-0.0452450331125828	0.184476821192053	15.7133774834437	3.2153642384106	2.73509933774834				0.976953642384106	0.0317880794701987	0.237139072847682	-11.8860927152318	11.7878145695364	6.69403973509934				0.981827814569536	0.0787284768211921	0.0400529801324504	-0.832582781456954	3.50649006622517	4.55973509933775				0.448529801324503	-0.272529801324503	-0.821721854304636	-7.31708609271523	19.5035761589404	9.74437086092715				0.932026490066225	0.0834966887417219	0.165933774834437	-4.8082119205298	18.8119205298013	-1.73748344370861				0.511788079470199	-0.286834437086093	-0.788238410596027	18.5003973509934	2.67761589403974	2.04529801324503			
129	2880	0.935841059602649	-0.0452450331125828	0.312476821192053	21.3133774834437	6.5753642384106	2.17509933774834				0.992953642384106	-0.000211920529801304	0.237139072847682	-7.96609271523179	10.6678145695364	7.81403973509934				0.981827814569536	0.0627284768211921	0.00805298013245037	3.36741721854305	8.26649006622517	0.91973509933775				0.416529801324503	-0.240529801324503	-0.789721854304636	-14.3170860927152	22.8635761589404	9.46437086092715				0.916026490066225	0.0514966887417219	0.165933774834437	-4.2482119205298	18.8119205298013	-0.617483443708608				0.543788079470199	-0.366834437086093	-0.772238410596026	20.7403973509934	-7.12238410596027	1.48529801324503			
130	2900	0.967841059602649	-0.0612450331125828	0.344476821192053	9.83337748344371	2.3753642384106	-0.344900662251656				0.960953642384106	0.0157880794701987	0.237139072847682	-10.2060927152318	7.86781456953642	7.25403973509934				0.949827814569536	-0.00127152317880793	-0.0399470198675496	4.20741721854305	11.6264900662252	-1.04026490066225				0.416529801324503	-0.208529801324503	-0.773721854304636	-13.7570860927152	23.9835761589404	11.9843708609272				0.932026490066225	0.0354966887417219	0.149933774834437	-2.5682119205298	23.0119205298013	1.62251655629139				0.495788079470199	-0.414834437086093	-0.724238410596026	15.1403973509934	-13.5623841059603	3.16529801324503			
131	2920	0.983841059602649	-0.0292450331125828	0.280476821192053	-4.72662251655629	-6.5846357615894	-2.30490066225166				0.928953642384106	0.0797880794701987	0.205139072847682	-13.2860927152318	1.14781456953642	4.17403973509934				0.965827814569536	-0.0492715231788079	-0.0559470198675496	2.52741721854305	12.7464900662252	0.91973509933775				0.400529801324503	-0.160529801324503	-0.773721854304636	-8.71708609271523	23.4235761589404	12.5443708609272				0.932026490066225	0.0514966887417219	0.165933774834437	-4.8082119205298	18.2519205298013	2.46251655629139				0.479788079470199	-0.414834437086093	-0.660238410596027	8.98039735099338	-6.56238410596027	6.52529801324503			
132	2940	0.983841059602649	0.00275496688741723	0.232476821192053	-11.4466225165563	-7.4246357615894	-1.18490066225166				0.960953642384106	0.0477880794701987	0.157139072847682	-9.08609271523179	5.90781456953642	3.89403973509934				0.981827814569536	-0.0652715231788079	-0.0399470198675496	-5.59258278145695	11.0664900662252	2.03973509933775				0.448529801324503	-0.160529801324503	-0.789721854304636	-1.99708609271523	20.9035761589404	9.46437086092715				0.948026490066225	0.0514966887417219	0.149933774834437	-7.8882119205298	15.7319205298013	2.74251655629139				0.463788079470199	-0.382834437086093	-0.724238410596026	11.5003973509934	-1.24238410596026	8.76529801324503			
133	2960	0.951841059602649	0.0187549668874172	0.216476821192053	-7.52662251655629	-2.1046357615894	0.215099337748344				0.976953642384106	0.0157880794701987	0.205139072847682	-9.36609271523179	5.90781456953642	5.01403973509934				1.01382781456954	-0.0492715231788079	-0.0239470198675496	-6.99258278145695	3.22649006622517	3.15973509933775				0.528529801324503	-0.208529801324503	-0.821721854304636	3.32291390728477	15.3035761589404	4.42437086092715				0.980026490066225	0.0674966887417219	0.149933774834437	-5.9282119205298	13.7719205298013	3.58251655629139				0.463788079470199	-0.366834437086093	-0.724238410596026	18.7803973509934	3.23761589403974	9.60529801324503			
134	2980	0.951841059602649	0.0187549668874172	0.264476821192053	-2.76662251655629	4.6153642384106	-1.46490066225166				0.976953642384106	0.0477880794701987	0.189139072847682	-12.4460927152318	8.42781456953642	4.73403973509934				1.02982781456954	-0.0492715231788079	-0.0559470198675496	-5.31258278145695	-2.37350993377483	3.15973509933775				0.576529801324503	-0.240529801324503	-0.837721854304636	1.08291390728477	7.4635761589404	-1.73562913907285				0.980026490066225	0.0834966887417219	0.165933774834437	-1.1682119205298	9.29192052980133	2.46251655629139				0	0	0	0	0	0			
135	3000	0.967841059602649	0.00275496688741723	0.280476821192053	-7.24662251655629	4.8953642384106	-3.14490066225166				0	0	0	0	0	0				0	0	0	0	0	0				0	0	0	0	0	0				0	0	0	0	0	0				0	0	0	0	0	0			
136	3100	0.983841059602649	0.00275496688741723	0.136476821192053	2.83337748344371	0.415364238410596	0.215099337748344				0.976953642384106	0.0957880794701987	0.189139072847682	5.75390728476821	8.70781456953642	3.33403973509934				0.981827814569536	-0.00127152317880793	-0.10394701986755	5.88741721854305	6.02649006622517	2.31973509933775				0	0	0	0	0	0				0	0	0	0	0	0				0	0	0	0	0	0			
137	3120	0.967841059602649	0.0187549668874172	0.152476821192053	5.35337748344371	0.415364238410596	-1.18490066225166				0.976953642384106	0.0637880794701987	0.221139072847682	1.27390728476821	8.14781456953643	2.77403973509934				0.981827814569536	-0.0172715231788079	-0.10394701986755	1.40741721854305	7.14649006622517	2.87973509933775				0	0	0	0	0	0				0.964026490066225	0.0834966887417219	0.149933774834437	1.6317880794702	7.89192052980133	-0.897483443708608				0.463788079470199	-0.382834437086093	-0.708238410596026	1.98039735099338	-5.72238410596027	4.56529801324503			
138	3140	0.967841059602649	0.0187549668874172	0.136476821192053	3.95337748344371	-2.3846357615894	-2.02490066225166				0.960953642384106	0.0317880794701987	0.205139072847682	-0.686092715231788	6.46781456953642	4.17403973509934				0.997827814569536	-0.0492715231788079	-0.10394701986755	0.567417218543046	4.90649006622517	3.99973509933775				0.448529801324503	-0.240529801324503	-0.853721854304636	-3.95708609271523	3.2635761589404	-2.85562913907285				0.964026490066225	0.0674966887417219	0.149933774834437	5.5517880794702	9.57192052980133	-0.897483443708608				0.479788079470199	-0.366834437086093	-0.724238410596026	8.70039735099338	-4.32238410596027	4.28529801324503			
139	3160	0.983841059602649	0.00275496688741723	0.136476821192053	-1.36662251655629	-5.1846357615894	-1.18490066225166				0.976953642384106	0.0477880794701987	0.205139072847682	-0.406092715231788	8.98781456953643	4.45403973509934				0.981827814569536	-0.0492715231788079	-0.0879470198675496	1.96741721854305	-0.133509933774833	2.31973509933775				0.432529801324503	-0.240529801324503	-0.821721854304636	-3.95708609271523	2.9835761589404	-1.73562913907285				0.948026490066225	0.0674966887417219	0.149933774834437	6.1117880794702	9.57192052980133	-0.617483443708608				0.479788079470199	-0.382834437086093	-0.708238410596026	14.5803973509934	-4.04238410596027	4.28529801324503			
140	3180	0.983841059602649	-0.0292450331125828	0.152476821192053	-1.92662251655629	-4.6246357615894	-1.46490066225166				0.976953642384106	0.0317880794701987	0.221139072847682	-0.966092715231788	7.86781456953642	4.45403973509934				0.981827814569536	-0.0332715231788079	-0.0719470198675496	1.12741721854305	-2.93350993377483	1.75973509933775				0.432529801324503	-0.240529801324503	-0.821721854304636	-4.51708609271523	2.7035761589404	3.02437086092715				0.948026490066225	0.0514966887417219	0.181933774834437	4.9917880794702	9.29192052980133	-0.337483443708608				0.479788079470199	-0.430834437086093	-0.676238410596026	10.9403973509934	-4.88238410596027	4.00529801324503			
141	3200	0.967841059602649	-0.0292450331125828	0.152476821192053	-0.246622516556291	-2.6646357615894	-0.624900662251656				0.976953642384106	0.0477880794701987	0.173139072847682	-3.20609271523179	5.90781456953642	3.05403973509934				0.981827814569536	-0.00127152317880793	-0.0719470198675496	-0.272582781456954	-2.65350993377483	0.91973509933775				0.432529801324503	-0.224529801324503	-0.805721854304636	-4.79708609271523	2.9835761589404	7.22437086092715				0.948026490066225	0.0674966887417219	0.197933774834437	5.2717880794702	11.5319205298013	-0.0574834437086077				0.495788079470199	-0.430834437086093	-0.708238410596026	0.0203973509933773	-0.122384105960265	4.28529801324503			
142	3220	0.951841059602649	-0.0132450331125828	0.168476821192053	-2.20662251655629	-0.984635761589404	-1.18490066225166				1.00895364238411	0.0317880794701987	0.205139072847682	-2.08609271523179	5.06781456953642	2.49403973509934				0.981827814569536	-0.00127152317880793	-0.0719470198675496	1.96741721854305	-3.49350993377483	0.35973509933775				0.432529801324503	-0.224529801324503	-0.821721854304636	-2.55708609271523	3.5435761589404	8.06437086092715				0.980026490066225	0.0354966887417219	0.181933774834437	-1.1682119205298	5.93192052980133	-0.337483443708608				0.495788079470199	-0.382834437086093	-0.708238410596026	-3.61960264900662	3.79761589403974	0.365298013245032			
143	3240	0.967841059602649	0.00275496688741723	0.152476821192053	-4.72662251655629	0.135364238410596	-2.30490066225166				0.992953642384106	0.0477880794701987	0.205139072847682	-2.08609271523179	1.98781456953642	2.21403973509934				0.965827814569536	-0.00127152317880793	-0.0719470198675496	1.68741721854305	-3.49350993377483	0.35973509933775				0.464529801324503	-0.224529801324503	-0.821721854304636	1.92291390728477	5.5035761589404	8.34437086092715				0.964026490066225	0.0674966887417219	0.181933774834437	-5.3682119205298	6.49192052980132	-0.0574834437086077				0.479788079470199	-0.350834437086093	-0.724238410596026	3.10039735099338	9.39761589403974	-4.67470198675497			
144	3260	0.967841059602649	0.00275496688741723	0.136476821192053	-5.56662251655629	-0.704635761589404	-3.14490066225166				0.976953642384106	0.0317880794701987	0.205139072847682	-5.44609271523179	5.34781456953642	2.21403973509934				0.965827814569536	-0.00127152317880793	-0.0559470198675496	-4.19258278145695	-0.413509933774833	0.35973509933775				0.480529801324503	-0.240529801324503	-0.853721854304636	-1.43708609271523	2.4235761589404	7.50437086092715				0.948026490066225	0.0834966887417219	0.181933774834437	-1.1682119205298	5.09192052980133	0.222516556291392				0.463788079470199	-0.350834437086093	-0.724238410596026	10.6603973509934	8.83761589403974	-6.91470198675497			
145	3280	0.983841059602649	0.00275496688741723	0.136476821192053	-4.72662251655629	-1.2646357615894	-3.14490066225166				0.976953642384106	0.0477880794701987	0.269139072847682	-6.84609271523179	4.50781456953642	1.37403973509934				0.965827814569536	-0.0172715231788079	-0.0559470198675496	-2.51258278145695	0.426490066225167	0.0797350993377501				0.480529801324503	-0.224529801324503	-0.853721854304636	-8.71708609271523	1.3035761589404	5.82437086092715				0.964026490066225	0.0834966887417219	0.181933774834437	-1.1682119205298	4.53192052980133	-0.617483443708608				0.463788079470199	-0.398834437086093	-0.740238410596026	11.2203973509934	5.47761589403974	-6.63470198675497			
146	3300	0.983841059602649	0.0187549668874172	0.120476821192053	-1.64662251655629	-2.3846357615894	-2.02490066225166				0.976953642384106	0.0637880794701987	0.221139072847682	-3.20609271523179	1.14781456953642	1.09403973509934				0.981827814569536	-0.0172715231788079	-0.0719470198675496	-3.07258278145695	-0.133509933774833	-0.76026490066225				0.480529801324503	-0.224529801324503	-0.821721854304636	-11.5170860927152	-1.7764238410596	2.74437086092715				0.964026490066225	0.0834966887417219	0.197933774834437	1.0717880794702	2.85192052980133	0.502516556291392				0.479788079470199	-0.414834437086093	-0.724238410596026	8.14039735099338	5.19761589403974	-4.67470198675497			
147	3320	0.983841059602649	0.0187549668874172	0.152476821192053	-0.526622516556291	-2.3846357615894	-1.18490066225166				0.976953642384106	0.0637880794701987	0.205139072847682	-2.36609271523179	7.02781456953642	1.93403973509934				0.981827814569536	-0.0172715231788079	-0.0719470198675496	-3.35258278145695	-1.53350993377483	-0.20026490066225				0.448529801324503	-0.208529801324503	-0.805721854304636	-5.07708609271523	-0.0964238410596001	2.46437086092715				0.980026490066225	0.0834966887417219	0.181933774834437	-2.0082119205298	2.57192052980133	-1.45748344370861				0.495788079470199	-0.430834437086093	-0.740238410596026	3.10039735099338	5.75761589403974	-2.15470198675497			
148	3340	0.967841059602649	0.00275496688741723	0.168476821192053	-1.64662251655629	-3.2246357615894	-1.46490066225166				0.992953642384106	0.0637880794701987	0.253139072847682	-1.80609271523179	3.38781456953642	1.65403973509934				0.981827814569536	-0.00127152317880793	-0.0879470198675496	-1.39258278145695	-1.81350993377483	0.91973509933775				0.448529801324503	-0.192529801324503	-0.789721854304636	-0.317086092715232	2.9835761589404	2.18437086092715				0.948026490066225	0.0834966887417219	0.165933774834437	-0.608211920529802	4.25192052980133	-0.897483443708608				0.495788079470199	-0.398834437086093	-0.740238410596026	1.14039735099338	6.31761589403974	0.645298013245032			
149	3360	0.983841059602649	0.0187549668874172	0.168476821192053	-3.04662251655629	-4.3446357615894	-2.58490066225166				0.960953642384106	0.0477880794701987	0.205139072847682	0.433907284768212	0.0278145695364242	1.93403973509934				0.981827814569536	-0.0172715231788079	-0.10394701986755	-1.39258278145695	-2.65350993377483	0.0797350993377501				0.464529801324503	-0.224529801324503	-0.805721854304636	0.802913907284768	4.9435761589404	0.504370860927152				0.948026490066225	0.0834966887417219	0.197933774834437	2.4717880794702	4.53192052980133	0.502516556291392				0.495788079470199	-0.382834437086093	-0.724238410596026	1.70039735099338	2.67761589403974	1.76529801324503			
