No	Time	12-AccX	12-AccY	12-AccZ	12-GyroX	12-GyroY	12-GyroZ	13-AccX	13-AccY	13-AccZ	13-GyroX	13-GyroY	13-GyroZ	14-AccX	14-AccY	14-AccZ	14-GyroX	14-GyroY	14-GyroZ	15-AccX	15-AccY	15-AccZ	15-GyroX	15-GyroY	15-GyroZ	16-AccX	16-AccY	16-AccZ	16-GyroX	16-GyroY	16-GyroZ	17-AccX	17-AccY	17-AccZ	17-GyroX	17-GyroY	17-GyroZ
0	100	0	0	0	0	0	0				0	0	0	0	0	0				0	0	0	0	0	0				0	0	0	0	0	0				0.852026490066225	0.0194966887417219	0.469933774834437	-1.7282119205298	-1.34807947019868	-0.617483443708608				0.159788079470199	-0.382834437086093	-0.868238410596026	0.300397350993377	1.55761589403974	-1.87470198675497			
1	120	0	0	0	0	0	0				0	0	0	0	0	0				0	0	0	0	0	0				0.256529801324503	0.0634701986754967	-0.949721854304636	3.60291390728477	3.2635761589404	-0.335629139072848				0.852026490066225	0.0514966887417219	0.485933774834437	-1.7282119205298	-2.74807947019868	-1.45748344370861				0.159788079470199	-0.382834437086093	-0.868238410596026	0.580397350993377	-0.122384105960265	-1.31470198675497			
2	140	-0.232158940397351	0.0187549668874172	-0.935523178807947	0.593377483443709	0.135364238410596	-1.18490066225166				0.992953642384106	0.111788079470199	0.0931390728476822	-0.686092715231788	-1.65218543046358	-0.585960264900661				-0.218172185430464	-0.0652715231788079	-0.88794701986755	1.12741721854305	0.706490066225167	0.35973509933775				0.240529801324503	0.0314701986754967	-0.949721854304636	2.76291390728477	7.4635761589404	-0.335629139072848				0.852026490066225	0.0354966887417219	0.485933774834437	0.511788079470198	-2.74807947019868	-1.45748344370861				0.143788079470199	-0.382834437086093	-0.852238410596026	2.26039735099338	0.997615894039735	-1.87470198675497			
3	160	-0.232158940397351	0.00275496688741723	-0.935523178807947	0.0333774834437086	-0.144635761589404	-0.904900662251656				0.976953642384106	0.0957880794701987	0.0931390728476822	-1.24609271523179	-3.33218543046358	-0.0259602649006601				-0.218172185430464	-0.0812715231788079	-0.88794701986755	0.287417218543046	-0.413509933774833	0.0797350993377501				0.256529801324503	0.0154701986754967	-0.901721854304636	3.32291390728477	6.0635761589404	-0.615629139072848				0.852026490066225	0.0194966887417219	0.469933774834437	0.791788079470198	-0.788079470198675	-0.0574834437086077				0.143788079470199	-0.398834437086093	-0.852238410596026	0.0203973509933773	2.39761589403974	-1.87470198675497			
4	180	-0.232158940397351	0.00275496688741723	-0.951523178807947	-0.246622516556291	0.135364238410596	-0.624900662251656				0.992953642384106	0.0797880794701987	0.0771390728476822	-4.32609271523179	-4.17218543046358	-1.70596026490066				-0.218172185430464	-0.0812715231788079	-0.88794701986755	1.12741721854305	0.146490066225167	-0.48026490066225				0.272529801324503	0.0314701986754967	-0.933721854304636	3.04291390728477	2.9835761589404	-1.17562913907285				0.868026490066225	0.0194966887417219	0.469933774834437	-1.4482119205298	0.611920529801325	-1.45748344370861				0.159788079470199	-0.414834437086093	-0.852238410596026	-2.49960264900662	1.55761589403974	-1.03470198675497			
5	200	-0.232158940397351	0.00275496688741723	-0.935523178807947	-0.246622516556291	-0.144635761589404	-0.624900662251656				0.992953642384106	0.0957880794701987	0.0611390728476822	-5.44609271523179	-4.73218543046358	-2.54596026490066				-0.218172185430464	-0.0652715231788079	-0.90394701986755	0.567417218543046	0.706490066225167	-0.48026490066225				0.288529801324503	0.0474701986754967	-0.965721854304636	-0.0370860927152318	0.4635761589404	-0.0556291390728476				0.868026490066225	0.0194966887417219	0.469933774834437	-0.608211920529802	-1.62807947019868	-1.45748344370861				0.175788079470199	-0.398834437086093	-0.868238410596026	-1.93960264900662	1.55761589403974	-0.474701986754968			
6	220	-0.232158940397351	0.00275496688741723	-0.935523178807947	-1.08662251655629	-0.144635761589404	-1.18490066225166				0.992953642384106	0.0957880794701987	0.0611390728476822	-3.76609271523179	-0.812185430463576	-1.98596026490066				-0.202172185430464	-0.0812715231788079	-0.90394701986755	0.567417218543046	0.146490066225167	-0.20026490066225				0.256529801324503	0.0314701986754967	-0.965721854304636	0.802913907284768	2.4235761589404	1.34437086092715				0.884026490066225	0.0354966887417219	0.485933774834437	1.6317880794702	-8.62807947019868	-0.0574834437086077				0.159788079470199	-0.366834437086093	-0.868238410596026	1.42039735099338	2.11761589403974	0.645298013245032			
7	240	-0.232158940397351	0.00275496688741723	-0.951523178807947	-0.806622516556291	0.135364238410596	-0.344900662251656				0.976953642384106	0.0957880794701987	0.0931390728476822	-0.686092715231788	0.867814569536424	0.53403973509934				-0.202172185430464	-0.0812715231788079	-0.90394701986755	1.12741721854305	1.26649006622517	-1.04026490066225				0.256529801324503	0.0154701986754967	-0.949721854304636	2.20291390728477	5.2235761589404	1.90437086092715				0.868026490066225	0.0514966887417219	0.485933774834437	3.5917880794702	-3.02807947019868	0.782516556291392				0.143788079470199	-0.382834437086093	-0.884238410596026	3.10039735099338	2.39761589403974	1.20529801324503			
8	260	-0.232158940397351	0.0187549668874172	-0.951523178807947	0.313377483443709	0.135364238410596	-0.904900662251656				0.976953642384106	0.0957880794701987	0.0771390728476822	-0.126092715231788	-0.532185430463576	1.65403973509934				-0.218172185430464	-0.0812715231788079	-0.88794701986755	-1.39258278145695	0.146490066225167	-0.20026490066225				0.256529801324503	0.0314701986754967	-0.933721854304636	2.20291390728477	4.3835761589404	1.06437086092715				0.868026490066225	0.0354966887417219	0.469933774834437	2.7517880794702	-0.788079470198675	-0.337483443708608				0.143788079470199	-0.398834437086093	-0.884238410596026	1.98039735099338	3.23761589403974	1.48529801324503			
9	280	-0.232158940397351	0.0187549668874172	-0.935523178807947	0.313377483443709	0.415364238410596	-1.46490066225166				0.992953642384106	0.0957880794701987	0.0771390728476822	-1.24609271523179	-2.21218543046358	1.65403973509934				-0.218172185430464	-0.0652715231788079	-0.88794701986755	0.567417218543046	0.706490066225167	-0.20026490066225				0.272529801324503	0.0474701986754967	-0.917721854304636	1.08291390728477	2.7035761589404	1.90437086092715				0.868026490066225	0.0194966887417219	0.453933774834437	-0.328211920529802	-1.62807947019868	-0.0574834437086077				0.175788079470199	-0.398834437086093	-0.868238410596026	-1.09960264900662	2.67761589403974	1.48529801324503			
10	300	-0.232158940397351	0.0187549668874172	-0.935523178807947	-0.806622516556291	0.135364238410596	-1.46490066225166				0.976953642384106	0.0957880794701987	0.0611390728476822	-4.32609271523179	-2.77218543046358	0.25403973509934				-0.218172185430464	-0.0652715231788079	-0.88794701986755	0.567417218543046	0.146490066225167	-0.48026490066225				0.272529801324503	0.0314701986754967	-0.933721854304636	3.32291390728477	2.9835761589404	2.74437086092715				0.868026490066225	0.0194966887417219	0.469933774834437	-0.328211920529802	-3.30807947019868	1.06251655629139				0.175788079470199	-0.382834437086093	-0.868238410596026	-1.09960264900662	1.55761589403974	1.48529801324503			
11	320	-0.232158940397351	0.00275496688741723	-0.951523178807947	-1.08662251655629	0.975364238410596	-1.46490066225166				0.992953642384106	0.0957880794701987	0.0451390728476822	-3.20609271523179	-2.21218543046358	0.53403973509934				-0.218172185430464	-0.0652715231788079	-0.88794701986755	-1.39258278145695	0.146490066225167	-0.20026490066225				0.272529801324503	0.0314701986754967	-0.917721854304636	5.56291390728477	4.3835761589404	3.58437086092715				0.868026490066225	0.0354966887417219	0.469933774834437	0.791788079470198	-3.86807947019868	1.06251655629139				0.159788079470199	-0.382834437086093	-0.868238410596026	-1.65960264900662	1.27761589403974	0.0852980132450323			
12	340	-0.232158940397351	0.00275496688741723	-0.935523178807947	-0.806622516556291	0.975364238410596	-0.904900662251656				0.976953642384106	0.0957880794701987	0.0611390728476822	-2.08609271523179	-0.812185430463576	1.37403973509934				-0.218172185430464	-0.0652715231788079	-0.88794701986755	-1.11258278145695	0.426490066225167	-0.48026490066225				0.272529801324503	0.0154701986754967	-0.901721854304636	4.72291390728477	4.1035761589404	4.70437086092715				0.868026490066225	0.0194966887417219	0.453933774834437	-1.1682119205298	-3.86807947019868	1.06251655629139				0.143788079470199	-0.382834437086093	-0.852238410596026	-2.77960264900662	2.39761589403974	0.925298013245032			
13	360	-0.232158940397351	0.00275496688741723	-0.935523178807947	-1.08662251655629	0.415364238410596	-0.0649006622516557				0.976953642384106	0.0957880794701987	0.0771390728476822	-1.80609271523179	-0.252185430463576	1.37403973509934				-0.218172185430464	-0.0652715231788079	-0.88794701986755	-0.832582781456954	0.146490066225167	0.0797350993377501				0.256529801324503	0.0314701986754967	-0.917721854304636	6.40291390728477	2.7035761589404	4.98437086092715				0.868026490066225	0.0194966887417219	0.469933774834437	-2.5682119205298	-3.30807947019868	2.18251655629139				0.143788079470199	-0.382834437086093	-0.852238410596026	-3.33960264900662	3.23761589403974	0.645298013245032			
14	380	-0.232158940397351	0.00275496688741723	-0.935523178807947	-1.08662251655629	0.975364238410596	0.495099337748344				0.976953642384106	0.0957880794701987	0.0771390728476822	-2.08609271523179	2.82781456953642	0.81403973509934				-0.218172185430464	-0.0652715231788079	-0.88794701986755	0.567417218543046	-0.133509933774833	-0.48026490066225				0.240529801324503	0.0314701986754967	-0.949721854304636	6.68291390728477	3.5435761589404	6.38437086092715				0.852026490066225	0.00349668874172187	0.453933774834437	-0.888211920529802	-3.86807947019868	1.90251655629139				0.159788079470199	-0.382834437086093	-0.852238410596026	-0.819602649006623	4.35761589403974	-0.474701986754968			
15	400	-0.232158940397351	0.00275496688741723	-0.951523178807947	-0.246622516556291	0.695364238410596	0.495099337748344				0.976953642384106	0.0957880794701987	0.0771390728476822	-3.20609271523179	5.06781456953642	-1.42596026490066				-0.218172185430464	-0.0652715231788079	-0.88794701986755	0.567417218543046	-0.133509933774833	-0.48026490066225				0.256529801324503	0.0154701986754967	-0.949721854304636	8.64291390728477	5.5035761589404	5.54437086092715				0.852026490066225	0.0194966887417219	0.469933774834437	-0.608211920529802	-2.18807947019868	1.62251655629139				0.159788079470199	-0.382834437086093	-0.836238410596026	0.300397350993377	4.07761589403974	-0.194701986754968			
16	420	-0.232158940397351	0.00275496688741723	-0.951523178807947	-1.36662251655629	0.695364238410596	0.495099337748344				0.992953642384106	0.111788079470199	0.0931390728476822	-3.20609271523179	2.26781456953642	-1.42596026490066				-0.202172185430464	-0.0652715231788079	-0.88794701986755	-2.23258278145695	0.146490066225167	0.0797350993377501				0.272529801324503	-0.000529801324503289	-0.949721854304636	7.80291390728477	6.3435761589404	3.86437086092715				0.852026490066225	0.0194966887417219	0.453933774834437	0.231788079470198	0.331920529801325	1.06251655629139				0.143788079470199	-0.382834437086093	-0.836238410596026	-0.539602649006623	4.63761589403974	0.365298013245032			
17	440	-0.216158940397351	0.00275496688741723	-0.935523178807947	-1.64662251655629	0.975364238410596	1.05509933774834				0.992953642384106	0.0957880794701987	0.0611390728476822	-3.48609271523179	-1.37218543046358	-0.30596026490066				-0.202172185430464	-0.0652715231788079	-0.88794701986755	-0.552582781456954	-0.413509933774833	-0.20026490066225				0.272529801324503	0.0154701986754967	-0.917721854304636	2.76291390728477	4.6635761589404	3.02437086092715				0.852026490066225	0.0354966887417219	0.453933774834437	2.4717880794702	0.0519205298013249	1.34251655629139				0.159788079470199	-0.382834437086093	-0.852238410596026	0.300397350993377	5.75761589403974	1.76529801324503			
18	460	-0.216158940397351	0.00275496688741723	-0.935523178807947	-1.08662251655629	0.135364238410596	1.61509933774834				0.976953642384106	0.0957880794701987	0.0771390728476822	-2.64609271523179	0.587814569536424	0.25403973509934				-0.202172185430464	-0.0652715231788079	-0.88794701986755	-0.272582781456954	-0.133509933774833	-0.48026490066225				0.272529801324503	0.0314701986754967	-0.933721854304636	1.92291390728477	1.8635761589404	3.86437086092715				0.868026490066225	0.0354966887417219	0.453933774834437	1.0717880794702	-1.06807947019868	2.46251655629139				0.175788079470199	-0.382834437086093	-0.852238410596026	0.860397350993377	4.35761589403974	2.88529801324503			
19	480	-0.216158940397351	0.00275496688741723	-0.935523178807947	-2.20662251655629	-0.144635761589404	1.61509933774834				0.960953642384106	0.111788079470199	0.0611390728476822	-1.52609271523179	1.98781456953642	2.21403973509934				-0.218172185430464	-0.0812715231788079	-0.90394701986755	0.287417218543046	0.146490066225167	-0.76026490066225				0.256529801324503	0.0314701986754967	-0.965721854304636	3.04291390728477	1.8635761589404	3.30437086092715				0.884026490066225	0.0354966887417219	0.453933774834437	0.231788079470198	-0.228079470198675	1.34251655629139				0.175788079470199	-0.366834437086093	-0.868238410596026	1.70039735099338	4.91761589403974	3.72529801324503			
20	500	-0.232158940397351	0.0187549668874172	-0.951523178807947	-2.20662251655629	-0.144635761589404	1.61509933774834				0.992953642384106	0.0957880794701987	0.0771390728476822	-1.80609271523179	1.98781456953642	2.21403973509934				-0.218172185430464	-0.0812715231788079	-0.88794701986755	0.567417218543046	-0.133509933774833	-0.20026490066225				0.256529801324503	-0.000529801324503289	-0.949721854304636	2.76291390728477	2.1435761589404	2.18437086092715				0.868026490066225	0.0194966887417219	0.469933774834437	-0.0482119205298018	-0.508079470198675	2.18251655629139				0.159788079470199	-0.366834437086093	-0.868238410596026	1.14039735099338	6.31761589403974	3.16529801324503			
21	520	-0.232158940397351	0.0187549668874172	-0.935523178807947	-1.64662251655629	0.135364238410596	1.05509933774834				0.992953642384106	0.0957880794701987	0.0771390728476822	-2.92609271523179	1.42781456953642	1.65403973509934				-0.218172185430464	-0.0812715231788079	-0.88794701986755	-1.39258278145695	0.986490066225167	-0.76026490066225				0.272529801324503	-0.0165298013245033	-0.949721854304636	2.20291390728477	3.5435761589404	1.06437086092715				0.868026490066225	0.0194966887417219	0.469933774834437	-0.328211920529802	0.891920529801325	1.90251655629139				0.175788079470199	-0.398834437086093	-0.852238410596026	1.42039735099338	5.47761589403974	3.16529801324503			
22	540	-0.232158940397351	0.0347549668874172	-0.935523178807947	-1.08662251655629	0.135364238410596	0.495099337748344				0.992953642384106	0.0957880794701987	0.0771390728476822	-3.76609271523179	3.10781456953642	1.09403973509934				-0.218172185430464	-0.0812715231788079	-0.90394701986755	-0.552582781456954	-0.413509933774833	-1.04026490066225				0.272529801324503	-0.000529801324503289	-0.933721854304636	1.36291390728477	2.9835761589404	1.06437086092715				0.884026490066225	0.0194966887417219	0.453933774834437	-0.328211920529802	1.73192052980133	1.06251655629139				0.175788079470199	-0.398834437086093	-0.852238410596026	2.26039735099338	4.91761589403974	4.56529801324503			
23	560	-0.232158940397351	0.0347549668874172	-0.935523178807947	-1.08662251655629	0.135364238410596	0.215099337748344				0.976953642384106	0.0957880794701987	0.0931390728476822	-1.80609271523179	2.54781456953642	1.37403973509934				-0.218172185430464	-0.0812715231788079	-0.88794701986755	0.00741721854304636	0.426490066225167	-1.04026490066225				0.304529801324503	0.0154701986754967	-0.933721854304636	1.08291390728477	2.4235761589404	3.02437086092715				0.868026490066225	0.0194966887417219	0.469933774834437	-0.888211920529802	0.331920529801325	0.502516556291392				0.175788079470199	-0.398834437086093	-0.852238410596026	-0.259602649006623	6.87761589403974	4.84529801324503			
24	580	-0.216158940397351	0.0347549668874172	-0.935523178807947	-0.806622516556291	-0.144635761589404	-0.344900662251656				0.976953642384106	0.0957880794701987	0.0771390728476822	-1.80609271523179	3.10781456953642	1.65403973509934				-0.202172185430464	-0.0492715231788079	-0.88794701986755	-0.552582781456954	-0.133509933774833	-0.48026490066225				0.288529801324503	0.0154701986754967	-0.933721854304636	1.92291390728477	1.8635761589404	3.02437086092715				0.868026490066225	0.0194966887417219	0.469933774834437	-0.608211920529802	0.611920529801325	1.62251655629139				0.175788079470199	-0.382834437086093	-0.868238410596026	0.860397350993377	6.59761589403974	4.84529801324503			
25	600	-0.216158940397351	0.0347549668874172	-0.935523178807947	-0.246622516556291	-0.704635761589404	-0.344900662251656				0.976953642384106	0.0957880794701987	0.0611390728476822	-1.24609271523179	3.10781456953642	2.49403973509934				-0.202172185430464	-0.0492715231788079	-0.87194701986755	0.287417218543046	0.146490066225167	-0.48026490066225				0.272529801324503	-0.000529801324503289	-0.949721854304636	0.802913907284768	2.9835761589404	3.30437086092715				0.868026490066225	0.0194966887417219	0.469933774834437	2.1917880794702	0.331920529801325	1.06251655629139				0.175788079470199	-0.382834437086093	-0.852238410596026	1.14039735099338	5.75761589403974	4.00529801324503			
26	620	-0.232158940397351	0.0347549668874172	-0.951523178807947	-0.806622516556291	-0.424635761589404	-1.18490066225166				0.976953642384106	0.111788079470199	0.0611390728476822	-1.80609271523179	4.78781456953642	2.77403973509934				-0.218172185430464	-0.0652715231788079	-0.88794701986755	-0.832582781456954	-0.413509933774833	-0.48026490066225				0.272529801324503	-0.000529801324503289	-0.917721854304636	0.522913907284768	3.2635761589404	3.30437086092715				0.868026490066225	0.0194966887417219	0.453933774834437	0.791788079470198	0.891920529801325	0.782516556291392				0.175788079470199	-0.382834437086093	-0.852238410596026	2.26039735099338	6.03761589403974	4.28529801324503			
27	640	-0.248158940397351	0.0347549668874172	-0.951523178807947	0.313377483443709	0.135364238410596	-0.624900662251656				0.992953642384106	0.111788079470199	0.0771390728476822	-0.966092715231788	3.66781456953642	1.93403973509934				-0.234172185430464	-0.0652715231788079	-0.90394701986755	-1.95258278145695	-1.81350993377483	-0.48026490066225				0.288529801324503	-0.000529801324503289	-0.933721854304636	1.92291390728477	1.0235761589404	4.42437086092715				0.868026490066225	0.0194966887417219	0.453933774834437	-2.0082119205298	1.73192052980133	1.06251655629139				0.175788079470199	-0.398834437086093	-0.852238410596026	0.0203973509933773	6.31761589403974	4.84529801324503			
28	660	-0.232158940397351	0.00275496688741723	-0.951523178807947	-0.526622516556291	0.135364238410596	-0.624900662251656				0.992953642384106	0.0957880794701987	0.0931390728476822	-2.64609271523179	0.867814569536424	0.53403973509934				-0.218172185430464	-0.0652715231788079	-0.90394701986755	0.567417218543046	-0.413509933774833	-0.20026490066225				0.304529801324503	0.0154701986754967	-0.965721854304636	1.08291390728477	-1.2164238410596	3.58437086092715				0.868026490066225	0.0194966887417219	0.469933774834437	-2.5682119205298	3.97192052980133	-0.617483443708608				0.175788079470199	-0.398834437086093	-0.852238410596026	-0.539602649006623	6.87761589403974	5.12529801324503			
29	680	-0.216158940397351	0.0187549668874172	-0.935523178807947	-1.08662251655629	0.975364238410596	-0.904900662251656				0.976953642384106	0.111788079470199	0.0931390728476822	-1.52609271523179	-0.532185430463576	1.65403973509934				-0.218172185430464	-0.0492715231788079	-0.88794701986755	1.12741721854305	0.706490066225167	-0.48026490066225				0.288529801324503	-0.000529801324503289	-0.965721854304636	-2.55708609271523	-1.7764238410596	3.30437086092715				0.868026490066225	0.00349668874172187	0.469933774834437	2.4717880794702	0.331920529801325	0.222516556291392				0.191788079470199	-0.398834437086093	-0.852238410596026	-1.37960264900662	5.47761589403974	3.72529801324503			
30	700	-0.232158940397351	0.0187549668874172	-0.935523178807947	-0.526622516556291	0.695364238410596	-0.344900662251656				0.976953642384106	0.0957880794701987	0.0771390728476822	-2.08609271523179	0.0278145695364242	1.37403973509934				-0.218172185430464	-0.0492715231788079	-0.88794701986755	0.00741721854304636	1.26649006622517	0.0797350993377501				0.288529801324503	-0.0165298013245033	-0.933721854304636	-5.07708609271523	-1.4964238410596	2.18437086092715				0.868026490066225	0.0194966887417219	0.469933774834437	-1.4482119205298	1.73192052980133	-1.73748344370861				0.175788079470199	-0.398834437086093	-0.836238410596026	-0.259602649006623	4.63761589403974	3.44529801324503			
31	720	-0.232158940397351	0.00275496688741723	-0.935523178807947	-0.526622516556291	0.135364238410596	-0.624900662251656				0.976953642384106	0.0957880794701987	0.109139072847682	-3.48609271523179	0.867814569536424	0.81403973509934				-0.218172185430464	-0.0652715231788079	-0.88794701986755	0.567417218543046	0.706490066225167	-0.48026490066225				0.272529801324503	-0.000529801324503289	-0.917721854304636	-5.63708609271523	-3.1764238410596	0.504370860927152				0.852026490066225	0.0194966887417219	0.469933774834437	-2.0082119205298	2.85192052980133	-2.57748344370861				0.175788079470199	-0.382834437086093	-0.836238410596026	-2.49960264900662	4.07761589403974	3.44529801324503			
32	740	-0.232158940397351	0.00275496688741723	-0.935523178807947	-1.64662251655629	0.415364238410596	-0.0649006622516557				0.992953642384106	0.0957880794701987	0.0931390728476822	-2.36609271523179	0.0278145695364242	1.93403973509934				-0.218172185430464	-0.0652715231788079	-0.88794701986755	1.96741721854305	0.146490066225167	-0.76026490066225				0.288529801324503	0.0314701986754967	-0.933721854304636	-5.63708609271523	-3.7364238410596	-0.335629139072848				0.868026490066225	0.00349668874172187	0.469933774834437	-0.888211920529802	2.57192052980133	-2.29748344370861				0.191788079470199	-0.382834437086093	-0.852238410596026	-2.21960264900662	4.35761589403974	2.60529801324503			
33	760	-0.232158940397351	0.00275496688741723	-0.903523178807947	-0.806622516556291	0.415364238410596	-0.344900662251656				0.976953642384106	0.0957880794701987	0.0931390728476822	0.433907284768212	0.867814569536424	0.81403973509934				-0.202172185430464	-0.0652715231788079	-0.90394701986755	0.847417218543046	-0.973509933774833	-0.76026490066225				0.288529801324503	0.0154701986754967	-0.917721854304636	-1.71708609271523	-1.4964238410596	1.34437086092715				0.868026490066225	0.0194966887417219	0.485933774834437	1.6317880794702	1.73192052980133	-0.337483443708608				0.191788079470199	-0.382834437086093	-0.868238410596026	-0.819602649006623	4.63761589403974	0.925298013245032			
34	780	-0.232158940397351	0.0187549668874172	-0.935523178807947	-1.64662251655629	0.135364238410596	0.775099337748344				0.992953642384106	0.0797880794701987	0.0931390728476822	1.55390728476821	2.26781456953642	0.53403973509934				-0.218172185430464	-0.0652715231788079	-0.90394701986755	0.567417218543046	0.426490066225167	-0.48026490066225				0.288529801324503	-0.000529801324503289	-0.933721854304636	-3.11708609271523	0.4635761589404	0.784370860927152				0.868026490066225	0.0354966887417219	0.485933774834437	2.1917880794702	1.73192052980133	-1.45748344370861				0.207788079470199	-0.398834437086093	-0.884238410596026	1.14039735099338	2.95761589403974	0.365298013245032			
35	800	-0.232158940397351	0.0187549668874172	-0.935523178807947	-1.08662251655629	0.135364238410596	0.215099337748344				0.976953642384106	0.0957880794701987	0.0771390728476822	1.27390728476821	1.98781456953642	1.37403973509934				-0.218172185430464	-0.0652715231788079	-0.88794701986755	0.287417218543046	0.706490066225167	-0.20026490066225				0.288529801324503	0.0154701986754967	-0.901721854304636	-2.27708609271523	1.3035761589404	0.784370860927152				0.868026490066225	0.0194966887417219	0.469933774834437	-0.0482119205298018	1.73192052980133	-1.73748344370861				0.191788079470199	-0.398834437086093	-0.868238410596026	-0.259602649006623	0.997615894039735	1.48529801324503			
36	820	-0.232158940397351	0.0187549668874172	-0.951523178807947	-1.08662251655629	0.415364238410596	0.215099337748344				0.992953642384106	0.0957880794701987	0.0771390728476822	0.433907284768212	2.82781456953642	0.81403973509934				-0.218172185430464	-0.0652715231788079	-0.88794701986755	-0.272582781456954	0.986490066225167	-0.76026490066225				0.272529801324503	0.0154701986754967	-0.917721854304636	-1.15708609271523	1.8635761589404	2.18437086092715				0.868026490066225	0.0194966887417219	0.469933774834437	-1.4482119205298	3.41192052980132	-0.897483443708608				0.191788079470199	-0.398834437086093	-0.852238410596026	-1.09960264900662	0.997615894039735	1.76529801324503			
37	840	-0.232158940397351	0.0187549668874172	-0.935523178807947	-1.08662251655629	0.415364238410596	0.495099337748344				0.976953642384106	0.0957880794701987	0.0931390728476822	1.55390728476821	5.06781456953642	0.81403973509934				-0.218172185430464	-0.0812715231788079	-0.88794701986755	-1.11258278145695	0.706490066225167	-0.20026490066225				0.288529801324503	0.0154701986754967	-0.933721854304636	-0.877086092715232	1.8635761589404	2.46437086092715				0.868026490066225	0.0194966887417219	0.469933774834437	-1.7282119205298	3.13192052980133	-0.337483443708608				0.191788079470199	-0.382834437086093	-0.852238410596026	-0.259602649006623	1.83761589403974	2.32529801324503			
38	860	-0.232158940397351	0.0347549668874172	-0.951523178807947	-0.806622516556291	1.2553642384106	-0.0649006622516557				0.992953642384106	0.0957880794701987	0.0771390728476822	3.79390728476821	1.98781456953642	1.65403973509934				-0.218172185430464	-0.0652715231788079	-0.88794701986755	-0.832582781456954	-0.133509933774833	-0.20026490066225				0.288529801324503	0.0154701986754967	-0.949721854304636	-0.597086092715232	1.5835761589404	3.02437086092715				0.852026490066225	0.0194966887417219	0.485933774834437	-0.888211920529802	1.17192052980133	-0.0574834437086077				0.191788079470199	-0.382834437086093	-0.852238410596026	-0.819602649006623	2.67761589403974	1.76529801324503			
39	880	-0.216158940397351	0.0347549668874172	-0.935523178807947	-1.08662251655629	0.975364238410596	-0.624900662251656				0.992953642384106	0.0957880794701987	0.0771390728476822	3.23390728476821	1.42781456953642	1.93403973509934				-0.218172185430464	-0.0652715231788079	-0.88794701986755	-0.272582781456954	-0.413509933774833	-0.20026490066225				0.288529801324503	0.0154701986754967	-0.917721854304636	-1.15708609271523	2.1435761589404	2.46437086092715				0.868026490066225	0.0194966887417219	0.485933774834437	0.511788079470198	1.45192052980132	0.782516556291392				0.207788079470199	-0.398834437086093	-0.836238410596026	0.860397350993377	2.39761589403974	1.48529801324503			
40	900	-0.232158940397351	0.0187549668874172	-0.935523178807947	-1.36662251655629	-0.144635761589404	-0.624900662251656				0.976953642384106	0.0957880794701987	0.0771390728476822	2.95390728476821	1.14781456953642	1.93403973509934				-0.218172185430464	-0.0652715231788079	-0.88794701986755	-0.552582781456954	0.706490066225167	0.0797350993377501				0.288529801324503	0.0154701986754967	-0.917721854304636	-1.15708609271523	1.5835761589404	1.62437086092715				0.852026490066225	0.00349668874172187	0.469933774834437	-0.328211920529802	1.73192052980133	-0.337483443708608				0.191788079470199	-0.398834437086093	-0.852238410596026	0.0203973509933773	2.95761589403974	1.48529801324503			
41	920	-0.232158940397351	0.0187549668874172	-0.951523178807947	-2.48662251655629	-0.144635761589404	-0.344900662251656				0.992953642384106	0.0957880794701987	0.0931390728476822	2.11390728476821	1.98781456953642	2.49403973509934				-0.202172185430464	-0.0652715231788079	-0.90394701986755	-1.11258278145695	-0.133509933774833	0.0797350993377501				0.288529801324503	0.0154701986754967	-0.901721854304636	-0.877086092715232	0.7435761589404	-0.0556291390728476				0.852026490066225	0.0194966887417219	0.485933774834437	-2.5682119205298	1.45192052980132	-0.897483443708608				0.191788079470199	-0.398834437086093	-0.836238410596026	0.860397350993377	2.11761589403974	0.645298013245032			
42	1040	0	0	0	0	0	0				0	0	0	0	0	0				-0.218172185430464	-0.0652715231788079	-0.88794701986755	1.40741721854305	0.986490066225167	-0.20026490066225				0	0	0	0	0	0				0	0	0	0	0	0				0	0	0	0	0	0			
43	1060	-0.232158940397351	0.0187549668874172	-0.951523178807947	0.313377483443709	0.695364238410596	-0.624900662251656				0.992953642384106	0.0957880794701987	0.0931390728476822	0.153907284768212	2.26781456953642	1.65403973509934				-0.218172185430464	-0.0652715231788079	-0.88794701986755	0.00741721854304636	0.986490066225167	-0.76026490066225				0	0	0	0	0	0				0.852026490066225	0.0194966887417219	0.485933774834437	-1.4482119205298	3.13192052980133	-1.17748344370861				0	0	0	0	0	0			
44	1080	-0.232158940397351	0.0187549668874172	-0.935523178807947	0.0333774834437086	0.695364238410596	-0.624900662251656				0.976953642384106	0.0957880794701987	0.109139072847682	1.27390728476821	2.26781456953642	1.65403973509934				-0.218172185430464	-0.0652715231788079	-0.90394701986755	1.68741721854305	0.426490066225167	-0.48026490066225				0.304529801324503	0.0314701986754967	-0.949721854304636	-2.83708609271523	2.1435761589404	1.62437086092715				0.852026490066225	0.0354966887417219	0.501933774834437	-1.4482119205298	2.29192052980133	-2.57748344370861				0.207788079470199	-0.398834437086093	-0.852238410596026	0.580397350993377	0.717615894039735	2.32529801324503			
45	1100	-0.232158940397351	0.0347549668874172	-0.935523178807947	0.593377483443709	0.135364238410596	-2.02490066225166				0.976953642384106	0.0797880794701987	0.109139072847682	1.55390728476821	1.42781456953642	2.49403973509934				-0.218172185430464	-0.0492715231788079	-0.90394701986755	2.52741721854305	0.986490066225167	-0.20026490066225				0.288529801324503	0.0154701986754967	-0.933721854304636	-1.43708609271523	3.5435761589404	2.18437086092715				0.852026490066225	0.0194966887417219	0.501933774834437	-1.4482119205298	1.73192052980133	-2.29748344370861				0.207788079470199	-0.382834437086093	-0.868238410596026	1.42039735099338	0.997615894039735	0.925298013245032			
46	1120	-0.232158940397351	0.0347549668874172	-0.935523178807947	-1.36662251655629	-0.424635761589404	-1.18490066225166				0.992953642384106	0.0797880794701987	0.0931390728476822	1.27390728476821	1.70781456953642	2.21403973509934				-0.218172185430464	-0.0492715231788079	-0.87194701986755	1.68741721854305	0.146490066225167	0.35973509933775				0.288529801324503	0.0314701986754967	-0.917721854304636	-2.83708609271523	2.9835761589404	1.90437086092715				0.852026490066225	0.0194966887417219	0.501933774834437	-0.888211920529802	2.29192052980133	-1.73748344370861				0.191788079470199	-0.398834437086093	-0.852238410596026	1.42039735099338	1.83761589403974	0.0852980132450323			
47	1140	-0.248158940397351	0.0187549668874172	-0.951523178807947	-0.526622516556291	0.415364238410596	-1.18490066225166				1.00895364238411	0.0797880794701987	0.0931390728476822	0.713907284768212	0.307814569536424	-0.0259602649006601				-0.218172185430464	-0.0812715231788079	-0.88794701986755	1.12741721854305	0.426490066225167	0.35973509933775				0.288529801324503	0.0314701986754967	-0.933721854304636	-3.11708609271523	0.7435761589404	2.46437086092715				0.852026490066225	0.0194966887417219	0.501933774834437	-1.7282119205298	3.13192052980133	-1.45748344370861				0.191788079470199	-0.398834437086093	-0.852238410596026	-0.539602649006623	1.55761589403974	0.365298013245032			
48	1160	-0.232158940397351	0.0187549668874172	-0.935523178807947	0.0333774834437086	0.695364238410596	-0.624900662251656				0.992953642384106	0.0797880794701987	0.0931390728476822	-0.126092715231788	-0.812185430463576	-0.30596026490066				-0.218172185430464	-0.0652715231788079	-0.90394701986755	-0.552582781456954	-0.133509933774833	0.35973509933775				0.288529801324503	0.0154701986754967	-0.917721854304636	-0.877086092715232	2.7035761589404	3.30437086092715				0.852026490066225	0.0194966887417219	0.501933774834437	-1.4482119205298	3.13192052980133	-0.897483443708608				0.191788079470199	-0.398834437086093	-0.852238410596026	-2.77960264900662	1.83761589403974	0.645298013245032			
49	1180	-0.232158940397351	0.0187549668874172	-0.935523178807947	-0.526622516556291	0.975364238410596	-1.46490066225166				0.976953642384106	0.0957880794701987	0.0931390728476822	-0.966092715231788	0.587814569536424	0.53403973509934				-0.218172185430464	-0.0812715231788079	-0.90394701986755	0.00741721854304636	0.986490066225167	-0.20026490066225				0.304529801324503	0.0154701986754967	-0.917721854304636	-0.317086092715232	3.2635761589404	3.30437086092715				0.868026490066225	0.0194966887417219	0.501933774834437	-1.4482119205298	2.57192052980133	-0.617483443708608				0.207788079470199	-0.398834437086093	-0.852238410596026	0.0203973509933773	0.717615894039735	0.365298013245032			
50	1200	-0.232158940397351	0.0187549668874172	-0.935523178807947	-1.64662251655629	0.135364238410596	-1.18490066225166				0.976953642384106	0.0797880794701987	0.0931390728476822	-1.80609271523179	-0.532185430463576	0.81403973509934				-0.218172185430464	-0.0652715231788079	-0.88794701986755	-0.552582781456954	0.706490066225167	-1.32026490066225				0.288529801324503	0.0154701986754967	-0.917721854304636	-0.317086092715232	3.5435761589404	3.30437086092715				0.852026490066225	0.0354966887417219	0.501933774834437	-1.4482119205298	2.57192052980133	-2.01748344370861				0.191788079470199	-0.398834437086093	-0.852238410596026	2.54039735099338	2.11761589403974	0.0852980132450323			
51	1220	-0.232158940397351	0.0187549668874172	-0.951523178807947	-1.36662251655629	0.415364238410596	-0.904900662251656				0.976953642384106	0.0957880794701987	0.0771390728476822	-0.686092715231788	0.867814569536424	-0.30596026490066				-0.218172185430464	-0.0492715231788079	-0.88794701986755	-0.832582781456954	-0.133509933774833	-0.48026490066225				0.288529801324503	0.0314701986754967	-0.917721854304636	-2.27708609271523	3.8235761589404	2.74437086092715				0.868026490066225	0.0194966887417219	0.485933774834437	-0.888211920529802	0.891920529801325	-0.337483443708608				0.191788079470199	-0.398834437086093	-0.852238410596026	1.70039735099338	1.83761589403974	0.925298013245032			
52	1240	-0.232158940397351	0.0347549668874172	-0.935523178807947	-1.36662251655629	0.415364238410596	-0.904900662251656				0.976953642384106	0.0957880794701987	0.0931390728476822	-0.686092715231788	2.54781456953642	0.81403973509934				-0.202172185430464	-0.0492715231788079	-0.88794701986755	-0.272582781456954	0.146490066225167	0.35973509933775				0.288529801324503	0.0314701986754967	-0.917721854304636	0.522913907284768	2.9835761589404	1.34437086092715				0.852026490066225	0.0194966887417219	0.469933774834437	-3.6882119205298	1.17192052980133	-1.45748344370861				0.175788079470199	-0.398834437086093	-0.852238410596026	-0.819602649006623	1.83761589403974	1.76529801324503			
53	1260	-0.216158940397351	0.0347549668874172	-0.951523178807947	-0.806622516556291	0.695364238410596	-0.344900662251656				0.976953642384106	0.0957880794701987	0.109139072847682	-1.52609271523179	1.14781456953642	1.09403973509934				-0.218172185430464	-0.0492715231788079	-0.90394701986755	0.00741721854304636	0.706490066225167	0.35973509933775				0.288529801324503	0.0314701986754967	-0.917721854304636	1.08291390728477	2.9835761589404	-0.335629139072848				0.836026490066225	0.0194966887417219	0.501933774834437	-3.6882119205298	2.01192052980133	-1.73748344370861				0.191788079470199	-0.382834437086093	-0.852238410596026	0.860397350993377	1.55761589403974	1.48529801324503			
54	1280	-0.232158940397351	0.0347549668874172	-0.951523178807947	0.313377483443709	0.695364238410596	-0.344900662251656				0.976953642384106	0.0957880794701987	0.125139072847682	-0.966092715231788	0.587814569536424	-0.0259602649006601				-0.218172185430464	-0.0652715231788079	-0.88794701986755	0.847417218543046	0.706490066225167	0.63973509933775				0.304529801324503	0.0154701986754967	-0.917721854304636	-1.99708609271523	1.3035761589404	-0.0556291390728476				0.836026490066225	0.0354966887417219	0.485933774834437	-2.5682119205298	4.53192052980133	-0.617483443708608				0.191788079470199	-0.382834437086093	-0.836238410596026	1.42039735099338	0.717615894039735	0.0852980132450323			
55	1300	-0.232158940397351	0.0347549668874172	-0.935523178807947	-0.246622516556291	0.415364238410596	-0.344900662251656				0.992953642384106	0.0957880794701987	0.0931390728476822	0.993907284768212	2.26781456953642	0.81403973509934				-0.202172185430464	-0.0652715231788079	-0.87194701986755	-0.832582781456954	0.706490066225167	0.63973509933775				0.304529801324503	0.0314701986754967	-0.917721854304636	-3.67708609271523	1.8635761589404	-0.615629139072848				0.852026490066225	0.0194966887417219	0.485933774834437	0.231788079470198	3.13192052980133	-0.0574834437086077				0.191788079470199	-0.382834437086093	-0.836238410596026	0.580397350993377	1.83761589403974	0.645298013245032			
56	1320	-0.216158940397351	0.0347549668874172	-0.935523178807947	0.0333774834437086	0.415364238410596	-0.624900662251656				0.992953642384106	0.0957880794701987	0.0931390728476822	0.993907284768212	1.14781456953642	0.81403973509934				-0.218172185430464	-0.0492715231788079	-0.88794701986755	-1.95258278145695	-0.133509933774833	0.0797350993377501				0.320529801324503	0.0314701986754967	-0.917721854304636	-1.99708609271523	1.8635761589404	-0.335629139072848				0.852026490066225	0.0194966887417219	0.501933774834437	-0.328211920529802	2.85192052980133	-0.897483443708608				0.207788079470199	-0.382834437086093	-0.836238410596026	0.0203973509933773	1.83761589403974	-0.194701986754968			
57	1340	-0.232158940397351	0.0347549668874172	-0.951523178807947	-1.08662251655629	0.415364238410596	-0.904900662251656				0.992953642384106	0.0957880794701987	0.0931390728476822	-0.126092715231788	0.867814569536424	0.81403973509934				-0.218172185430464	-0.0652715231788079	-0.88794701986755	0.567417218543046	0.426490066225167	-0.48026490066225				0.304529801324503	0.0314701986754967	-0.933721854304636	1.36291390728477	3.2635761589404	1.06437086092715				0.852026490066225	0.0354966887417219	0.501933774834437	2.7517880794702	2.01192052980133	0.782516556291392				0.191788079470199	-0.382834437086093	-0.852238410596026	1.42039735099338	1.83761589403974	-0.754701986754968			
58	1360	-0.232158940397351	0.0347549668874172	-0.951523178807947	-0.806622516556291	0.135364238410596	-0.904900662251656				0.992953642384106	0.0957880794701987	0.109139072847682	-1.24609271523179	0.587814569536424	1.09403973509934				-0.218172185430464	-0.0492715231788079	-0.88794701986755	2.24741721854305	0.986490066225167	-0.48026490066225				0.336529801324503	-0.000529801324503289	-0.933721854304636	-0.597086092715232	1.8635761589404	2.46437086092715				0.852026490066225	0.0194966887417219	0.501933774834437	1.9117880794702	2.29192052980133	-0.0574834437086077				0.207788079470199	-0.414834437086093	-0.852238410596026	-0.259602649006623	2.39761589403974	-0.474701986754968			
59	1380	-0.232158940397351	0.0347549668874172	-0.951523178807947	-0.526622516556291	0.415364238410596	-0.904900662251656				0.976953642384106	0.0957880794701987	0.109139072847682	-0.406092715231788	1.70781456953642	0.53403973509934				-0.218172185430464	-0.0492715231788079	-0.88794701986755	0.847417218543046	0.706490066225167	0.0797350993377501				0.320529801324503	0.0154701986754967	-0.933721854304636	-3.67708609271523	0.1835761589404	2.46437086092715				0.852026490066225	0.0194966887417219	0.501933774834437	-0.328211920529802	1.73192052980133	-1.45748344370861				0.223788079470199	-0.414834437086093	-0.852238410596026	-1.37960264900662	1.83761589403974	0.365298013245032			
60	1400	-0.232158940397351	0.0347549668874172	-0.935523178807947	0.0333774834437086	1.2553642384106	-0.904900662251656				0.992953642384106	0.0957880794701987	0.109139072847682	1.27390728476821	0.867814569536424	-0.0259602649006601				-0.218172185430464	-0.0652715231788079	-0.88794701986755	-1.11258278145695	0.706490066225167	0.0797350993377501				0.304529801324503	0.0314701986754967	-0.917721854304636	-3.11708609271523	-0.6564238410596	2.46437086092715				0.852026490066225	0.0194966887417219	0.501933774834437	-0.328211920529802	1.45192052980132	-0.617483443708608				0.207788079470199	-0.414834437086093	-0.852238410596026	-0.539602649006623	0.717615894039735	2.04529801324503			
61	1420	-0.216158940397351	0.0347549668874172	-0.935523178807947	0.313377483443709	0.135364238410596	-0.624900662251656				0.976953642384106	0.0797880794701987	0.109139072847682	-0.126092715231788	1.42781456953642	0.25403973509934				-0.218172185430464	-0.0652715231788079	-0.90394701986755	-0.552582781456954	-0.413509933774833	-1.04026490066225				0.304529801324503	0.0314701986754967	-0.933721854304636	-1.71708609271523	0.1835761589404	2.74437086092715				0.836026490066225	0.0194966887417219	0.501933774834437	1.0717880794702	1.73192052980133	-0.337483443708608				0.207788079470199	-0.398834437086093	-0.852238410596026	-0.539602649006623	0.157615894039735	1.48529801324503			
62	1440	-0.232158940397351	0.0347549668874172	-0.951523178807947	-0.526622516556291	0.415364238410596	-1.18490066225166				0.976953642384106	0.0797880794701987	0.109139072847682	-1.24609271523179	1.98781456953642	0.53403973509934				-0.202172185430464	-0.0652715231788079	-0.88794701986755	0.287417218543046	-0.413509933774833	-0.76026490066225				0.288529801324503	0.0314701986754967	-0.917721854304636	-0.597086092715232	0.4635761589404	2.46437086092715				0.852026490066225	0.0194966887417219	0.501933774834437	0.511788079470198	1.17192052980133	-0.617483443708608				0.207788079470199	-0.382834437086093	-0.836238410596026	-0.259602649006623	1.27761589403974	1.76529801324503			
63	1460	-0.232158940397351	0.0187549668874172	-0.935523178807947	0.313377483443709	0.415364238410596	-0.624900662251656				0.976953642384106	0.0797880794701987	0.109139072847682	-0.966092715231788	1.70781456953642	-0.30596026490066				-0.218172185430464	-0.0492715231788079	-0.88794701986755	0.567417218543046	0.146490066225167	-0.48026490066225				0.304529801324503	0.0314701986754967	-0.917721854304636	-1.43708609271523	-0.6564238410596	2.18437086092715				0.836026490066225	0.0194966887417219	0.501933774834437	-0.328211920529802	2.01192052980133	-0.337483443708608				0.207788079470199	-0.398834437086093	-0.852238410596026	-0.259602649006623	0.997615894039735	2.32529801324503			
64	1480	-0.216158940397351	0.0187549668874172	-0.935523178807947	0.593377483443709	-0.144635761589404	-1.46490066225166				0.976953642384106	0.0797880794701987	0.0931390728476822	-0.686092715231788	0.587814569536424	-0.0259602649006601				-0.218172185430464	-0.0652715231788079	-0.88794701986755	0.847417218543046	-0.133509933774833	-1.60026490066225				0.304529801324503	0.0314701986754967	-0.917721854304636	-2.55708609271523	-0.9364238410596	1.34437086092715				0.852026490066225	0.0194966887417219	0.501933774834437	-0.0482119205298018	1.73192052980133	-1.17748344370861				0.223788079470199	-0.398834437086093	-0.852238410596026	0.300397350993377	1.27761589403974	2.60529801324503			
65	1500	-0.232158940397351	0.0187549668874172	-0.935523178807947	-0.246622516556291	0.135364238410596	-1.46490066225166				0.992953642384106	0.0957880794701987	0.109139072847682	-0.126092715231788	1.98781456953642	0.81403973509934				-0.218172185430464	-0.0652715231788079	-0.88794701986755	-0.832582781456954	0.146490066225167	-1.32026490066225				0.304529801324503	0.0154701986754967	-0.901721854304636	-2.27708609271523	0.1835761589404	1.62437086092715				0.836026490066225	0.0354966887417219	0.501933774834437	-0.888211920529802	0.891920529801325	-1.17748344370861				0.207788079470199	-0.398834437086093	-0.836238410596026	1.14039735099338	0.997615894039735	1.76529801324503			
66	1520	-0.232158940397351	0.0347549668874172	-0.951523178807947	-0.246622516556291	0.135364238410596	-0.0649006622516557				0.976953642384106	0.0957880794701987	0.0771390728476822	-0.686092715231788	1.42781456953642	-0.0259602649006601				-0.218172185430464	-0.0652715231788079	-0.90394701986755	-1.95258278145695	0.706490066225167	-0.76026490066225				0.288529801324503	0.0314701986754967	-0.901721854304636	-0.877086092715232	2.4235761589404	2.46437086092715				0.836026490066225	0.0194966887417219	0.485933774834437	-1.4482119205298	0.891920529801325	0.222516556291392				0.191788079470199	-0.398834437086093	-0.836238410596026	-0.259602649006623	0.437615894039735	2.60529801324503			
67	1540	-0.216158940397351	0.0187549668874172	-0.935523178807947	0.593377483443709	0.695364238410596	-0.624900662251656				0.976953642384106	0.0797880794701987	0.0931390728476822	-2.92609271523179	3.66781456953642	-0.585960264900661				-0.218172185430464	-0.0652715231788079	-0.88794701986755	1.96741721854305	0.426490066225167	-1.32026490066225				0.288529801324503	0.0314701986754967	-0.917721854304636	1.64291390728477	3.5435761589404	3.02437086092715				0.852026490066225	0.0194966887417219	0.501933774834437	-0.328211920529802	0.891920529801325	-0.337483443708608				0.191788079470199	-0.398834437086093	-0.836238410596026	-2.21960264900662	0.717615894039735	1.76529801324503			
68	1560	-0.216158940397351	0.0347549668874172	-0.935523178807947	-0.526622516556291	0.135364238410596	-1.18490066225166				0.992953642384106	0.0957880794701987	0.0931390728476822	-3.48609271523179	0.867814569536424	-1.14596026490066				-0.202172185430464	-0.0492715231788079	-0.88794701986755	0.847417218543046	-0.133509933774833	-1.04026490066225				0.304529801324503	0.0154701986754967	-0.917721854304636	2.48291390728477	4.6635761589404	2.74437086092715				0.852026490066225	0.0354966887417219	0.485933774834437	-2.0082119205298	0.891920529801325	-1.17748344370861				0.191788079470199	-0.382834437086093	-0.836238410596026	-1.93960264900662	0.717615894039735	0.645298013245032			
69	1580	-0.200158940397351	0.0187549668874172	-0.935523178807947	-1.92662251655629	0.135364238410596	-0.0649006622516557				0.976953642384106	0.111788079470199	0.0931390728476822	-2.92609271523179	-3.05218543046358	-0.30596026490066				-0.218172185430464	-0.0492715231788079	-0.88794701986755	0.847417218543046	-0.133509933774833	0.0797350993377501				0.288529801324503	0.0154701986754967	-0.933721854304636	0.802913907284768	4.6635761589404	3.30437086092715				0.852026490066225	0.0194966887417219	0.469933774834437	-2.2882119205298	1.45192052980132	-0.617483443708608				0.175788079470199	-0.382834437086093	-0.804238410596027	-2.77960264900662	0.157615894039735	1.20529801324503			
70	1600	-0.232158940397351	0.0187549668874172	-0.951523178807947	-2.48662251655629	-1.8246357615894	-0.904900662251656				0.960953642384106	0.0797880794701987	0.0931390728476822	-3.20609271523179	-2.77218543046358	1.09403973509934				-0.202172185430464	-0.0492715231788079	-0.88794701986755	1.12741721854305	0.986490066225167	0.0797350993377501				0.288529801324503	0.0154701986754967	-0.917721854304636	0.242913907284768	4.1035761589404	2.74437086092715				0.852026490066225	0.0194966887417219	0.485933774834437	-2.5682119205298	0.331920529801325	-1.17748344370861				0.175788079470199	-0.382834437086093	-0.820238410596026	-2.21960264900662	1.83761589403974	1.20529801324503			
71	1620	-0.248158940397351	0.0187549668874172	-0.951523178807947	-2.76662251655629	-0.984635761589404	-0.0649006622516557				0.976953642384106	0.0957880794701987	0.0931390728476822	-3.48609271523179	1.42781456953642	-0.0259602649006601				-0.218172185430464	-0.0652715231788079	-0.87194701986755	0.847417218543046	-1.25350993377483	-0.76026490066225				0.272529801324503	0.0154701986754967	-0.949721854304636	-0.597086092715232	4.1035761589404	3.30437086092715				0.852026490066225	0.0194966887417219	0.485933774834437	-0.608211920529802	0.611920529801325	-1.45748344370861				0.175788079470199	-0.366834437086093	-0.852238410596026	-1.37960264900662	3.79761589403974	0.365298013245032			
72	1640	-0.200158940397351	0.0187549668874172	-0.951523178807947	-2.76662251655629	-0.144635761589404	1.61509933774834				0.992953642384106	0.111788079470199	0.0931390728476822	-4.04609271523179	2.82781456953642	-1.70596026490066				-0.218172185430464	-0.0652715231788079	-0.88794701986755	0.567417218543046	-1.25350993377483	-1.04026490066225				0.272529801324503	-0.0165298013245033	-0.933721854304636	0.522913907284768	5.5035761589404	4.98437086092715				0.852026490066225	0.0194966887417219	0.469933774834437	-1.4482119205298	1.73192052980133	-2.01748344370861				0.175788079470199	-0.382834437086093	-0.884238410596026	-0.819602649006623	4.63761589403974	0.925298013245032			
73	1660	-0.200158940397351	0.0187549668874172	-0.919523178807947	-2.76662251655629	-0.144635761589404	3.01509933774834				0.992953642384106	0.0957880794701987	0.0771390728476822	-4.88609271523179	0.0278145695364242	-1.98596026490066				-0.186172185430464	-0.0492715231788079	-0.88794701986755	1.40741721854305	-0.693509933774834	-2.44026490066225				0.256529801324503	-0.0325298013245033	-0.965721854304636	2.20291390728477	6.3435761589404	6.38437086092715				0.884026490066225	0.0194966887417219	0.469933774834437	-0.888211920529802	2.29192052980133	-2.01748344370861				0.159788079470199	-0.446834437086093	-0.884238410596026	-1.09960264900662	-0.122384105960265	4.00529801324503			
74	1680	-0.216158940397351	0.00275496688741723	-0.919523178807947	-4.16662251655629	-2.3846357615894	3.85509933774834				0.976953642384106	0.0797880794701987	0.0611390728476822	-6.00609271523179	-7.25218543046358	-1.98596026490066				-0.202172185430464	-0.0332715231788079	-0.87194701986755	2.24741721854305	-2.93350993377483	-3.28026490066225				0.224529801324503	-0.0325298013245033	-0.997721854304636	5.56291390728477	6.3435761589404	9.74437086092715				0.884026490066225	0.0194966887417219	0.469933774834437	-0.328211920529802	1.73192052980133	-0.617483443708608				0.111788079470199	-0.446834437086093	-0.916238410596027	-11.7396026490066	-1.52238410596026	9.60529801324503			
75	1700	-0.232158940397351	0.00275496688741723	-0.951523178807947	-6.12662251655629	-2.9446357615894	4.41509933774834				1.02495364238411	0.0637880794701987	0.0131390728476822	-7.96609271523179	-6.69218543046358	-1.98596026490066				-0.234172185430464	-0.0332715231788079	-0.88794701986755	0.847417218543046	-2.65350993377483	-4.40026490066225				0.240529801324503	-0.0485298013245033	-0.997721854304636	12.5629139072848	4.1035761589404	11.1443708609272				0.900026490066225	-0.0125033112582781	0.437933774834437	0.231788079470198	4.81192052980133	0.502516556291392				0.111788079470199	-0.382834437086093	-0.932238410596026	-13.6996026490066	2.11761589403974	12.125298013245			
76	1720	-0.248158940397351	0.0187549668874172	-0.967523178807947	-8.08662251655629	-1.2646357615894	6.65509933774834				1.05695364238411	0.0957880794701987	0.0451390728476822	-10.7660927152318	-6.69218543046358	-3.94596026490066				-0.250172185430464	-0.0492715231788079	-0.88794701986755	2.24741721854305	-0.693509933774834	-5.52026490066225				0.224529801324503	-0.0805298013245033	-1.02972185430464	6.12291390728477	-0.0964238410596001	14.7843708609272				0.948026490066225	-0.0125033112582781	0.421933774834437	-1.7282119205298	5.37192052980133	-0.617483443708608				0.111788079470199	-0.398834437086093	-0.964238410596026	-8.93960264900662	-3.20238410596026	15.205298013245			
77	1740	-0.232158940397351	0.0347549668874172	-0.967523178807947	-9.48662251655629	2.0953642384106	9.45509933774835				1.05695364238411	0.0957880794701987	0.0131390728476822	-13.0060927152318	-10.8921854304636	-5.34596026490066				-0.234172185430464	-0.0972715231788079	-0.88794701986755	3.92741721854305	-0.133509933774833	-8.04026490066225				0.160529801324503	-0.0645298013245033	-1.04572185430464	0.522913907284768	-2.3364238410596	18.7043708609272				0.980026490066225	-0.0125033112582781	0.405933774834437	-3.4082119205298	7.33192052980133	-1.17748344370861				0.0317880794701987	-0.462834437086093	-0.948238410596026	-1.09960264900662	-7.12238410596027	20.805298013245			
78	1760	-0.216158940397351	0.0347549668874172	-0.935523178807947	-17.3266225165563	3.4953642384106	13.0950993377483				1.07295364238411	0.0957880794701987	-0.0348609271523178	-16.6460927152318	-14.5321854304636	-6.18596026490066				-0.218172185430464	-0.0332715231788079	-0.83994701986755	4.20741721854305	-1.53350993377483	-9.44026490066225				0.112529801324503	-0.0485298013245033	-1.07772185430464	4.16291390728477	-0.3764238410596	18.1443708609272				1.01202649006623	0.00349668874172187	0.421933774834437	-2.8482119205298	10.9719205298013	-1.45748344370861				0.0157880794701987	-0.462834437086093	-0.964238410596026	2.26039735099338	0.717615894039735	27.525298013245			
79	1780	-0.216158940397351	0.00275496688741723	-0.887523178807947	-24.0466225165563	-3.7846357615894	17.0150993377483				1.07295364238411	0.0957880794701987	-0.0508609271523178	-19.4460927152318	-19.5721854304636	-1.98596026490066				-0.234172185430464	-0.0172715231788079	-0.87194701986755	-1.11258278145695	-4.05350993377483	-8.60026490066225				0.112529801324503	-0.128529801324503	-1.15772185430464	8.08291390728477	4.6635761589404	21.7843708609272				1.06002649006623	0.00349668874172187	0.357933774834437	2.4717880794702	8.73192052980133	-0.617483443708608				-0.000211920529801336	-0.382834437086093	-1.06023841059603	-6.13960264900662	5.19761589403974	29.205298013245			
80	1800	-0.264158940397351	-0.0292450331125828	-0.935523178807947	-17.0466225165563	-5.7446357615894	15.6150993377483				1.08895364238411	0.143788079470199	-0.162860927152318	-17.2060927152318	-26.0121854304636	0.25403973509934				-0.266172185430464	-0.0492715231788079	-0.88794701986755	2.52741721854305	-3.77350993377483	-9.16026490066225				0.0965298013245033	-0.112529801324503	-1.14172185430464	0.522913907284768	4.3835761589404	27.1043708609272				1.06002649006623	0.00349668874172187	0.309933774834437	2.4717880794702	6.77192052980133	1.34251655629139				-0.0162119205298013	-0.366834437086093	-1.10823841059603	10.1003973509934	6.59761589403974	34.525298013245			
81	1820	-0.328158940397351	0.0187549668874172	-0.951523178807947	-15.6466225165563	-4.6246357615894	12.5350993377483				1.15295364238411	0.159788079470199	-0.226860927152318	-16.3660927152318	-19.8521854304636	4.73403973509934				-0.266172185430464	-0.113271523178808	-0.95194701986755	3.64741721854305	-2.37350993377483	-10.0002649006623				0.0485298013245033	-0.0805298013245033	-1.14172185430464	-2.83708609271523	-5.1364238410596	29.0643708609272				1.06002649006623	0.00349668874172187	0.309933774834437	-2.2882119205298	9.57192052980133	3.58251655629139				-0.0962119205298013	-0.462834437086093	-1.01223841059603	14.5803973509934	5.19761589403974	54.965298013245			
82	1840	-0.344158940397351	0.0507549668874172	-1.03152317880795	-21.5266225165563	2.0953642384106	11.1350993377483				1.21695364238411	0.191788079470199	-0.242860927152318	-17.2060927152318	-16.2121854304636	9.21403973509934				-0.282172185430464	-0.177271523178808	-0.96794701986755	10.087417218543	1.26649006622517	-7.48026490066225				0.0645298013245033	-0.112529801324503	-1.20572185430464	-6.47708609271523	-7.9364238410596	26.5443708609272				1.10802649006623	0.00349668874172187	0.293933774834437	-7.6082119205298	12.0919205298013	2.74251655629139				-0.128211920529801	-0.478834437086093	-1.12423841059603	2.26039735099338	6.03761589403974	60.565298013245			
83	1860	-0.280158940397351	0.0667549668874172	-0.999523178807947	-38.6066225165563	4.3353642384106	11.9750993377483				1.00895364238411	0.319788079470199	-0.274860927152318	-1.52609271523179	-11.7321854304636	9.21403973509934				-0.234172185430464	-0.241271523178808	-0.85594701986755	1.96741721854305	-0.693509933774834	6.23973509933775				0.0805298013245033	-0.144529801324503	-1.17372185430464	-6.75708609271523	-1.2164238410596	29.3443708609272				1.25202649006623	0.0194966887417219	0.277933774834437	-8.1682119205298	10.6919205298013	4.98251655629139				-0.0162119205298013	-0.334834437086093	-1.22023841059603	15.1403973509934	13.5976158940397	66.165298013245			
84	1880	-0.296158940397351	0.0827549668874172	-0.919523178807947	-36.6466225165563	1.5353642384106	14.7750993377483				0.800953642384106	0.175788079470199	-0.338860927152318	-1.52609271523179	36.1478145695364	16.4940397350993				-0.218172185430464	-0.241271523178808	-0.82394701986755	-0.272582781456954	0.986490066225167	14.3597350993378				0.0645298013245033	-0.0805298013245033	-1.15772185430464	-7.03708609271523	7.4635761589404	24.8643708609272				1.34802649006623	-0.0125033112582781	0.277933774834437	-22.7282119205298	-3.58807947019868	3.86251655629139				-0.0802119205298013	-0.430834437086093	-1.26823841059603	14.0203973509934	-1.52238410596026	75.125298013245			
85	1900	0	0	0	0	0	0				0	0	0	0	0	0				0	0	0	0	0	0				0.0645298013245033	0.0634701986754967	-1.10972185430464	14.2429139072848	21.4635761589404	17.0243708609272				1.25202649006623	-0.0765033112582781	0.309933774834437	-36.4482119205298	-12.2680794701987	1.62251655629139				-0.0642119205298013	-0.446834437086093	-1.25223841059603	7.30039735099338	12.1976158940397	81.005298013245			
86	1920	0	0	0	0	0	0				0	0	0	0	0	0				0	0	0	0	0	0				0.288529801324503	0.127470198675497	-1.23772185430464	49.5229139072848	15.0235761589404	25.4243708609272				1.18802649006623	-0.0285033112582781	0.437933774834437	-16.8482119205298	9.57192052980133	13.1025165562914				-0.112211920529801	-0.430834437086093	-0.996238410596026	18.7803973509934	13.5976158940397	93.885298013245			
87	1940	0	0	0	0	0	0				0	0	0	0	0	0				0	0	0	0	0	0				0.624529801324503	-0.000529801324503289	-1.23772185430464	87.3229139072848	15.0235761589404	36.3443708609272				0	0	0	0	0	0				0	0	0	0	0	0			
88	1980	0	0	0	0	0	0				0	0	0	0	0	0				-1.00217218543046	0.190728476821192	-1.06394701986755	11.767417218543	39.3464900662252	-2.16026490066225				0	0	0	0	0	0				0	0	0	0	0	0				0	0	0	0	0	0			
89	2000	-0.664158940397351	0.0987549668874172	-1.35152317880795	-32.1666225165563	72.0953642384106	32.1350993377484				1.58495364238411	-0.0162119205298013	1.00513907284768	-84.6860927152318	169.147814569536	24.0540397350993				-0.634172185430464	0.318728476821192	-1.30394701986755	49.8474172185431	61.1864900662252	-13.3602649006623				0	0	0	0	0	0				0	0	0	0	0	0				0	0	0	0	0	0			
90	2020	-0.392158940397351	0.146754966887417	-1.28752317880795	-40.2866225165563	82.7353642384106	31.8550993377483				1.82495364238411	0.159788079470199	1.00513907284768	-19.4460927152318	73.3878145695364	19.2940397350993				-0.506172185430464	0.190728476821192	-0.98394701986755	58.5274172185431	71.2664900662252	-19.8002649006623				0	0	0	0	0	0				0	0	0	0	0	0				0	0	0	0	0	0			
91	2040	-0.424158940397351	0.514754966887417	-1.01552317880795	-6.12662251655629	89.7353642384106	33.2550993377483				1.40895364238411	-0.000211920529801304	0.893139072847682	21.4339072847682	22.9878145695364	-6.18596026490066				-0.474172185430464	-0.321271523178808	-0.98394701986755	26.0474172185431	76.3064900662252	-11.9602649006623				0	0	0	0	0	0				0	0	0	0	0	0				0	0	0	0	0	0			
92	2060	-0.344158940397351	0.434754966887417	-0.951523178807947	19.6333774834437	86.6553642384106	34.9350993377483				1.05695364238411	-0.128211920529801	0.461139072847682	23.3939072847682	-8.65218543046358	-24.6659602649007				-0.186172185430464	-0.689271523178808	-0.98394701986755	17.087417218543	89.4664900662252	0.63973509933775				0	0	0	0	0	0				0	0	0	0	0	0				0	0	0	0	0	0			
93	2080	-0.120158940397351	0.386754966887417	-0.935523178807947	62.7533774834437	94.7753642384106	29.0550993377483				1.04095364238411	-0.176211920529801	0.445139072847682	-31.4860927152318	26.9078145695364	-8.98596026490066				0.0698278145695364	-0.449271523178808	-0.98394701986755	-37.232582781457	105.426490066225	6.79973509933775				0	0	0	0	0	0				0	0	0	0	0	0				0	0	0	0	0	0			
94	2100	0.167841059602649	0.0507549668874172	-0.983523178807947	60.7933774834437	108.215364238411	25.9750993377483				1.26495364238411	-0.0642119205298013	0.909139072847682	-47.7260927152318	52.9478145695364	-7.58596026490066				0.101827814569536	0.0307284768211921	-0.98394701986755	-58.792582781457	113.826490066225	9.87973509933775				0.656529801324503	-0.0325298013245033	-0.933721854304636	34.6829139072848	71.5835761589404	-4.25562913907285				0.932026490066225	0.0994966887417219	0.789933774834437	-23.5682119205298	-14.2280794701987	-12.3774834437086				0.319788079470199	-0.558834437086093	-0.836238410596026	8.98039735099338	70.7176158940397	-16.154701986755			
95	2120	0.407841059602649	0.0347549668874172	-0.983523178807947	40.0733774834437	116.335364238411	21.2150993377483				1.12095364238411	-0.0482119205298013	0.845139072847682	3.79390728476821	18.5078145695364	-10.1059602649007				0.133827814569536	0.254728476821192	-0.96794701986755	-47.872582781457	121.946490066225	8.75973509933775				0.720529801324503	0.111470198675497	-0.933721854304636	26.8429139072848	63.7435761589404	-7.05562913907285				0.996026490066225	0.275496688741722	0.757933774834437	-15.4482119205298	4.25192052980133	-8.17748344370861				0.383788079470199	-0.542834437086093	-0.820238410596026	-22.6596026490066	84.7176158940397	-12.794701986755			
96	2140	0.567841059602649	0.130754966887417	-0.919523178807947	15.9933774834437	129.775364238411	15.0550993377483				1.02495364238411	0.0157880794701987	0.589139072847682	0.153907284768212	9.54781456953642	-12.6259602649007				0.245827814569536	0.206728476821192	-0.85594701986755	-8.95258278145695	125.586490066225	-6.08026490066225				0.768529801324503	-0.304529801324503	-0.853721854304636	34.6829139072848	71.3035761589404	13.1043708609272				0.948026490066225	0.163496688741722	0.597933774834437	-19.6482119205298	9.85192052980133	-6.21748344370861				0.511788079470199	-0.350834437086093	-0.852238410596026	-31.3396026490066	84.7176158940397	-19.794701986755			
97	2160	0.567841059602649	0.242754966887417	-0.855523178807947	-1.36662251655629	140.695364238411	13.9350993377483				0.992953642384106	0.207788079470199	0.573139072847682	-24.4860927152318	24.6678145695364	-9.82596026490066				0.373827814569536	0.126728476821192	-0.93594701986755	15.967417218543	125.586490066225	-20.3602649006623				0.816529801324503	-0.480529801324503	-0.869721854304636	40.8429139072848	72.9835761589404	9.18437086092715				0.852026490066225	0.0514966887417219	0.597933774834437	-10.9682119205298	5.65192052980133	-6.49748344370861				0.559788079470199	-0.318834437086093	-0.852238410596026	-17.6196026490066	90.8776158940397	-27.634701986755			
98	2180	0.631841059602649	0.258754966887417	-0.775523178807947	3.95337748344371	145.455364238411	12.5350993377483				1.00895364238411	0.207788079470199	0.621139072847682	18.6339072847682	29.9878145695364	1.37403973509934				0.469827814569536	0.0947284768211921	-0.87194701986755	14.847417218543	128.946490066225	-28.2002649006623				0.912529801324503	-0.320529801324503	-0.757721854304636	24.0429139072848	73.5435761589404	-6.49562913907285				0.900026490066225	0.179496688741722	0.597933774834437	-10.9682119205298	5.37192052980133	-9.01748344370861				0.511788079470199	-0.494834437086093	-0.788238410596027	-18.1796026490066	93.1176158940397	-23.434701986755			
99	2200	0.695841059602649	0.242754966887417	-0.807523178807947	12.0733774834437	147.135364238411	7.77509933774834				0.848953642384106	-0.0802119205298013	0.461139072847682	64.2739072847682	-25.7321854304636	9.77403973509934				0.501827814569536	0.0147284768211921	-0.80794701986755	9.24741721854305	131.466490066225	-34.6402649006623				0.896529801324503	-0.0325298013245033	-0.613721854304636	2.48291390728477	59.2635761589404	-12.3756291390728				0.884026490066225	0.163496688741722	0.629933774834437	-14.3282119205298	8.45192052980133	-9.85748344370861				0.463788079470199	-0.478834437086093	-0.692238410596026	-22.9396026490066	86.1176158940397	-21.194701986755			
100	2220	0.631841059602649	0.258754966887417	-0.775523178807947	19.6333774834437	145.455364238411	3.57509933774835				0.848953642384106	-0.0802119205298013	0.541139072847682	24.7939072847682	-34.4121854304636	4.17403973509934				0.389827814569536	-0.0972715231788079	-0.71194701986755	2.80741721854305	133.706490066225	-36.6002649006623				0.800529801324503	-0.0165298013245033	-0.597721854304636	16.4829139072848	46.1035761589404	-6.21562913907285				0.756026490066225	0.0674966887417219	0.629933774834437	-14.6082119205298	7.61192052980133	-7.05748344370861				0.479788079470199	-0.318834437086093	-0.724238410596026	-23.7796026490066	79.9576158940397	-31.834701986755			
101	2240	0.439841059602649	0.162754966887417	-0.727523178807947	23.8333774834437	137.335364238411	0.495099337748344				1.07295364238411	-0.0162119205298013	0.525139072847682	-2.36609271523179	-35.2521854304636	-12.9059602649007				0.389827814569536	-0.145271523178808	-0.61594701986755	-4.47258278145695	131.466490066225	-34.3602649006623				0.800529801324503	-0.256529801324503	-0.581721854304636	30.2029139072848	52.5435761589404	-2.29562913907285				0.772026490066225	0.0514966887417219	0.613933774834437	4.7117880794702	-3.58807947019868	-3.69748344370861				0.543788079470199	-0.350834437086093	-0.724238410596026	-5.85960264900662	77.7176158940397	-20.074701986755			
102	2260	0.343841059602649	0.0347549668874172	-0.727523178807947	16.2733774834437	132.295364238411	-4.26490066225166				0.912953642384106	0.159788079470199	0.317139072847682	33.1939072847682	-69.4121854304636	-19.3459602649007				0.437827814569536	-0.129271523178808	-0.59994701986755	-12.312582781457	139.586490066225	-29.0402649006623				0.688529801324503	-0.320529801324503	-0.469721854304636	22.3629139072848	51.9835761589404	-13.4956291390728				0.756026490066225	0.0194966887417219	0.549933774834437	18.4317880794702	-6.94807947019868	-2.29748344370861				0.559788079470199	-0.414834437086093	-0.660238410596027	-18.7396026490066	70.9976158940397	-0.194701986754968			
103	2280	0.375841059602649	0.0347549668874172	-0.711523178807947	6.19337748344371	129.215364238411	-5.10490066225166				0.576953642384106	0.0797880794701987	0.221139072847682	54.1939072847682	-77.5321854304636	-7.02596026490066				0.485827814569536	-0.0652715231788079	-0.63194701986755	-5.31258278145695	141.546490066225	-22.0402649006623				0.496529801324503	-0.0165298013245033	-0.373721854304636	8.08291390728477	47.2235761589404	-24.1356291390729				0.724026490066225	0.0514966887417219	0.469933774834437	-2.2882119205298	-4.42807947019868	-0.0574834437086077				0.575788079470199	-0.334834437086093	-0.516238410596026	-31.0596026490066	71.8376158940397	-2.99470198675497			
104	2300	0.471841059602649	0.0987549668874172	-0.599523178807947	4.79337748344371	128.655364238411	-8.18490066225166				0.656953642384106	0.0957880794701987	0.221139072847682	49.1539072847682	-54.5721854304636	-0.0259602649006601				0.501827814569536	-0.00127152317880793	-0.56794701986755	24.087417218543	147.706490066225	-23.1602649006623				0.496529801324503	0.207470198675497	-0.357721854304636	34.9629139072848	46.6635761589404	-13.4956291390728				0.612026490066225	0.0354966887417219	0.421933774834437	-10.9682119205298	-9.74807947019868	3.02251655629139				0.623788079470199	-0.174834437086093	-0.548238410596027	-36.0996026490066	65.3976158940397	-22.034701986755			
105	2320	0.551841059602649	0.130754966887417	-0.583523178807947	8.99337748344371	128.655364238411	-8.18490066225166				0.912953642384106	0.127788079470199	0.365139072847682	70.7139072847682	-63.8121854304636	-1.70596026490066				0.389827814569536	0.0147284768211921	-0.63194701986755	38.647417218543	139.026490066225	-26.5202649006623				0.656529801324503	-0.0325298013245033	-0.453721854304636	83.9629139072848	46.9435761589404	0.784370860927152				0.612026490066225	0.179496688741722	0.469933774834437	-5.6482119205298	-32.9880794701987	4.42251655629139				0.575788079470199	-0.158834437086093	-0.564238410596026	-28.5396026490066	68.7576158940397	-30.714701986755			
106	2340	0.519841059602649	0.130754966887417	-0.631523178807947	5.07337748344371	126.695364238411	-5.94490066225166				0.704953642384106	0.0477880794701987	0.205139072847682	70.7139072847682	-88.4521854304636	-6.74596026490066				0.437827814569536	-0.00127152317880793	-0.53594701986755	35.007417218543	133.986490066225	-25.9602649006623				0.736529801324503	-0.320529801324503	-0.565721854304636	66.8829139072848	45.2635761589404	-3.69562913907285				0.692026490066225	0.179496688741722	0.469933774834437	17.5917880794702	-31.8680794701987	9.46251655629139				0.415788079470199	-0.238834437086093	-0.516238410596026	-18.7396026490066	62.5976158940397	-18.674701986755			
107	2360	0.407841059602649	0.0987549668874172	-0.647523178807947	7.59337748344371	126.695364238411	2.17509933774834				0.544953642384106	-0.0642119205298013	0.269139072847682	36.8339072847682	-64.6521854304636	5.57403973509934				0.533827814569536	-0.00127152317880793	-0.48794701986755	31.3674172185431	137.906490066225	-27.3602649006623				0.528529801324503	-0.336529801324503	-0.437721854304636	27.4029139072848	31.8235761589404	-20.4956291390729				0.628026490066225	-0.0285033112582781	0.245933774834437	12.5517880794702	-31.8680794701987	6.66251655629139				0.335788079470199	-0.174834437086093	-0.452238410596026	-19.8596026490066	48.0376158940397	-9.15470198675497			
108	2380	0.407841059602649	-0.0452450331125828	-0.663523178807947	14.3133774834437	122.495364238411	-0.344900662251656				0.528953642384106	0.127788079470199	0.0611390728476822	10.7939072847682	-61.2921854304636	-2.26596026490066				0.613827814569536	-0.0652715231788079	-0.55194701986755	29.1274172185431	131.746490066225	-28.4802649006623				0.352529801324503	-0.0645298013245033	-0.437721854304636	25.7229139072848	1.8635761589404	-20.7756291390729				0.532026490066225	-0.0445033112582781	0.245933774834437	2.1917880794702	-46.7080794701987	2.18251655629139				0.463788079470199	-0.0948344370860927	-0.580238410596026	-22.3796026490066	32.6376158940397	-22.874701986755			
109	2400	0.487841059602649	-0.0132450331125828	-0.679523178807947	15.1533774834437	118.015364238411	-1.74490066225166				0.720953642384106	0.223788079470199	0.205139072847682	40.7539072847682	-53.4521854304636	-10.1059602649007				0.565827814569536	-0.113271523178808	-0.51994701986755	7.00741721854305	125.866490066225	-22.3202649006623				0.464529801324503	-0.176529801324503	-0.469721854304636	32.1629139072848	5.7835761589404	-12.0956291390728				0.580026490066225	0.147496688741722	0.389933774834437	7.7917880794702	-57.3480794701987	4.42251655629139				0.511788079470199	-0.190834437086093	-0.500238410596026	-16.4996026490066	32.0776158940397	-21.754701986755			
110	2420	0.519841059602649	0.146754966887417	-0.647523178807947	12.3533774834437	115.215364238411	0.215099337748344				0.528953642384106	0.0957880794701987	0.109139072847682	42.9939072847682	-62.9721854304636	1.93403973509934				0.517827814569536	-0.193271523178808	-0.55194701986755	-0.552582781456954	128.946490066225	-20.6402649006623				0.448529801324503	-0.224529801324503	-0.389721854304636	33.2829139072848	6.0635761589404	-20.4956291390729				0.612026490066225	0.131496688741722	0.245933774834437	3.8717880794702	-45.3080794701987	4.14251655629139				0.367788079470199	-0.126834437086093	-0.436238410596026	-39.7396026490066	34.3176158940397	-13.074701986755			
111	2440	0.551841059602649	0.226754966887417	-0.567523178807947	12.9133774834437	107.375364238411	8.89509933774834				0.496953642384106	0.0317880794701987	0.141139072847682	25.9139072847682	-46.1721854304636	5.57403973509934				0.485827814569536	-0.145271523178808	-0.61594701986755	-6.71258278145695	120.826490066225	-18.1202649006623				0.432529801324503	-0.0805298013245033	-0.373721854304636	33.8429139072848	2.9835761589404	-24.6956291390729				0.500026490066225	0.0514966887417219	0.117933774834437	7.2317880794702	-42.7880794701987	4.42251655629139				0.271788079470199	-0.0468344370860927	-0.388238410596026	-27.1396026490066	26.7576158940397	-17.274701986755			
112	2460	0.615841059602649	0.130754966887417	-0.519523178807947	12.3533774834437	102.895364238411	11.9750993377483				0.608953642384106	0.191788079470199	0.237139072847682	24.7939072847682	-32.1721854304636	-4.22596026490066				0.613827814569536	-0.129271523178808	-0.48794701986755	-27.152582781457	110.466490066225	-11.1202649006623				0.496529801324503	-0.144529801324503	-0.421721854304636	33.2829139072848	-1.2164238410596	-19.9356291390729				0.484026490066225	0.0514966887417219	0.277933774834437	17.3117880794702	-45.8680794701987	3.86251655629139				0.495788079470199	0.00116556291390731	-0.532238410596027	-40.5796026490066	21.4376158940397	-30.154701986755			
113	2480	0.679841059602649	0.114754966887417	-0.615523178807947	15.9933774834437	92.5353642384106	14.4950993377483				0.608953642384106	0.175788079470199	0.205139072847682	31.2339072847682	-33.2921854304636	-1.70596026490066				0.725827814569536	-0.0332715231788079	-0.43994701986755	-26.312582781457	97.0264900662252	-0.76026490066225				0.448529801324503	-0.352529801324503	-0.389721854304636	28.2429139072848	-1.4964238410596	-17.9756291390729				0.548026490066225	0.131496688741722	0.229933774834437	1.9117880794702	-36.9080794701987	2.46251655629139				0.591788079470199	-0.0308344370860927	-0.580238410596026	-19.5796026490066	8.27761589403974	-31.834701986755			
114	2500	0.695841059602649	0.0987549668874172	-0.551523178807947	20.4733774834437	70.9753642384106	14.7750993377483				0.656953642384106	-0.0482119205298013	0.125139072847682	39.9139072847682	-29.0921854304636	0.25403973509934				0.773827814569536	-0.0332715231788079	-0.45594701986755	-19.312582781457	78.2664900662252	6.51973509933775				0.496529801324503	-0.208529801324503	-0.469721854304636	20.9629139072848	-21.0964238410596	-13.7756291390728				0.612026490066225	0.0194966887417219	0.229933774834437	14.2317880794702	-15.3480794701987	1.62251655629139				0.415788079470199	-0.0628344370860927	-0.452238410596026	-14.5396026490066	2.39761589403974	-21.194701986755			
115	2520	0.727841059602649	0.0347549668874172	-0.519523178807947	18.7933774834437	64.2553642384106	17.5750993377483				0.752953642384106	-0.0642119205298013	0.237139072847682	21.1539072847682	-31.8921854304636	-4.50596026490066				0.757827814569536	-0.0652715231788079	-0.45594701986755	-12.312582781457	55.3064900662252	7.35973509933775				0.608529801324503	-0.160529801324503	-0.437721854304636	25.1629139072848	-20.8164238410596	-5.65562913907285				0.708026490066225	-0.0285033112582781	0.421933774834437	27.3917880794702	-33.2680794701987	3.30251655629139				0.463788079470199	-0.190834437086093	-0.516238410596026	0.300397350993377	-8.24238410596027	-20.914701986755			
116	2540	0.743841059602649	-0.0772450331125828	-0.599523178807947	-5.56662251655629	51.0953642384106	15.8950993377483				0.656953642384106	-0.000211920529801304	0.253139072847682	-6.00609271523179	-35.2521854304636	0.25403973509934				0.837827814569536	-0.0652715231788079	-0.48794701986755	-14.552582781457	40.4664900662252	8.19973509933775				0.528529801324503	-0.416529801324503	-0.421721854304636	13.4029139072848	-8.4964238410596	-5.65562913907285				0.692026490066225	0.0194966887417219	0.309933774834437	14.5117880794702	-44.7480794701987	0.502516556291392				0.639788079470199	-0.222834437086093	-0.580238410596026	-2.49960264900662	-16.3623841059603	-27.634701986755			
117	2560	0.727841059602649	0.0187549668874172	-0.583523178807947	-12.8466225165563	43.2553642384106	10.0150993377483				0.784953642384106	0.0637880794701987	0.205139072847682	-25.0460927152318	-17.3321854304636	0.81403973509934				0.901827814569536	-0.0332715231788079	-0.43994701986755	-20.152582781457	33.7464900662252	5.67973509933775				0.320529801324503	-0.368529801324503	-0.453721854304636	14.2429139072848	-11.2964238410596	-0.335629139072848				0.644026490066225	-0.0125033112582781	0.133933774834437	1.0717880794702	-26.8280794701987	1.34251655629139				0.591788079470199	-0.174834437086093	-0.644238410596026	-20.1396026490066	-12.7223841059603	-25.674701986755			
118	2580	0.823841059602649	0.0347549668874172	-0.503523178807947	-9.76662251655629	41.2953642384106	7.21509933774835				0.928953642384106	-0.0482119205298013	0.237139072847682	-10.7660927152318	-14.8121854304636	-0.30596026490066				0.853827814569536	-0.0172715231788079	-0.42394701986755	-20.712582781457	23.3864900662252	2.03973509933775				0.528529801324503	-0.160529801324503	-0.581721854304636	6.40291390728477	-23.3364238410596	2.74437086092715				0.724026490066225	-0.0445033112582781	0.341933774834437	8.0717880794702	-7.78807947019868	3.58251655629139				0.463788079470199	-0.222834437086093	-0.564238410596026	-16.7796026490066	-5.16238410596027	-4.11470198675497			
119	2600	0.839841059602649	0.0507549668874172	-0.471523178807947	-10.6066225165563	28.9753642384106	7.21509933774835				0.832953642384106	-0.0162119205298013	0.109139072847682	-2.08609271523179	-27.1321854304636	-6.18596026490066				0.773827814569536	-0.00127152317880793	-0.42394701986755	-15.392582781457	18.3464900662252	0.0797350993377501				0.576529801324503	-0.256529801324503	-0.453721854304636	-4.51708609271523	-8.7764238410596	0.504370860927152				0.804026490066225	-0.0125033112582781	0.437933774834437	5.5517880794702	-22.6280794701987	1.90251655629139				0.639788079470199	-0.190834437086093	-0.564238410596026	1.14039735099338	-16.9223841059603	0.365298013245032			
120	2620	0.807841059602649	0.0187549668874172	-0.391523178807947	-13.6866225165563	22.2553642384106	7.49509933774834				0.864953642384106	0.0637880794701987	0.0771390728476822	-14.1260927152318	-22.0921854304636	-5.06596026490066				0.821827814569536	0.0147284768211921	-0.39194701986755	-17.352582781457	16.9464900662252	-0.76026490066225				0.544529801324503	-0.320529801324503	-0.469721854304636	11.4429139072848	0.7435761589404	9.18437086092715				0.852026490066225	0.0514966887417219	0.229933774834437	-11.5282119205298	-18.7080794701987	2.74251655629139				0.703788079470199	-0.206834437086093	-0.596238410596026	0.300397350993377	-21.4023841059603	-8.31470198675497			
121	2640	0.839841059602649	-0.0132450331125828	-0.423523178807947	-11.7266225165563	19.4553642384106	8.05509933774835				0.944953642384106	0.127788079470199	0.205139072847682	-16.3660927152318	-15.3721854304636	-6.18596026490066				0.885827814569536	-0.00127152317880793	-0.37594701986755	-14.832582781457	13.0264900662252	-1.60026490066225				0.656529801324503	-0.272529801324503	-0.597721854304636	20.6829139072848	-0.3764238410596	16.1843708609272				0.884026490066225	0.0354966887417219	0.293933774834437	-4.5282119205298	-15.0680794701987	6.94251655629139				0.639788079470199	-0.222834437086093	-0.548238410596027	-23.7796026490066	0.157615894039735	-1.87470198675497			
122	2660	0.855841059602649	-0.0132450331125828	-0.471523178807947	-10.3266225165563	19.1753642384106	6.93509933774835				0.976953642384106	0.0957880794701987	0.205139072847682	-6.56609271523179	-13.6921854304636	-9.26596026490066				0.885827814569536	-0.0332715231788079	-0.39194701986755	-9.79258278145695	7.42649006622517	-3.56026490066225				0.848529801324503	-0.368529801324503	-0.629721854304636	12.0029139072848	-3.7364238410596	20.3843708609272				0.916026490066225	0.0674966887417219	0.437933774834437	-8.4482119205298	-16.1880794701987	3.86251655629139				0.607788079470199	-0.174834437086093	-0.708238410596026	-21.2596026490066	3.51761589403974	5.12529801324503			
123	2680	0.855841059602649	0.0187549668874172	-0.407523178807947	-12.2866225165563	19.1753642384106	5.81509933774834				1.00895364238411	0.127788079470199	0.125139072847682	-2.36609271523179	-19.0121854304636	-3.38596026490066				0.901827814569536	-0.0652715231788079	-0.43994701986755	-0.832582781456954	-2.37350993377483	-3.84026490066225				0.736529801324503	-0.448529801324503	-0.597721854304636	-13.4770860927152	-4.8564238410596	19.2643708609272				0.932026490066225	0.0674966887417219	0.309933774834437	-7.6082119205298	-25.9880794701987	2.46251655629139				0.671788079470199	-0.158834437086093	-0.660238410596027	-3.89960264900662	-9.36238410596027	1.20529801324503			
124	2700	0.871841059602649	0.0507549668874172	-0.407523178807947	-12.8466225165563	15.2553642384106	5.53509933774834				1.00895364238411	0.143788079470199	0.0291390728476822	-4.88609271523179	-19.5721854304636	0.25403973509934				0.901827814569536	-0.0652715231788079	-0.42394701986755	4.48741721854305	3.50649006622517	-2.72026490066225				0.592529801324503	-0.384529801324503	-0.613721854304636	-15.4370860927152	-1.4964238410596	17.8643708609272				0.884026490066225	0.00349668874172187	0.165933774834437	-10.1282119205298	-12.5480794701987	-0.617483443708608				0.527788079470199	-0.158834437086093	-0.724238410596026	-3.33960264900662	-12.1623841059603	7.64529801324503			
125	2720	0.855841059602649	0.0827549668874172	-0.407523178807947	-12.8466225165563	9.9353642384106	3.57509933774835				0.960953642384106	0.0637880794701987	0.125139072847682	-9.08609271523179	-13.9721854304636	1.09403973509934				0.821827814569536	-0.0492715231788079	-0.39194701986755	-0.552582781456954	9.38649006622517	-1.32026490066225				0.624529801324503	-0.240529801324503	-0.629721854304636	-11.2370860927152	-8.4964238410596	12.5443708609272				0.900026490066225	-0.0125033112582781	0.309933774834437	-11.2482119205298	-5.54807947019868	-4.25748344370861				0.559788079470199	-0.174834437086093	-0.756238410596026	-13.1396026490066	-9.08238410596027	17.725298013245			
126	2740	0.839841059602649	0.114754966887417	-0.487523178807947	-5.56662251655629	6.0153642384106	-0.0649006622516557				0.928953642384106	0.0797880794701987	0.125139072847682	4.63390728476821	-19.2921854304636	-2.82596026490066				0.805827814569536	-0.0812715231788079	-0.40794701986755	-7.83258278145695	9.10649006622517	-0.20026490066225				0.704529801324503	-0.256529801324503	-0.533721854304636	-12.9170860927152	-8.7764238410596	13.1043708609272				0.964026490066225	0.115496688741722	0.341933774834437	-16.8482119205298	-13.1080794701987	0.222516556291392				0.687788079470199	-0.206834437086093	-0.676238410596026	-20.4196026490066	0.997615894039735	17.725298013245			
127	2760	0.839841059602649	0.114754966887417	-0.471523178807947	5.07337748344371	6.0153642384106	-2.86490066225166				0.992953642384106	0.159788079470199	-0.0668609271523178	4.35390728476821	-15.9321854304636	1.65403973509934				0.821827814569536	-0.0652715231788079	-0.40794701986755	-2.23258278145695	9.10649006622517	-1.32026490066225				0.608529801324503	-0.320529801324503	-0.517721854304636	-6.75708609271523	1.5835761589404	16.1843708609272				0.948026490066225	0.0514966887417219	0.197933774834437	-17.4082119205298	-12.2680794701987	2.18251655629139				0.543788079470199	0.0171655629139073	-0.660238410596027	-26.5796026490066	13.3176158940397	11.285298013245			
128	2780	0.839841059602649	0.0507549668874172	-0.423523178807947	8.71337748344371	7.6953642384106	-3.70490066225166				1.02495364238411	0.159788079470199	-0.0188609271523178	3.23390728476821	-15.0921854304636	3.33403973509934				0.853827814569536	-0.0332715231788079	-0.43994701986755	-0.832582781456954	7.98649006622517	-0.20026490066225				0.528529801324503	-0.336529801324503	-0.597721854304636	0.522913907284768	14.7435761589404	12.2643708609272				0.836026490066225	-0.0285033112582781	0.197933774834437	-11.8082119205298	-11.7080794701987	1.06251655629139				0.479788079470199	-0.0468344370860927	-0.756238410596026	-7.81960264900662	7.43761589403974	11.005298013245			
129	2800	0.855841059602649	0.00275496688741723	-0.455523178807947	10.1133774834437	5.7353642384106	-2.86490066225166				0.944953642384106	0.0477880794701987	0.0931390728476822	12.1939072847682	-26.5721854304636	-0.585960264900661				0.837827814569536	-0.0172715231788079	-0.50394701986755	6.16741721854305	8.26649006622517	-1.60026490066225				0.656529801324503	-0.272529801324503	-0.613721854304636	4.44291390728477	13.0635761589404	3.30437086092715				0.868026490066225	0.0354966887417219	0.309933774834437	-13.7682119205298	-3.58807947019868	-0.337483443708608				0.607788079470199	-0.142834437086093	-0.788238410596027	-1.37960264900662	10.5176158940397	12.965298013245			
130	2820	0.855841059602649	0.00275496688741723	-0.439523178807947	7.87337748344371	6.2953642384106	-3.42490066225166				0.912953642384106	0.0957880794701987	0.0771390728476822	16.1139072847682	-32.4521854304636	-8.42596026490066				0.821827814569536	-0.00127152317880793	-0.48794701986755	-1.39258278145695	9.94649006622517	-3.00026490066225				0.736529801324503	-0.256529801324503	-0.517721854304636	5.84291390728477	12.5035761589404	-1.73562913907285				0.996026490066225	0.0994966887417219	0.213933774834437	-19.0882119205298	-6.94807947019868	2.74251655629139				0.623788079470199	-0.0788344370860927	-0.772238410596026	1.70039735099338	9.95761589403974	9.88529801324503			
131	2840	0.839841059602649	0.0347549668874172	-0.423523178807947	13.1933774834437	2.3753642384106	-2.86490066225166				0.976953642384106	0.143788079470199	-0.130860927152318	12.1939072847682	-20.6921854304636	-2.54596026490066				0.805827814569536	0.0147284768211921	-0.47194701986755	4.76741721854305	7.14649006622517	-4.40026490066225				0.704529801324503	-0.272529801324503	-0.517721854304636	4.72291390728477	12.2235761589404	-1.45562913907285				0.964026490066225	0.0514966887417219	0.133933774834437	-8.7282119205298	-4.70807947019868	5.54251655629139				0.495788079470199	-0.0148344370860927	-0.708238410596026	-1.09960264900662	12.1976158940397	6.24529801324503			
132	2860	0.807841059602649	0.0507549668874172	-0.455523178807947	14.5933774834437	1.2553642384106	-2.58490066225166				1.00895364238411	0.143788079470199	-0.0828609271523179	12.7539072847682	-8.09218543046358	1.09403973509934				0.901827814569536	0.0627284768211921	-0.43994701986755	10.367417218543	9.10649006622517	-4.68026490066225				0.720529801324503	-0.400529801324503	-0.629721854304636	21.5229139072848	10.2635761589404	3.30437086092715				0.900026490066225	0.00349668874172187	0.229933774834437	2.4717880794702	-4.42807947019868	5.82251655629139				0.479788079470199	-0.0308344370860927	-0.756238410596026	0.580397350993377	7.71761589403974	6.24529801324503			
133	2880	0.807841059602649	0.0187549668874172	-0.455523178807947	3.11337748344371	2.9353642384106	-3.14490066225166				0.944953642384106	0.143788079470199	0.0771390728476822	6.31390728476821	-11.7321854304636	4.45403973509934				0.885827814569536	0.0307284768211921	-0.47194701986755	13.167417218543	5.46649006622517	-6.08026490066225				0.784529801324503	-0.432529801324503	-0.629721854304636	10.6029139072848	2.1435761589404	-7.89562913907285				0.916026490066225	0.0514966887417219	0.261933774834437	4.7117880794702	-2.74807947019868	3.02251655629139				0.607788079470199	-0.126834437086093	-0.772238410596026	4.50039735099338	7.99761589403974	-1.03470198675497			
134	2900	0.871841059602649	0.0507549668874172	-0.471523178807947	10.1133774834437	3.2153642384106	-2.30490066225166				0.960953642384106	0.127788079470199	-0.00286092715231785	3.79390728476821	-19.2921854304636	6.41403973509934				0.821827814569536	-0.0172715231788079	-0.47194701986755	25.2074172185431	7.42649006622517	-9.16026490066225				0.736529801324503	-0.320529801324503	-0.565721854304636	0.802913907284768	-3.4564238410596	-15.1756291390728				1.02802649006623	0.0514966887417219	0.213933774834437	6.1117880794702	-6.38807947019868	-0.617483443708608				0.607788079470199	-0.0948344370860927	-0.740238410596026	7.86039735099338	4.07761589403974	-8.87470198675497			
135	2920	0.887841059602649	0.0507549668874172	-0.471523178807947	10.3933774834437	2.0953642384106	-1.18490066225166				1.02495364238411	0.159788079470199	-0.130860927152318	7.99390728476821	-7.81218543046358	1.93403973509934				0.837827814569536	0.0147284768211921	-0.40794701986755	16.807417218543	9.66649006622517	-7.76026490066225				0.672529801324503	-0.272529801324503	-0.629721854304636	11.1629139072848	-4.2964238410596	-11.2556291390728				0.980026490066225	0.0194966887417219	0.213933774834437	14.7917880794702	-6.10807947019868	2.74251655629139				0.543788079470199	-0.0788344370860927	-0.660238410596027	1.70039735099338	11.6376158940397	-9.43470198675497			
136	2940	0.839841059602649	0.0827549668874172	-0.487523178807947	10.6733774834437	3.4953642384106	-1.46490066225166				1.05695364238411	0.143788079470199	0.0131390728476822	10.2339072847682	-2.77218543046358	-0.30596026490066				0.901827814569536	0.0147284768211921	-0.39194701986755	7.28741721854305	7.42649006622517	-3.84026490066225				0.720529801324503	-0.448529801324503	-0.693721854304636	15.6429139072848	-4.2964238410596	-9.85562913907285				0.932026490066225	-0.0125033112582781	0.261933774834437	13.1117880794702	-4.42807947019868	1.06251655629139				0.671788079470199	-0.158834437086093	-0.724238410596026	-1.93960264900662	14.7176158940397	-10.554701986755			
137	2960	0.823841059602649	0.0667549668874172	-0.455523178807947	7.87337748344371	8.2553642384106	-1.18490066225166				0.944953642384106	0.0957880794701987	0.0771390728476822	10.5139072847682	-17.8921854304636	0.53403973509934				0.885827814569536	-0.0652715231788079	-0.40794701986755	6.44741721854305	4.34649006622517	-2.16026490066225				0.752529801324503	-0.464529801324503	-0.629721854304636	9.48291390728477	-8.2164238410596	-12.3756291390728				0.996026490066225	0.0354966887417219	0.245933774834437	10.8717880794702	-8.06807947019868	-3.13748344370861				0.767788079470199	-0.206834437086093	-0.788238410596027	-0.819602649006623	7.43761589403974	-16.714701986755			
138	2980	0	0	0	0	0	0				0	0	0	0	0	0				0	0	0	0	0	0				0.624529801324503	-0.304529801324503	-0.613721854304636	-13.4770860927152	-11.8564238410596	-9.57562913907285				0	0	0	0	0	0				0	0	0	0	0	0			
139	3100	0	0	0	0	0	0				0.976953642384106	0.159788079470199	-0.0348609271523178	-0.406092715231788	0.0278145695364242	2.77403973509934				0.885827814569536	-0.00127152317880793	-0.39194701986755	0.287417218543046	1.54649006622517	-0.76026490066225				0	0	0	0	0	0				0.964026490066225	0.0674966887417219	0.229933774834437	2.4717880794702	1.45192052980132	1.62251655629139				0.543788079470199	-0.0948344370860927	-0.628238410596026	4.22039735099338	-0.682384105960265	4.28529801324503			
140	3120	0.871841059602649	0.0187549668874172	-0.423523178807947	-6.40662251655629	4.8953642384106	0.495099337748344				0.912953642384106	0.159788079470199	-0.0188609271523178	-1.52609271523179	-2.21218543046358	4.45403973509934				0.869827814569536	-0.00127152317880793	-0.37594701986755	-0.272582781456954	0.706490066225167	-1.60026490066225				0.560529801324503	-0.384529801324503	-0.613721854304636	-9.27708609271523	5.5035761589404	-1.73562913907285				0.948026490066225	0.0194966887417219	0.149933774834437	-2.8482119205298	-3.30807947019868	1.06251655629139				0.655788079470199	-0.0948344370860927	-0.724238410596026	-1.37960264900662	3.79761589403974	4.84529801324503			
141	3140	0.727841059602649	0.0827549668874172	-0.647523178807947	4.51337748344371	0.415364238410596	-4.82490066225166				0.960953642384106	0.0637880794701987	-0.0988609271523179	2.67390728476821	4.78781456953642	2.77403973509934				0.757827814569536	-0.0492715231788079	-0.59994701986755	8.68741721854305	1.26649006622517	-5.52026490066225				0.816529801324503	-0.144529801324503	-0.597721854304636	3.04291390728477	-3.7364238410596	-1.73562913907285				0.900026490066225	0.0834966887417219	0.133933774834437	-3.6882119205298	9.01192052980133	0.782516556291392				0.655788079470199	-0.0788344370860927	-0.708238410596026	3.10039735099338	4.63761589403974	2.88529801324503			
142	3160	0.855841059602649	0.0667549668874172	-0.375523178807947	1.71337748344371	1.5353642384106	1.05509933774834				0.976953642384106	0.0797880794701987	-0.00286092715231785	0.993907284768212	7.86781456953642	5.57403973509934				0.853827814569536	-0.00127152317880793	-0.37594701986755	-6.15258278145695	1.82649006622517	-0.48026490066225				0.624529801324503	-0.272529801324503	-0.661721854304636	8.36291390728477	10.5435761589404	5.26437086092715				0.884026490066225	0.0354966887417219	0.229933774834437	-1.1682119205298	18.5319205298013	3.02251655629139				0.591788079470199	-0.0308344370860927	-0.708238410596026	-5.29960264900662	12.7576158940397	8.20529801324503			
143	3180	0.887841059602649	0.0347549668874172	-0.407523178807947	-0.246622516556291	1.8153642384106	0.775099337748344				0.976953642384106	0.111788079470199	0.0131390728476822	4.07390728476821	6.18781456953642	7.53403973509934				0.853827814569536	-0.00127152317880793	-0.39194701986755	-2.51258278145695	2.38649006622517	-1.04026490066225				0.704529801324503	-0.400529801324503	-0.629721854304636	-4.23708609271523	3.5435761589404	9.18437086092715				0.916026490066225	0.0354966887417219	0.277933774834437	-4.5282119205298	16.8519205298013	1.90251655629139				0.639788079470199	-0.174834437086093	-0.708238410596026	12.0603973509934	5.19761589403974	10.725298013245			
144	3200	0.871841059602649	0.0187549668874172	-0.407523178807947	-0.246622516556291	1.2553642384106	0.495099337748344				0.960953642384106	0.127788079470199	-0.0508609271523178	5.19390728476821	1.14781456953642	8.65403973509934				0.885827814569536	0.0147284768211921	-0.40794701986755	2.52741721854305	2.10649006622517	-1.04026490066225				0.656529801324503	-0.384529801324503	-0.613721854304636	-14.3170860927152	8.5835761589404	7.22437086092715				0.996026490066225	0.0194966887417219	0.261933774834437	-4.2482119205298	11.2519205298013	0.502516556291392				0.751788079470199	-0.222834437086093	-0.724238410596026	7.02039735099338	0.997615894039735	10.165298013245			
145	3220	0.855841059602649	0.0347549668874172	-0.407523178807947	-4.16662251655629	2.6553642384106	-0.0649006622516557				0.992953642384106	0.111788079470199	-0.0828609271523179	-2.08609271523179	9.54781456953642	9.77403973509934				0.885827814569536	-0.0172715231788079	-0.39194701986755	2.80741721854305	-0.973509933774833	-1.32026490066225				0.656529801324503	-0.304529801324503	-0.581721854304636	-1.15708609271523	19.5035761589404	6.38437086092715				0.996026490066225	0.0194966887417219	0.229933774834437	-11.8082119205298	12.3719205298013	2.74251655629139				0.703788079470199	-0.174834437086093	-0.756238410596026	-5.01960264900662	0.997615894039735	13.525298013245			
146	3240	0.871841059602649	0.0347549668874172	-0.407523178807947	-4.16662251655629	1.2553642384106	-0.624900662251656				1.00895364238411	0.0797880794701987	-0.0348609271523178	-0.966092715231788	11.2278145695364	7.53403973509934				0.869827814569536	-0.00127152317880793	-0.40794701986755	3.92741721854305	1.54649006622517	-1.88026490066225				0.688529801324503	-0.272529801324503	-0.629721854304636	-4.79708609271523	9.9835761589404	10.5843708609272				0.916026490066225	0.00349668874172187	0.277933774834437	-6.2082119205298	15.4519205298013	5.54251655629139				0.607788079470199	-0.0788344370860927	-0.708238410596026	-7.25960264900662	2.95761589403974	16.045298013245			
147	3260	0.887841059602649	0.0347549668874172	-0.455523178807947	-3.88662251655629	3.4953642384106	-0.624900662251656				1.00895364238411	0.0477880794701987	-0.0188609271523178	1.27390728476821	3.66781456953642	6.13403973509934				0.837827814569536	0.0147284768211921	-0.39194701986755	1.12741721854305	1.54649006622517	-1.32026490066225				0.736529801324503	-0.352529801324503	-0.581721854304636	-5.63708609271523	6.9035761589404	11.4243708609272				0.948026490066225	0.0194966887417219	0.309933774834437	-6.7682119205298	12.6519205298013	3.86251655629139				0.575788079470199	-0.174834437086093	-0.724238410596026	14.5803973509934	-2.92238410596027	16.045298013245			
148	3280	0.855841059602649	0.0187549668874172	-0.487523178807947	-1.08662251655629	4.0553642384106	-0.624900662251656				0.992953642384106	0.127788079470199	-0.0508609271523178	-4.32609271523179	2.54781456953642	4.73403973509934				0.869827814569536	-0.0172715231788079	-0.39194701986755	-0.552582781456954	4.62649006622517	-0.48026490066225				0.720529801324503	-0.432529801324503	-0.581721854304636	-5.07708609271523	12.7835761589404	8.90437086092715				0.996026490066225	-0.0125033112582781	0.277933774834437	-3.1282119205298	2.29192052980133	4.14251655629139				0.639788079470199	-0.222834437086093	-0.708238410596026	7.86039735099338	2.39761589403974	15.765298013245			
149	3300	0.823841059602649	0.00275496688741723	-0.455523178807947	0.313377483443709	5.7353642384106	-0.904900662251656				0.992953642384106	0.111788079470199	-0.0828609271523179	-7.40609271523179	0.587814569536424	4.45403973509934				0.869827814569536	-0.0332715231788079	-0.42394701986755	-1.67258278145695	3.78649006622517	-1.04026490066225				0.656529801324503	-0.384529801324503	-0.581721854304636	4.44291390728477	18.6635761589404	7.50437086092715				0.980026490066225	-0.0125033112582781	0.213933774834437	-7.0482119205298	7.61192052980133	2.18251655629139				0.639788079470199	-0.110834437086093	-0.756238410596026	-2.21960264900662	1.55761589403974	15.765298013245			
150	3320	0.823841059602649	0.130754966887417	-0.551523178807947	4.79337748344371	7.1353642384106	2.17509933774834				0.960953642384106	0.0957880794701987	0.0451390728476822	5.47390728476821	4.22781456953642	5.01403973509934				0.741827814569536	0.0787284768211921	-0.53594701986755	4.48741721854305	4.62649006622517	-3.00026490066225				0.672529801324503	-0.368529801324503	-0.645721854304636	-3.67708609271523	9.4235761589404	9.46437086092715				0.916026490066225	-0.0285033112582781	0.213933774834437	-6.2082119205298	15.4519205298013	2.18251655629139				0.447788079470199	-0.0628344370860927	-0.788238410596027	3.10039735099338	3.51761589403974	3.44529801324503			
