No	Time	12-AccX	12-AccY	12-AccZ	12-GyroX	12-GyroY	12-GyroZ	13-AccX	13-AccY	13-AccZ	13-GyroX	13-GyroY	13-GyroZ	14-AccX	14-AccY	14-AccZ	14-GyroX	14-GyroY	14-GyroZ	15-AccX	15-AccY	15-AccZ	15-GyroX	15-GyroY	15-GyroZ	16-AccX	16-AccY	16-AccZ	16-GyroX	16-GyroY	16-GyroZ	17-AccX	17-AccY	17-AccZ	17-GyroX	17-GyroY	17-GyroZ
0	80	0	0	0	0	0	0				0	0	0	0	0	0				-0.202172185430464	0.0467284768211921	-0.90394701986755	-0.832582781456954	0.706490066225167	-0.20026490066225				0	0	0	0	0	0				0	0	0	0	0	0				0	0	0	0	0	0			
1	100	-0.216158940397351	0.0827549668874172	-0.935523178807947	-0.526622516556291	-0.984635761589404	-1.18490066225166				0.960953642384106	0.111788079470199	0.269139072847682	2.11390728476821	-3.33218543046358	0.53403973509934				-0.202172185430464	0.0627284768211921	-0.90394701986755	-1.67258278145695	0.986490066225167	0.0797350993377501				0	0	0	0	0	0				0	0	0	0	0	0				0	0	0	0	0	0			
2	120	-0.216158940397351	0.0827549668874172	-0.967523178807947	-0.246622516556291	0.135364238410596	-0.904900662251656				0.960953642384106	0.127788079470199	0.253139072847682	2.67390728476821	0.0278145695364242	1.37403973509934				-0.202172185430464	0.0627284768211921	-0.90394701986755	-0.552582781456954	0.986490066225167	-0.20026490066225				0	0	0	0	0	0				0	0	0	0	0	0				0	0	0	0	0	0			
3	140	-0.200158940397351	0.0827549668874172	-0.935523178807947	0.0333774834437086	0.695364238410596	-0.624900662251656				0.976953642384106	0.111788079470199	0.253139072847682	-0.686092715231788	1.98781456953642	1.65403973509934				-0.202172185430464	0.0627284768211921	-0.90394701986755	-0.272582781456954	0.426490066225167	0.0797350993377501				0	0	0	0	0	0				0	0	0	0	0	0				0	0	0	0	0	0			
4	160	-0.200158940397351	0.0827549668874172	-0.935523178807947	-0.246622516556291	0.695364238410596	-1.18490066225166				0.976953642384106	0.127788079470199	0.285139072847682	0.993907284768212	-1.37218543046358	-0.0259602649006601				-0.186172185430464	0.0467284768211921	-0.90394701986755	1.12741721854305	0.146490066225167	-0.20026490066225				0.544529801324503	-0.240529801324503	-0.757721854304636	1.08291390728477	1.5835761589404	-0.335629139072848				0.948026490066225	0.0674966887417219	0.181933774834437	-0.328211920529802	2.85192052980133	-0.617483443708608				0.479788079470199	-0.126834437086093	-0.804238410596027	1.98039735099338	-0.682384105960265	-1.87470198675497			
5	180	-0.200158940397351	0.0827549668874172	-0.951523178807947	0.0333774834437086	-0.144635761589404	-0.344900662251656				0.960953642384106	0.127788079470199	0.285139072847682	2.95390728476821	-4.17218543046358	0.53403973509934				-0.202172185430464	0.0627284768211921	-0.90394701986755	-1.95258278145695	0.426490066225167	-0.20026490066225				0.560529801324503	-0.240529801324503	-0.741721854304636	-0.877086092715232	0.7435761589404	-0.895629139072848				0.964026490066225	0.0674966887417219	0.197933774834437	2.4717880794702	1.45192052980132	-0.0574834437086077				0.479788079470199	-0.142834437086093	-0.820238410596026	0.300397350993377	1.55761589403974	-1.31470198675497			
6	200	-0.216158940397351	0.0987549668874172	-0.935523178807947	0.593377483443709	0.135364238410596	-1.18490066225166				0.960953642384106	0.111788079470199	0.253139072847682	3.23390728476821	-3.33218543046358	0.25403973509934				-0.186172185430464	0.0627284768211921	-0.90394701986755	-1.95258278145695	0.146490066225167	0.0797350993377501				0.560529801324503	-0.240529801324503	-0.741721854304636	0.242913907284768	1.3035761589404	-0.615629139072848				0.964026490066225	0.0674966887417219	0.165933774834437	0.791788079470198	0.611920529801325	-0.337483443708608				0.495788079470199	-0.126834437086093	-0.804238410596027	-0.259602649006623	2.39761589403974	-2.15470198675497			
7	220	-0.216158940397351	0.0827549668874172	-0.951523178807947	0.313377483443709	0.975364238410596	-0.624900662251656				0.976953642384106	0.127788079470199	0.237139072847682	3.23390728476821	-0.812185430463576	0.25403973509934				-0.202172185430464	0.0627284768211921	-0.91994701986755	-1.39258278145695	0.986490066225167	0.0797350993377501				0.560529801324503	-0.240529801324503	-0.757721854304636	1.92291390728477	1.8635761589404	-0.895629139072848				0.948026490066225	0.0674966887417219	0.181933774834437	1.0717880794702	0.611920529801325	1.06251655629139				0.495788079470199	-0.110834437086093	-0.804238410596027	-0.539602649006623	3.79761589403974	-2.43470198675497			
8	240	-0.200158940397351	0.0827549668874172	-0.951523178807947	0.873377483443709	0.975364238410596	-1.74490066225166				0.960953642384106	0.127788079470199	0.269139072847682	1.83390728476821	1.42781456953642	0.53403973509934				-0.202172185430464	0.0627284768211921	-0.90394701986755	0.00741721854304636	0.706490066225167	-0.20026490066225				0.560529801324503	-0.240529801324503	-0.741721854304636	0.522913907284768	1.0235761589404	-1.73562913907285				0.948026490066225	0.0674966887417219	0.181933774834437	1.6317880794702	1.45192052980132	-0.337483443708608				0.479788079470199	-0.126834437086093	-0.804238410596027	-0.539602649006623	3.79761589403974	-2.71470198675497			
9	260	-0.200158940397351	0.0827549668874172	-0.951523178807947	-1.08662251655629	0.135364238410596	-1.46490066225166				0.960953642384106	0.111788079470199	0.269139072847682	1.27390728476821	-0.812185430463576	0.53403973509934				-0.202172185430464	0.0627284768211921	-0.88794701986755	-0.552582781456954	0.426490066225167	0.35973509933775				0.560529801324503	-0.240529801324503	-0.741721854304636	1.64291390728477	1.0235761589404	-2.29562913907285				0.964026490066225	0.0674966887417219	0.197933774834437	1.6317880794702	0.611920529801325	-0.617483443708608				0.495788079470199	-0.126834437086093	-0.804238410596027	-0.259602649006623	4.07761589403974	-3.27470198675497			
10	280	-0.216158940397351	0.0827549668874172	-0.951523178807947	-0.246622516556291	0.135364238410596	-0.0649006622516557				0.960953642384106	0.127788079470199	0.253139072847682	2.67390728476821	-2.49218543046358	0.81403973509934				-0.202172185430464	0.0627284768211921	-0.90394701986755	-1.39258278145695	0.146490066225167	0.0797350993377501				0.560529801324503	-0.256529801324503	-0.757721854304636	1.08291390728477	0.1835761589404	-2.57562913907285				0.964026490066225	0.0674966887417219	0.181933774834437	0.511788079470198	-0.508079470198675	-0.897483443708608				0.495788079470199	-0.126834437086093	-0.804238410596027	-0.259602649006623	3.79761589403974	-4.11470198675497			
11	300	-0.216158940397351	0.0827549668874172	-0.951523178807947	0.873377483443709	0.135364238410596	-0.904900662251656				0.960953642384106	0.127788079470199	0.237139072847682	4.91390728476821	-1.37218543046358	0.81403973509934				-0.202172185430464	0.0787284768211921	-0.90394701986755	-0.552582781456954	0.146490066225167	0.35973509933775				0.560529801324503	-0.240529801324503	-0.741721854304636	-0.597086092715232	0.7435761589404	-1.45562913907285				0.948026490066225	0.0674966887417219	0.181933774834437	1.0717880794702	0.0519205298013249	-0.617483443708608				0.495788079470199	-0.126834437086093	-0.820238410596026	0.580397350993377	3.79761589403974	-4.39470198675497			
12	320	-0.216158940397351	0.0827549668874172	-0.951523178807947	0.0333774834437086	0.695364238410596	-1.18490066225166				0.976953642384106	0.111788079470199	0.237139072847682	3.23390728476821	0.587814569536424	1.09403973509934				-0.202172185430464	0.0627284768211921	-0.90394701986755	0.567417218543046	-0.413509933774833	0.0797350993377501				0.560529801324503	-0.240529801324503	-0.757721854304636	-0.317086092715232	-0.3764238410596	-1.73562913907285				0.948026490066225	0.0674966887417219	0.181933774834437	1.6317880794702	0.331920529801325	-0.0574834437086077				0.495788079470199	-0.126834437086093	-0.804238410596027	-0.259602649006623	3.51761589403974	-2.99470198675497			
13	340	-0.200158940397351	0.0827549668874172	-0.951523178807947	-1.64662251655629	0.135364238410596	-1.46490066225166				0.960953642384106	0.127788079470199	0.253139072847682	0.153907284768212	1.14781456953642	0.53403973509934				-0.186172185430464	0.0787284768211921	-0.88794701986755	1.40741721854305	-0.133509933774833	-0.20026490066225				0.560529801324503	-0.240529801324503	-0.741721854304636	0.522913907284768	-0.3764238410596	-1.45562913907285				0.948026490066225	0.0674966887417219	0.197933774834437	2.1917880794702	1.17192052980133	-0.337483443708608				0.495788079470199	-0.142834437086093	-0.804238410596027	0.0203973509933773	1.27761589403974	-3.27470198675497			
14	360	-0.200158940397351	0.0827549668874172	-0.935523178807947	0.313377483443709	-0.144635761589404	-0.344900662251656				0.960953642384106	0.111788079470199	0.269139072847682	0.713907284768212	-0.252185430463576	1.37403973509934				-0.202172185430464	0.0627284768211921	-0.90394701986755	0.00741721854304636	0.146490066225167	0.0797350993377501				0.544529801324503	-0.240529801324503	-0.757721854304636	0.522913907284768	-1.2164238410596	-1.73562913907285				0.948026490066225	0.0674966887417219	0.181933774834437	1.3517880794702	0.331920529801325	-1.17748344370861				0.511788079470199	-0.142834437086093	-0.820238410596026	0.0203973509933773	-0.122384105960265	-2.99470198675497			
15	380	-0.216158940397351	0.0827549668874172	-0.951523178807947	0.313377483443709	0.135364238410596	-0.904900662251656				0.976953642384106	0.127788079470199	0.269139072847682	1.83390728476821	-0.252185430463576	1.37403973509934				-0.202172185430464	0.0627284768211921	-0.90394701986755	0.567417218543046	0.426490066225167	-0.48026490066225				0.544529801324503	-0.240529801324503	-0.757721854304636	-0.597086092715232	-1.2164238410596	-1.73562913907285				0.948026490066225	0.0514966887417219	0.181933774834437	0.791788079470198	-0.228079470198675	-1.17748344370861				0.495788079470199	-0.126834437086093	-0.820238410596026	0.580397350993377	0.157615894039735	-1.87470198675497			
16	400	-0.216158940397351	0.0827549668874172	-0.951523178807947	0.593377483443709	0.415364238410596	-0.904900662251656				0.960953642384106	0.111788079470199	0.253139072847682	1.55390728476821	-0.252185430463576	1.09403973509934				-0.202172185430464	0.0627284768211921	-0.91994701986755	0.567417218543046	-0.133509933774833	-0.76026490066225				0.544529801324503	-0.240529801324503	-0.741721854304636	-0.597086092715232	-0.6564238410596	-1.73562913907285				0.948026490066225	0.0514966887417219	0.197933774834437	1.9117880794702	0.891920529801325	0.222516556291392				0.495788079470199	-0.126834437086093	-0.820238410596026	0.580397350993377	-0.122384105960265	-0.194701986754968			
17	420	-0.200158940397351	0.0827549668874172	-0.935523178807947	-0.526622516556291	-0.144635761589404	-1.18490066225166				0.976953642384106	0.111788079470199	0.253139072847682	0.713907284768212	1.42781456953642	1.37403973509934				-0.202172185430464	0.0627284768211921	-0.88794701986755	-1.11258278145695	1.26649006622517	0.35973509933775				0.544529801324503	-0.240529801324503	-0.725721854304636	-0.0370860927152318	-1.4964238410596	-1.45562913907285				0.964026490066225	0.0674966887417219	0.181933774834437	0.791788079470198	1.45192052980132	-0.337483443708608				0.495788079470199	-0.126834437086093	-0.804238410596027	1.14039735099338	-0.402384105960265	0.365298013245032			
18	440	-0.200158940397351	0.0827549668874172	-0.951523178807947	0.313377483443709	0.135364238410596	-1.18490066225166				0.976953642384106	0.127788079470199	0.253139072847682	1.55390728476821	-0.532185430463576	0.81403973509934				-0.202172185430464	0.0627284768211921	-0.90394701986755	-0.832582781456954	0.986490066225167	-0.76026490066225				0.544529801324503	-0.240529801324503	-0.757721854304636	1.64291390728477	-0.0964238410596001	-1.17562913907285				0.964026490066225	0.0674966887417219	0.181933774834437	0.791788079470198	0.331920529801325	-0.0574834437086077				0.511788079470199	-0.126834437086093	-0.804238410596027	1.70039735099338	-0.962384105960265	0.0852980132450323			
19	460	-0.216158940397351	0.0827549668874172	-0.951523178807947	0.0333774834437086	0.135364238410596	-1.46490066225166				0.960953642384106	0.111788079470199	0.253139072847682	2.67390728476821	-3.05218543046358	1.09403973509934				-0.202172185430464	0.0627284768211921	-0.90394701986755	-0.272582781456954	0.146490066225167	-0.48026490066225				0.560529801324503	-0.240529801324503	-0.741721854304636	1.08291390728477	1.8635761589404	-0.615629139072848				0.964026490066225	0.0674966887417219	0.197933774834437	-0.0482119205298018	0.331920529801325	0.782516556291392				0.511788079470199	-0.126834437086093	-0.804238410596027	2.54039735099338	-0.962384105960265	-1.59470198675497			
20	480	-0.216158940397351	0.0827549668874172	-0.951523178807947	0.593377483443709	0.415364238410596	-0.904900662251656				0.960953642384106	0.127788079470199	0.237139072847682	2.95390728476821	-2.49218543046358	0.25403973509934				-0.202172185430464	0.0787284768211921	-0.91994701986755	-0.552582781456954	-0.973509933774833	0.35973509933775				0.560529801324503	-0.240529801324503	-0.741721854304636	2.20291390728477	1.8635761589404	-0.0556291390728476				0.964026490066225	0.0674966887417219	0.181933774834437	0.231788079470198	-0.228079470198675	0.502516556291392				0.495788079470199	-0.126834437086093	-0.820238410596026	1.42039735099338	0.437615894039735	-1.59470198675497			
21	500	-0.216158940397351	0.0827549668874172	-0.967523178807947	-1.08662251655629	0.135364238410596	-1.18490066225166				0.976953642384106	0.111788079470199	0.237139072847682	2.39390728476821	-1.93218543046358	0.81403973509934				-0.202172185430464	0.0627284768211921	-0.90394701986755	-0.272582781456954	1.26649006622517	0.35973509933775				0.544529801324503	-0.240529801324503	-0.741721854304636	2.20291390728477	1.0235761589404	-0.335629139072848				0.948026490066225	0.0674966887417219	0.181933774834437	-0.888211920529802	-0.508079470198675	0.782516556291392				0.495788079470199	-0.126834437086093	-0.788238410596027	0.580397350993377	0.437615894039735	-1.03470198675497			
22	520	-0.200158940397351	0.0827549668874172	-0.951523178807947	-0.806622516556291	0.975364238410596	-1.74490066225166				0.960953642384106	0.127788079470199	0.253139072847682	1.27390728476821	-0.812185430463576	1.37403973509934				-0.202172185430464	0.0627284768211921	-0.90394701986755	-0.832582781456954	0.146490066225167	0.0797350993377501				0.560529801324503	-0.240529801324503	-0.741721854304636	2.20291390728477	1.0235761589404	-0.0556291390728476				0.964026490066225	0.0674966887417219	0.197933774834437	-0.328211920529802	0.331920529801325	0.222516556291392				0.495788079470199	-0.126834437086093	-0.804238410596027	1.14039735099338	-0.122384105960265	-1.03470198675497			
23	540	-0.200158940397351	0.0827549668874172	-0.935523178807947	0.313377483443709	0.415364238410596	-1.18490066225166				0.960953642384106	0.111788079470199	0.253139072847682	1.27390728476821	-2.21218543046358	1.93403973509934				-0.186172185430464	0.0787284768211921	-0.88794701986755	0.287417218543046	0.426490066225167	-0.48026490066225				0.576529801324503	-0.256529801324503	-0.757721854304636	1.92291390728477	0.7435761589404	0.224370860927152				0.964026490066225	0.0674966887417219	0.181933774834437	-1.4482119205298	-0.508079470198675	0.222516556291392				0.495788079470199	-0.142834437086093	-0.804238410596027	1.42039735099338	-0.402384105960265	-1.03470198675497			
24	560	-0.216158940397351	0.0987549668874172	-0.935523178807947	0.0333774834437086	0.135364238410596	-1.46490066225166				0.976953642384106	0.127788079470199	0.237139072847682	2.11390728476821	-4.45218543046358	2.77403973509934				-0.202172185430464	0.0627284768211921	-0.90394701986755	-0.272582781456954	-0.133509933774833	0.0797350993377501				0.560529801324503	-0.256529801324503	-0.757721854304636	0.802913907284768	0.7435761589404	0.224370860927152				0.964026490066225	0.0674966887417219	0.197933774834437	-1.1682119205298	-0.508079470198675	0.502516556291392				0.495788079470199	-0.126834437086093	-0.804238410596027	0.0203973509933773	-0.402384105960265	-1.31470198675497			
25	580	-0.216158940397351	0.0827549668874172	-0.951523178807947	-1.36662251655629	0.695364238410596	-0.904900662251656				0.976953642384106	0.127788079470199	0.237139072847682	4.35390728476821	-5.85218543046358	1.09403973509934				-0.218172185430464	0.0627284768211921	-0.91994701986755	-0.832582781456954	0.986490066225167	0.63973509933775				0.560529801324503	-0.240529801324503	-0.741721854304636	1.36291390728477	-0.0964238410596001	-0.0556291390728476				0.964026490066225	0.0674966887417219	0.181933774834437	0.231788079470198	0.891920529801325	1.06251655629139				0.495788079470199	-0.126834437086093	-0.804238410596027	1.70039735099338	0.437615894039735	-0.754701986754968			
26	600	-0.200158940397351	0.0827549668874172	-0.951523178807947	0.313377483443709	0.975364238410596	-1.46490066225166				0.960953642384106	0.127788079470199	0.221139072847682	2.95390728476821	-2.77218543046358	1.37403973509934				-0.218172185430464	0.0787284768211921	-0.90394701986755	-0.552582781456954	0.706490066225167	0.0797350993377501				0.544529801324503	-0.240529801324503	-0.757721854304636	1.92291390728477	-0.0964238410596001	-0.0556291390728476				0.948026490066225	0.0514966887417219	0.181933774834437	-0.0482119205298018	0.331920529801325	0.222516556291392				0.479788079470199	-0.126834437086093	-0.772238410596026	1.14039735099338	0.157615894039735	-0.194701986754968			
27	620	-0.200158940397351	0.0827549668874172	-0.935523178807947	0.0333774834437086	0.135364238410596	-1.74490066225166				0.960953642384106	0.111788079470199	0.253139072847682	0.713907284768212	-1.65218543046358	1.65403973509934				-0.202172185430464	0.0787284768211921	-0.90394701986755	-0.552582781456954	0.706490066225167	0.0797350993377501				0.560529801324503	-0.240529801324503	-0.773721854304636	0.242913907284768	-0.3764238410596	-0.335629139072848				0.948026490066225	0.0674966887417219	0.197933774834437	-0.328211920529802	-0.228079470198675	0.222516556291392				0.495788079470199	-0.126834437086093	-0.804238410596027	0.300397350993377	0.437615894039735	-1.03470198675497			
28	640	-0.200158940397351	0.0827549668874172	-0.951523178807947	0.0333774834437086	-0.144635761589404	-0.904900662251656				0.960953642384106	0.111788079470199	0.253139072847682	1.83390728476821	-3.89218543046358	1.37403973509934				-0.202172185430464	0.0627284768211921	-0.88794701986755	0.847417218543046	0.706490066225167	0.0797350993377501				0.576529801324503	-0.256529801324503	-0.757721854304636	0.522913907284768	1.0235761589404	0.504370860927152				0.964026490066225	0.0674966887417219	0.181933774834437	0.511788079470198	-0.228079470198675	0.782516556291392				0.495788079470199	-0.126834437086093	-0.820238410596026	0.300397350993377	-0.122384105960265	-0.194701986754968			
29	660	-0.216158940397351	0.0827549668874172	-0.951523178807947	-0.246622516556291	0.135364238410596	-0.904900662251656				0.976953642384106	0.127788079470199	0.237139072847682	2.11390728476821	-5.29218543046358	1.09403973509934				-0.202172185430464	0.0627284768211921	-0.90394701986755	0.567417218543046	0.706490066225167	0.0797350993377501				0.544529801324503	-0.256529801324503	-0.741721854304636	1.08291390728477	1.0235761589404	0.504370860927152				0.948026490066225	0.0834966887417219	0.197933774834437	2.1917880794702	1.73192052980133	0.502516556291392				0.495788079470199	-0.142834437086093	-0.820238410596026	0.860397350993377	-0.122384105960265	-0.474701986754968			
30	680	-0.216158940397351	0.0827549668874172	-0.951523178807947	-0.806622516556291	0.415364238410596	-0.904900662251656				0.976953642384106	0.127788079470199	0.237139072847682	1.83390728476821	-3.05218543046358	-0.0259602649006601				-0.202172185430464	0.0787284768211921	-0.90394701986755	0.287417218543046	0.426490066225167	-0.76026490066225				0.544529801324503	-0.240529801324503	-0.725721854304636	1.08291390728477	0.7435761589404	0.784370860927152				0.964026490066225	0.0674966887417219	0.149933774834437	1.3517880794702	-1.06807947019868	0.222516556291392				0.495788079470199	-0.126834437086093	-0.804238410596027	1.42039735099338	-0.402384105960265	-0.754701986754968			
31	700	-0.216158940397351	0.0827549668874172	-0.951523178807947	-0.246622516556291	0.415364238410596	-0.904900662251656				0.960953642384106	0.111788079470199	0.221139072847682	0.433907284768212	-1.09218543046358	0.81403973509934				-0.202172185430464	0.0787284768211921	-0.90394701986755	0.287417218543046	0.706490066225167	-0.76026490066225				0.560529801324503	-0.240529801324503	-0.741721854304636	0.242913907284768	-0.3764238410596	0.504370860927152				0.948026490066225	0.0674966887417219	0.197933774834437	-1.4482119205298	2.57192052980133	-0.337483443708608				0.479788079470199	-0.126834437086093	-0.788238410596027	1.14039735099338	0.157615894039735	-0.194701986754968			
32	720	-0.200158940397351	0.0827549668874172	-0.935523178807947	0.313377483443709	0.135364238410596	-0.904900662251656				0.960953642384106	0.127788079470199	0.237139072847682	-1.24609271523179	-0.812185430463576	-0.0259602649006601				-0.218172185430464	0.0787284768211921	-0.88794701986755	-0.272582781456954	0.706490066225167	-0.76026490066225				0.560529801324503	-0.256529801324503	-0.757721854304636	1.36291390728477	0.1835761589404	0.224370860927152				0.932026490066225	0.0674966887417219	0.197933774834437	0.231788079470198	1.17192052980133	-0.617483443708608				0.495788079470199	-0.142834437086093	-0.804238410596027	0.860397350993377	-0.682384105960265	0.0852980132450323			
33	740	-0.200158940397351	0.0827549668874172	-0.951523178807947	0.313377483443709	-0.144635761589404	-1.18490066225166				0.976953642384106	0.111788079470199	0.253139072847682	0.993907284768212	-2.21218543046358	1.65403973509934				-0.202172185430464	0.0467284768211921	-0.88794701986755	-0.552582781456954	0.706490066225167	-0.76026490066225				0.544529801324503	-0.240529801324503	-0.741721854304636	-0.317086092715232	1.0235761589404	-0.335629139072848				0.948026490066225	0.0674966887417219	0.181933774834437	-0.608211920529802	3.13192052980133	0.222516556291392				0.479788079470199	-0.142834437086093	-0.804238410596027	1.14039735099338	-0.402384105960265	-0.474701986754968			
34	760	-0.200158940397351	0.0827549668874172	-0.951523178807947	-1.08662251655629	0.415364238410596	-1.46490066225166				0.976953642384106	0.127788079470199	0.237139072847682	1.83390728476821	-4.17218543046358	0.25403973509934				-0.186172185430464	0.0627284768211921	-0.88794701986755	-1.67258278145695	0.706490066225167	0.0797350993377501				0.560529801324503	-0.240529801324503	-0.741721854304636	-0.877086092715232	0.4635761589404	-0.615629139072848				0.964026490066225	0.0674966887417219	0.181933774834437	2.4717880794702	2.01192052980133	0.502516556291392				0.495788079470199	-0.126834437086093	-0.804238410596027	1.14039735099338	0.157615894039735	-0.754701986754968			
35	780	-0.200158940397351	0.0827549668874172	-0.967523178807947	-0.526622516556291	0.135364238410596	-0.904900662251656				0.960953642384106	0.127788079470199	0.221139072847682	0.713907284768212	-5.01218543046358	0.25403973509934				-0.186172185430464	0.0627284768211921	-0.90394701986755	-3.63258278145695	0.986490066225167	0.91973509933775				0.560529801324503	-0.240529801324503	-0.725721854304636	0.522913907284768	-0.3764238410596	-0.895629139072848				0.964026490066225	0.0674966887417219	0.197933774834437	0.791788079470198	0.891920529801325	-0.337483443708608				0.495788079470199	-0.126834437086093	-0.804238410596027	1.42039735099338	1.55761589403974	-1.03470198675497			
36	800	-0.216158940397351	0.0827549668874172	-0.935523178807947	0.313377483443709	-0.144635761589404	-1.18490066225166				0.960953642384106	0.127788079470199	0.237139072847682	0.993907284768212	-1.65218543046358	0.81403973509934				-0.202172185430464	0.0627284768211921	-0.90394701986755	-3.91258278145695	0.426490066225167	-0.20026490066225				0.560529801324503	-0.240529801324503	-0.741721854304636	2.20291390728477	1.3035761589404	-0.335629139072848				0.948026490066225	0.0674966887417219	0.181933774834437	0.791788079470198	0.331920529801325	0.222516556291392				0.495788079470199	-0.126834437086093	-0.804238410596027	1.42039735099338	1.55761589403974	-0.754701986754968			
37	820	-0.200158940397351	0.0827549668874172	-0.935523178807947	0.593377483443709	0.135364238410596	-1.46490066225166				0.976953642384106	0.111788079470199	0.237139072847682	0.713907284768212	1.14781456953642	2.49403973509934				-0.202172185430464	0.0627284768211921	-0.90394701986755	-0.552582781456954	0.426490066225167	0.91973509933775				0.560529801324503	-0.256529801324503	-0.757721854304636	2.48291390728477	1.8635761589404	-0.335629139072848				0.948026490066225	0.0674966887417219	0.181933774834437	1.6317880794702	0.611920529801325	0.782516556291392				0.495788079470199	-0.142834437086093	-0.804238410596027	0.0203973509933773	0.437615894039735	-0.194701986754968			
38	840	-0.200158940397351	0.0667549668874172	-0.935523178807947	-0.526622516556291	0.415364238410596	-1.46490066225166				0.960953642384106	0.111788079470199	0.237139072847682	0.433907284768212	-0.812185430463576	0.81403973509934				-0.186172185430464	0.0467284768211921	-0.88794701986755	-4.75258278145695	1.26649006622517	1.47973509933775				0.560529801324503	-0.256529801324503	-0.741721854304636	1.36291390728477	1.5835761589404	-0.895629139072848				0.948026490066225	0.0514966887417219	0.197933774834437	1.6317880794702	0.611920529801325	-0.0574834437086077				0.495788079470199	-0.126834437086093	-0.804238410596027	-0.259602649006623	-0.122384105960265	-0.474701986754968			
39	860	-0.216158940397351	0.0827549668874172	-0.951523178807947	-0.526622516556291	-0.144635761589404	-0.904900662251656				0.944953642384106	0.127788079470199	0.221139072847682	-0.966092715231788	0.307814569536424	0.25403973509934				-0.202172185430464	0.0627284768211921	-0.90394701986755	-8.95258278145695	0.426490066225167	1.19973509933775				0.560529801324503	-0.256529801324503	-0.757721854304636	1.36291390728477	1.0235761589404	-0.615629139072848				0.948026490066225	0.0514966887417219	0.197933774834437	-0.0482119205298018	-0.508079470198675	-0.0574834437086077				0.511788079470199	-0.126834437086093	-0.804238410596027	0.860397350993377	-0.122384105960265	-0.754701986754968			
40	880	-0.200158940397351	0.0827549668874172	-0.951523178807947	-0.526622516556291	-0.424635761589404	-0.904900662251656				0.976953642384106	0.111788079470199	0.221139072847682	-1.80609271523179	2.26781456953642	0.81403973509934				-0.202172185430464	0.0787284768211921	-0.90394701986755	-9.23258278145695	0.146490066225167	0.63973509933775				0.560529801324503	-0.272529801324503	-0.757721854304636	0.802913907284768	0.4635761589404	0.504370860927152				0.932026490066225	0.0514966887417219	0.181933774834437	-0.0482119205298018	0.0519205298013249	-0.337483443708608				0.495788079470199	-0.158834437086093	-0.804238410596027	0.580397350993377	-0.402384105960265	-1.31470198675497			
41	900	-0.216158940397351	0.0827549668874172	-0.935523178807947	0.873377483443709	0.135364238410596	-1.18490066225166				0.992953642384106	0.127788079470199	0.205139072847682	-2.08609271523179	3.10781456953642	2.49403973509934				-0.202172185430464	0.0787284768211921	-0.91994701986755	-7.27258278145696	0.426490066225167	1.19973509933775				0.560529801324503	-0.240529801324503	-0.741721854304636	-1.43708609271523	-0.0964238410596001	1.62437086092715				0.948026490066225	0.0674966887417219	0.197933774834437	0.231788079470198	0.891920529801325	-0.0574834437086077				0.495788079470199	-0.142834437086093	-0.804238410596027	-0.819602649006623	0.157615894039735	0.925298013245032			
42	920	-0.216158940397351	0.0827549668874172	-0.935523178807947	-0.526622516556291	-0.984635761589404	-1.46490066225166				0.976953642384106	0.127788079470199	0.205139072847682	-2.08609271523179	1.70781456953642	1.37403973509934				-0.202172185430464	0.0627284768211921	-0.90394701986755	-8.95258278145695	0.426490066225167	0.91973509933775				0.560529801324503	-0.240529801324503	-0.741721854304636	-0.597086092715232	-0.6564238410596	1.34437086092715				0.964026490066225	0.0674966887417219	0.197933774834437	-0.328211920529802	1.17192052980133	0.222516556291392				0.511788079470199	-0.142834437086093	-0.804238410596027	-1.65960264900662	0.717615894039735	1.76529801324503			
43	940	-0.216158940397351	0.0667549668874172	-0.951523178807947	-1.64662251655629	-0.424635761589404	-1.46490066225166				0.960953642384106	0.111788079470199	0.189139072847682	-6.00609271523179	4.22781456953642	-0.0259602649006601				0	0	0	0	0	0				0.560529801324503	-0.256529801324503	-0.741721854304636	-0.0370860927152318	-0.6564238410596	1.62437086092715				0.964026490066225	0.0514966887417219	0.181933774834437	-1.1682119205298	0.331920529801325	0.502516556291392				0.495788079470199	-0.126834437086093	-0.820238410596026	-2.49960264900662	0.437615894039735	1.48529801324503			
44	960	0	0	0	0	0	0				0	0	0	0	0	0				0	0	0	0	0	0				0.544529801324503	-0.256529801324503	-0.741721854304636	-0.597086092715232	-0.9364238410596	2.46437086092715				0	0	0	0	0	0				0	0	0	0	0	0			
45	1060	0	0	0	0	0	0				0	0	0	0	0	0				-0.250172185430464	0.0627284768211921	-0.95194701986755	49.0074172185431	-15.8135099337748	4.83973509933775				0	0	0	0	0	0				0	0	0	0	0	0				0	0	0	0	0	0			
46	1080	-0.216158940397351	0.0827549668874172	-0.935523178807947	-3.32662251655629	0.975364238410596	1.33509933774834				1.00895364238411	0.127788079470199	0.221139072847682	-8.80609271523179	-11.1721854304636	-8.70596026490066				-0.266172185430464	-0.00127152317880793	-1.06394701986755	77.567417218543	-31.7735099337748	6.23973509933775				0	0	0	0	0	0				0	0	0	0	0	0				0	0	0	0	0	0			
47	1100	-0.200158940397351	0.0827549668874172	-0.935523178807947	-3.32662251655629	0.695364238410596	2.73509933774834				1.02495364238411	0.159788079470199	0.189139072847682	-10.4860927152318	-19.2921854304636	-10.6659602649007				-0.186172185430464	-0.0972715231788079	-0.95194701986755	90.4474172185431	-53.0535099337748	12.6797350993378				0.512529801324503	-0.368529801324503	-0.869721854304636	-4.79708609271523	-21.6564238410596	25.7043708609272				0.996026490066225	0.0514966887417219	0.133933774834437	-8.7282119205298	5.09192052980133	-2.85748344370861				0.511788079470199	-0.110834437086093	-0.948238410596026	-7.81960264900662	-34.8423841059603	7.08529801324503			
48	1120	-0.200158940397351	0.0507549668874172	-0.951523178807947	-4.44662251655629	0.695364238410596	4.69509933774834				1.10495364238411	0.159788079470199	0.109139072847682	-9.08609271523179	-29.0921854304636	-5.06596026490066				0.0378278145695364	-0.0332715231788079	-0.59994701986755	133.007417218543	-55.5735099337748	-18.9602649006623				0.480529801324503	-0.368529801324503	-0.885721854304636	-9.55708609271523	-28.0964238410596	30.7443708609272				0.980026490066225	0.0514966887417219	0.133933774834437	-8.7282119205298	7.33192052980133	-4.81748344370861				0.495788079470199	-0.142834437086093	-0.996238410596026	-5.01960264900662	-49.6823841059603	9.88529801324503			
49	1140	-0.184158940397351	0.0347549668874172	-0.935523178807947	-6.40662251655629	2.0953642384106	5.53509933774834				1.13695364238411	0.111788079470199	0.109139072847682	-16.3660927152318	-38.8921854304636	5.01403973509934				-0.186172185430464	-0.0972715231788079	-0.74394701986755	0.567417218543046	-2.09350993377483	12.9597350993378				0.480529801324503	-0.448529801324503	-0.965721854304636	-6.75708609271523	-32.8564238410596	37.7443708609272				1.01202649006623	0.0674966887417219	0.101933774834437	-15.7282119205298	10.6919205298013	-6.21748344370861				0.479788079470199	-0.126834437086093	-1.09223841059603	-5.01960264900662	-60.6023841059603	19.965298013245			
50	1160	-0.216158940397351	0.0187549668874172	-0.935523178807947	-6.40662251655629	0.135364238410596	7.77509933774834				1.16895364238411	0.143788079470199	0.0771390728476822	-14.4060927152318	-61.0121854304636	7.25403973509934				-0.218172185430464	-0.113271523178808	-0.85594701986755	6.72741721854305	-4.61350993377483	16.0397350993378				0.496529801324503	-0.480529801324503	-1.07772185430464	0.242913907284768	-37.0564238410596	48.3843708609272				1.04402649006623	0.0674966887417219	0.117933774834437	-16.5682119205298	20.2119205298013	-7.61748344370861				0.399788079470199	-0.174834437086093	-1.12423841059603	3.10039735099338	-88.8823841059603	30.325298013245			
51	1180	-0.264158940397351	0.00275496688741723	-0.951523178807947	-10.6066225165563	0.695364238410596	7.77509933774834				1.21695364238411	0.159788079470199	-0.0188609271523178	-7.68609271523179	-92.9321854304636	6.97403973509934				-0.314172185430464	-0.0172715231788079	-0.85594701986755	-8.39258278145695	-6.85350993377483	15.1997350993378				0.416529801324503	-0.416529801324503	-1.04572185430464	-29.1570860927152	-49.9364238410596	54.8243708609272				1.12402649006623	0.0514966887417219	0.0539337748344371	-5.9282119205298	22.7319205298013	-7.61748344370861				0.463788079470199	-0.206834437086093	-1.15623841059603	6.74039735099338	-110.16238410596	41.525298013245			
52	1200	-0.344158940397351	0.00275496688741723	-0.967523178807947	-18.4466225165563	3.7753642384106	6.93509933774835				1.04095364238411	0.143788079470199	-0.210860927152318	-22.5260927152318	-94.0521854304636	7.53403973509934				-0.378172185430464	0.0307284768211921	-0.96794701986755	-17.632582781457	-3.21350993377483	11.5597350993378				0.304529801324503	-0.400529801324503	-1.02972185430464	-47.3570860927152	-63.9364238410596	54.5443708609272				1.20402649006623	0.0194966887417219	-0.0100662251655629	-9.2882119205298	16.5719205298013	-6.77748344370861				0.335788079470199	-0.190834437086093	-1.14023841059603	1.42039735099338	-119.68238410596	60.565298013245			
53	1220	-0.360158940397351	0.0827549668874172	-0.983523178807947	-24.3266225165563	8.8153642384106	7.21509933774835				0.944953642384106	0.191788079470199	-0.226860927152318	-46.6060927152318	-40.2921854304636	19.2940397350993				-0.458172185430464	0.0627284768211921	-0.99994701986755	-10.072582781457	-1.25350993377483	4.27973509933775				0.240529801324503	-0.368529801324503	-1.02972185430464	-57.9970860927152	-72.8964238410596	48.9443708609272				1.22002649006623	-0.0285033112582781	-0.0260662251655629	-18.8082119205298	8.73192052980133	-4.25748344370861				0.111788079470199	-0.0948344370860927	-1.04423841059603	-16.4996026490066	-100.36238410596	66.725298013245			
54	1240	-0.360158940397351	0.146754966887417	-0.983523178807947	-23.2066225165563	10.4953642384106	8.33509933774834				1.04095364238411	0.127788079470199	-0.0828609271523179	-7.96609271523179	-2.21218543046358	29.9340397350993				-0.474172185430464	0.0627284768211921	-0.95194701986755	-5.31258278145695	4.90649006622517	-0.48026490066225				0.176529801324503	-0.400529801324503	-1.06172185430464	-52.3970860927152	-76.2564238410596	47.5443708609272				1.20402649006623	0.0194966887417219	-0.0420662251655629	-26.6482119205298	1.73192052980133	-1.73748344370861				0.0317880794701987	0.0331655629139073	-1.07623841059603	-10.3396026490066	-72.9223841059603	62.805298013245			
55	1260	-0.376158940397351	0.226754966887417	-1.17552317880795	-29.6466225165563	14.6953642384106	11.4150993377483				1.04095364238411	0.0317880794701987	-0.210860927152318	40.4739072847682	-25.4521854304636	28.2540397350993				-0.442172185430464	-0.00127152317880793	-1.01594701986755	1.96741721854305	13.3064900662252	-4.12026490066225				0.112529801324503	-0.240529801324503	-1.02972185430464	-55.4770860927152	-69.5364238410596	39.7043708609272				1.23602649006623	0.0354966887417219	-0.0420662251655629	-21.0482119205298	12.0919205298013	2.18251655629139				-0.000211920529801336	0.0331655629139073	-1.12423841059603	23.5403973509934	-70.6823841059603	64.765298013245			
56	1280	-0.424158940397351	0.162754966887417	-1.07952317880795	-31.0466225165563	39.8953642384106	8.61509933774835				0.928953642384106	0.159788079470199	-0.114860927152318	11.9139072847682	40.9078145695364	28.2540397350993				-0.458172185430464	-0.0652715231788079	-1.15994701986755	9.80741721854305	24.7864900662252	-0.20026490066225				0.144529801324503	-0.192529801324503	-0.933721854304636	-50.4370860927152	-54.6964238410596	33.8243708609272				1.23602649006623	0.0194966887417219	-0.0100662251655629	-11.5282119205298	1.45192052980132	7.22251655629139				-0.112211920529801	-0.0148344370860927	-1.04423841059603	49.8603973509934	-62.5623841059603	60.565298013245			
57	1300	-0.376158940397351	0.258754966887417	-0.823523178807947	-14.5266225165563	42.4153642384106	12.8150993377483				1.07295364238411	0.111788079470199	0.269139072847682	-28.6860927152318	91.3078145695364	24.8940397350993				-0.394172185430464	-0.209271523178808	-0.93594701986755	-13.992582781457	38.7864900662252	4.83973509933775				0.176529801324503	-0.192529801324503	-0.933721854304636	-16.2770860927152	-35.9364238410596	35.2243708609272				1.23602649006623	0.0674966887417219	0.0699337748344371	-8.4482119205298	-4.70807947019868	9.74251655629139				-0.144211920529801	-0.110834437086093	-1.04423841059603	34.4603973509934	-40.7223841059603	51.325298013245			
58	1320	-0.456158940397351	0.210754966887417	-0.983523178807947	-26.2866225165563	49.6953642384106	16.4550993377483				1.10495364238411	0.0477880794701987	0.109139072847682	-29.8060927152318	67.5078145695364	13.6940397350993				-0.442172185430464	-0.0492715231788079	-1.03194701986755	-42.552582781457	39.0664900662252	9.59973509933775				0.192529801324503	-0.192529801324503	-0.901721854304636	18.7229139072848	-5.6964238410596	28.5043708609272				1.20402649006623	0.0834966887417219	0.117933774834437	-9.2882119205298	-16.1880794701987	11.7025165562914				-0.0962119205298013	-0.126834437086093	-1.09223841059603	14.0203973509934	-17.4823841059603	43.205298013245			
59	1340	-0.408158940397351	0.114754966887417	-1.12752317880795	-22.9266225165563	54.7353642384106	17.8550993377483				1.21695364238411	0.159788079470199	-0.0188609271523178	-29.2460927152318	72.2678145695364	19.0140397350993				-0.586172185430464	0.174728476821192	-1.09594701986755	-27.992582781457	55.3064900662252	17.4397350993378				0.320529801324503	-0.192529801324503	-0.917721854304636	34.6829139072848	21.1835761589404	22.9043708609272				1.09202649006623	0.0834966887417219	0.149933774834437	-2.2882119205298	-8.62807947019868	13.9425165562914				-0.0482119205298013	-0.0948344370860927	-0.932238410596026	6.46039735099338	2.67761589403974	37.045298013245			
60	1360	-0.248158940397351	0.114754966887417	-1.09552317880795	-10.6066225165563	61.7353642384106	22.3350993377483				1.47295364238411	0.127788079470199	0.605139072847682	-70.9660927152318	116.787814569536	23.2140397350993				-0.474172185430464	0.222728476821192	-0.98394701986755	-23.512582781457	59.7864900662252	18.8397350993378				0.448529801324503	-0.224529801324503	-0.965721854304636	42.8029139072848	30.7035761589404	16.1843708609272				1.01202649006623	0.0994966887417219	0.309933774834437	15.9117880794702	-3.86807947019868	16.4625165562914				0.0797880794701987	-0.0628344370860927	-0.948238410596026	-7.81960264900662	21.1576158940397	19.125298013245			
61	1380	-0.152158940397351	0.194754966887417	-1.06352317880795	-11.4466225165563	67.3353642384106	28.7750993377483				1.44095364238411	0.159788079470199	0.973139072847682	-54.4460927152318	71.4278145695364	16.2140397350993				-0.266172185430464	0.190728476821192	-1.03194701986755	-0.832582781456954	67.0664900662252	13.7997350993378				0.592529801324503	-0.320529801324503	-1.09372185430464	61.5629139072848	42.4635761589404	14.2243708609272				1.10802649006623	0.195496688741722	0.517933774834437	10.3117880794702	4.81192052980133	7.50251655629139				0.287788079470199	-0.110834437086093	-1.04423841059603	7.02039735099338	21.4376158940397	-5.79470198675497			
62	1400	-0.120158940397351	0.242754966887417	-1.04752317880795	-15.3666225165563	74.0553642384106	34.3750993377484				1.36095364238411	-0.128211920529801	0.669139072847682	0.153907284768212	30.5478145695364	15.9340397350993				-0.154172185430464	0.286728476821192	-0.96794701986755	6.72741721854305	74.6264900662252	8.75973509933775				0.752529801324503	-0.352529801324503	-1.22172185430464	54.2829139072848	56.7435761589404	11.7043708609272				1.22002649006623	0.243496688741722	0.549933774834437	1.0717880794702	13.2119205298013	-1.17748344370861				0.479788079470199	-0.190834437086093	-1.12423841059603	12.6203973509934	24.2376158940397	-18.114701986755			
63	1420	-0.072158940397351	0.258754966887417	-1.04752317880795	-12.5666225165563	83.2953642384106	35.2150993377483				1.20095364238411	-0.0482119205298013	0.141139072847682	24.2339072847682	-22.6521854304636	11.4540397350993				-0.138172185430464	0.222728476821192	-1.04794701986755	29.6874172185431	76.5864900662252	1.47973509933775				0.864529801324503	-0.304529801324503	-1.17372185430464	31.3229139072848	50.0235761589404	0.784370860927152				1.17202649006623	0.243496688741722	0.437933774834437	12.8317880794702	14.0519205298013	1.62251655629139				0.591788079470199	-0.318834437086093	-1.07623841059603	7.30039735099338	27.3176158940397	-17.554701986755			
64	1440	-0.040158940397351	0.274754966887417	-1.01552317880795	2.83337748344371	89.7353642384106	28.2150993377483				1.16895364238411	0.239788079470199	0.269139072847682	-18.0460927152318	3.10781456953642	13.9740397350993				-0.186172185430464	-0.0972715231788079	-1.09594701986755	36.1274172185431	86.3864900662252	-1.60026490066225				0.896529801324503	-0.336529801324503	-0.981721854304636	16.4829139072848	31.2635761589404	1.62437086092715				1.20402649006623	0.0994966887417219	0.533933774834437	31.0317880794702	11.8119205298013	11.4225165562914				0.575788079470199	-0.526834437086093	-1.01223841059603	-8.65960264900662	29.8376158940397	-11.114701986755			
65	1460	0.055841059602649	0.386754966887417	-0.999523178807947	18.7933774834437	91.1353642384106	22.6150993377483				1.29695364238411	0.0157880794701987	0.765139072847682	-47.1660927152318	21.8678145695364	23.2140397350993				-0.170172185430464	-0.0972715231788079	-1.03194701986755	2.24741721854305	97.0264900662252	0.35973509933775				0.816529801324503	-0.384529801324503	-0.981721854304636	3.32291390728477	12.5035761589404	1.62437086092715				1.23602649006623	0.0994966887417219	0.565933774834437	15.3517880794702	-8.62807947019868	9.18251655629139				0.559788079470199	-0.590834437086093	-1.07623841059603	-24.3396026490066	23.9576158940397	4.56529801324503			
66	1480	0.135841059602649	0.338754966887417	-1.07952317880795	29.7133774834437	98.4153642384106	18.1350993377483				1.34495364238411	-0.112211920529801	0.653139072847682	-29.8060927152318	34.7478145695364	16.2140397350993				-0.0581721854304636	-0.0492715231788079	-1.01594701986755	-20.712582781457	104.306490066225	2.31973509933775				0.608529801324503	-0.352529801324503	-1.02972185430464	-17.6770860927152	13.0635761589404	2.46437086092715				1.20402649006623	0.115496688741722	0.517933774834437	-5.3682119205298	-16.1880794701987	2.74251655629139				0.543788079470199	-0.494834437086093	-1.15623841059603	-33.8596026490066	13.0376158940397	17.165298013245			
67	1500	0.215841059602649	0.354754966887417	-1.11152317880795	40.3533774834437	107.655364238411	14.7750993377483				1.31295364238411	-0.112211920529801	0.413139072847682	10.2339072847682	8.14781456953643	4.45403973509934				0.0378278145695364	0.0147284768211921	-1.04794701986755	-36.392582781457	114.666490066225	3.99973509933775				0.480529801324503	-0.384529801324503	-1.02972185430464	8.36291390728477	30.7035761589404	10.3043708609272				1.20402649006623	0.0354966887417219	0.501933774834437	-1.7282119205298	-3.02807947019868	3.02251655629139				0.495788079470199	-0.334834437086093	-1.12423841059603	-19.5796026490066	17.2376158940397	20.805298013245			
68	1520	0.279841059602649	0.274754966887417	-1.06352317880795	50.1533774834437	126.695364238411	11.4150993377483				1.28095364238411	0.255788079470199	0.429139072847682	-0.126092715231788	-9.21218543046358	-2.26596026490066				0.117827814569536	0.126728476821192	-1.04794701986755	-30.512582781457	121.666490066225	9.59973509933775				0.608529801324503	-0.400529801324503	-0.997721854304636	29.0829139072848	44.1435761589404	11.9843708609272				1.22002649006623	-0.0445033112582781	0.469933774834437	-1.1682119205298	4.81192052980133	3.86251655629139				0.399788079470199	-0.270834437086093	-1.02823841059603	10.1003973509934	26.4776158940397	20.245298013245			
69	1540	0.391841059602649	0.130754966887417	-0.951523178807947	39.7933774834437	131.175364238411	9.17509933774834				1.21695364238411	0.0157880794701987	0.669139072847682	-0.966092715231788	-21.2521854304636	-0.0259602649006601				0.181827814569536	0.110728476821192	-0.98394701986755	-15.112582781457	127.266490066225	17.9997350993378				0.736529801324503	-0.384529801324503	-0.933721854304636	15.9229139072848	47.7835761589404	4.98437086092715				1.18802649006623	0.0994966887417219	0.485933774834437	-11.2482119205298	5.09192052980133	-1.45748344370861				0.335788079470199	-0.318834437086093	-0.916238410596027	31.1003973509934	32.6376158940397	24.445298013245			
70	1560	0.439841059602649	0.146754966887417	-0.951523178807947	28.8733774834437	130.615364238411	6.93509933774835				1.18495364238411	-0.256211920529801	0.525139072847682	-5.16609271523179	-8.37218543046358	-2.26596026490066				0.309827814569536	0.0467284768211921	-0.96794701986755	3.92741721854305	138.746490066225	17.9997350993378				0.752529801324503	-0.336529801324503	-0.869721854304636	13.9629139072848	54.2235761589404	-0.895629139072848				1.15602649006623	0.131496688741722	0.357933774834437	-22.4482119205298	-0.508079470198675	-4.81748344370861				0.399788079470199	-0.286834437086093	-0.948238410596026	8.70039735099338	41.8776158940397	15.485298013245			
71	1580	0.455841059602649	0.130754966887417	-0.935523178807947	26.9133774834437	136.495364238411	6.65509933774834				1.08895364238411	-0.144211920529801	0.253139072847682	24.2339072847682	3.66781456953642	-15.1459602649007				0.405827814569536	0.0787284768211921	-0.87194701986755	20.727417218543	147.986490066225	10.4397350993378				0.688529801324503	-0.320529801324503	-0.869721854304636	17.8829139072848	51.1435761589404	-4.53562913907285				1.06002649006623	0.0194966887417219	0.421933774834437	-3.9682119205298	-1.06807947019868	0.222516556291392				0.431788079470199	-0.254834437086093	-0.948238410596026	-8.37960264900662	58.1176158940397	0.0852980132450323			
72	1600	0.519841059602649	0.0347549668874172	-0.887523178807947	28.0333774834437	147.135364238411	5.81509933774834				1.04095364238411	0.207788079470199	0.317139072847682	35.1539072847682	-1.09218543046358	-20.4659602649007				0.453827814569536	0.0787284768211921	-0.82394701986755	26.0474172185431	151.906490066225	4.83973509933775				0.656529801324503	-0.352529801324503	-0.789721854304636	13.9629139072848	48.0635761589404	-12.0956291390728				1.06002649006623	0.0194966887417219	0.437933774834437	-6.4882119205298	3.97192052980133	1.34251655629139				0.415788079470199	-0.238834437086093	-0.916238410596027	-22.3796026490066	74.3576158940397	-10.274701986755			
73	1620	0.615841059602649	-0.0292450331125828	-0.791523178807947	23.8333774834437	155.535364238411	6.37509933774834				1.28095364238411	0.159788079470199	0.237139072847682	14.7139072847682	-38.8921854304636	-16.8259602649007				0.533827814569536	0.126728476821192	-0.75994701986755	22.127417218543	148.546490066225	0.0797350993377501				0.672529801324503	-0.336529801324503	-0.741721854304636	16.2029139072848	49.1835761589404	-21.8956291390728				1.04402649006623	0.0514966887417219	0.357933774834437	-19.6482119205298	0.891920529801325	-1.73748344370861				0.415788079470199	-0.222834437086093	-0.868238410596026	-28.2596026490066	84.1576158940397	-17.554701986755			
74	1640	0.647841059602649	-0.0132450331125828	-0.759523178807947	5.63337748344371	154.135364238411	4.13509933774834				1.08895364238411	0.111788079470199	0.269139072847682	5.47390728476821	-69.9721854304636	-15.4259602649007				0.581827814569536	0.174728476821192	-0.69594701986755	27.447417218543	143.786490066225	-3.56026490066225				0.576529801324503	-0.256529801324503	-0.709721854304636	22.6429139072848	57.5835761589404	-24.1356291390729				1.01202649006623	0.115496688741722	0.245933774834437	-25.5282119205298	-8.06807947019868	-7.05748344370861				0.447788079470199	-0.0788344370860927	-0.852238410596026	-35.2596026490066	84.7176158940397	-26.514701986755			
75	1660	0.615841059602649	0.0347549668874172	-0.711523178807947	-12.0066225165563	148.535364238411	5.53509933774834				0.960953642384106	0.111788079470199	0.157139072847682	45.5139072847682	-78.9321854304636	-8.14596026490066				0.597827814569536	0.158728476821192	-0.67994701986755	35.287417218543	136.226490066225	-5.52026490066225				0.624529801324503	-0.256529801324503	-0.661721854304636	27.6829139072848	60.6635761589404	-21.6156291390729				0.948026490066225	0.131496688741722	0.229933774834437	-12.3682119205298	-4.70807947019868	-6.21748344370861				0.447788079470199	-0.0788344370860927	-0.788238410596027	-24.0596026490066	79.6776158940397	-36.874701986755			
76	1680	0.551841059602649	0.130754966887417	-0.647523178807947	-15.0866225165563	143.775364238411	6.09509933774834				0.912953642384106	0.0637880794701987	0.253139072847682	69.0339072847682	-74.4521854304636	-13.7459602649007				0.517827814569536	0.0947284768211921	-0.67994701986755	39.7674172185431	132.586490066225	-7.76026490066225				0.608529801324503	-0.240529801324503	-0.661721854304636	32.7229139072848	49.1835761589404	-16.8556291390729				0.916026490066225	0.115496688741722	0.181933774834437	0.231788079470198	-5.54807947019868	-2.01748344370861				0.335788079470199	-0.158834437086093	-0.756238410596026	-15.0996026490066	70.9976158940397	-31.554701986755			
77	1700	0.487841059602649	0.146754966887417	-0.615523178807947	-11.4466225165563	141.535364238411	9.73509933774834				0.736953642384106	-0.0962119205298013	0.0611390728476822	68.1939072847682	-109.732185430464	-13.1859602649007				0.437827814569536	0.0307284768211921	-0.61594701986755	38.927417218543	133.706490066225	-10.0002649006623				0.560529801324503	-0.240529801324503	-0.613721854304636	35.5229139072848	35.7435761589404	-18.2556291390728				0.900026490066225	0.0674966887417219	0.133933774834437	4.1517880794702	-23.1880794701987	1.06251655629139				0.255788079470199	-0.158834437086093	-0.676238410596026	-18.1796026490066	69.8776158940397	-18.394701986755			
78	1720	0.471841059602649	0.0987549668874172	-0.631523178807947	5.07337748344371	139.855364238411	12.5350993377483				0.544953642384106	0.111788079470199	-0.178860927152318	32.3539072847682	-120.652185430464	-23.8259602649007				0.453827814569536	-0.0172715231788079	-0.56794701986755	26.0474172185431	137.346490066225	-11.1202649006623				0.464529801324503	-0.304529801324503	-0.533721854304636	24.3229139072848	26.2235761589404	-18.5356291390728				0.788026490066225	-0.0125033112582781	0.101933774834437	9.4717880794702	-43.6280794701987	4.14251655629139				0.271788079470199	-0.0948344370860927	-0.676238410596026	-35.8196026490066	70.9976158940397	-16.994701986755			
79	1740	0.487841059602649	0.00275496688741723	-0.599523178807947	7.87337748344371	139.295364238411	14.7750993377483				0.448953642384106	0.175788079470199	-0.146860927152318	-18.6060927152318	-62.4121854304636	-9.26596026490066				0.485827814569536	-0.00127152317880793	-0.50394701986755	12.047417218543	140.426490066225	-11.9602649006623				0.336529801324503	-0.320529801324503	-0.485721854304636	17.3229139072848	18.1035761589404	-11.2556291390728				0.660026490066225	-0.0445033112582781	0.133933774834437	-0.608211920529802	-60.4280794701987	4.70251655629139				0.367788079470199	-0.0148344370860927	-0.692238410596026	-37.7796026490066	63.1576158940397	-25.394701986755			
80	1760	0.519841059602649	0.00275496688741723	-0.503523178807947	11.2333774834437	139.295364238411	18.4150993377483				0.736953642384106	-0.0642119205298013	0.173139072847682	-23.9260927152318	-15.0921854304636	10.3340397350993				0.533827814569536	0.0467284768211921	-0.51994701986755	11.767417218543	139.026490066225	-10.8402649006623				0.224529801324503	-0.224529801324503	-0.421721854304636	25.1629139072848	17.8235761589404	-1.17562913907285				0.596026490066225	0.0514966887417219	0.101933774834437	-9.8482119205298	-77.2280794701987	2.46251655629139				0.399788079470199	-0.0468344370860927	-0.628238410596026	-29.0996026490066	51.6776158940397	-24.274701986755			
81	1780	0.599841059602649	0.00275496688741723	-0.503523178807947	-2.76662251655629	139.015364238411	16.7350993377483				0.720953642384106	-0.0802119205298013	-0.0508609271523178	12.1939072847682	-31.0521854304636	10.3340397350993				0.501827814569536	-0.0332715231788079	-0.50394701986755	1.40741721854305	135.666490066225	-10.2802649006622				0.160529801324503	-0.208529801324503	-0.405721854304636	48.6829139072848	26.2235761589404	8.34437086092715				0.596026490066225	0.00349668874172187	-0.0260662251655629	3.8717880794702	-72.1880794701987	4.70251655629139				0.351788079470199	-0.0948344370860927	-0.548238410596027	-38.0596026490066	42.4376158940397	-16.714701986755			
82	1800	0.663841059602649	0.0827549668874172	-0.455523178807947	-5.84662251655629	142.935364238411	17.0150993377483				0.480953642384106	0.0477880794701987	-0.178860927152318	19.7539072847682	-55.9721854304636	-7.58596026490066				0.549827814569536	-0.00127152317880793	-0.47194701986755	-11.752582781457	137.626490066225	-12.8002649006623				0.224529801324503	-0.272529801324503	-0.469721854304636	61.8429139072848	35.1835761589404	15.0643708609272				0.612026490066225	-0.0765033112582781	0.0379337748344371	5.8317880794702	-52.3080794701987	8.90251655629139				0.367788079470199	-0.0468344370860927	-0.532238410596027	-55.6996026490066	46.0776158940397	-14.194701986755			
83	1820	0.679841059602649	0.114754966887417	-0.407523178807947	-4.44662251655629	140.975364238411	18.6950993377483				0.496953642384106	0.175788079470199	-0.0668609271523178	9.95390728476821	-38.8921854304636	-15.7059602649007				0.581827814569536	0.0147284768211921	-0.43994701986755	-22.392582781457	136.506490066225	-11.4002649006623				0.320529801324503	-0.416529801324503	-0.501721854304636	55.9629139072848	29.3035761589404	16.1843708609272				0.564026490066225	-0.0445033112582781	0.101933774834437	3.5917880794702	-45.8680794701987	10.0225165562914				0.463788079470199	0.00116556291390731	-0.596238410596026	-53.1796026490066	42.4376158940397	-21.474701986755			
84	1840	0.727841059602649	0.146754966887417	-0.375523178807947	4.51337748344371	137.615364238411	13.9350993377483				0.672953642384106	0.0317880794701987	0.157139072847682	6.03390728476821	-30.7721854304636	-14.3059602649007				0.645827814569536	0.0787284768211921	-0.43994701986755	-30.792582781457	141.266490066225	-5.24026490066225				0.400529801324503	-0.464529801324503	-0.469721854304636	27.1229139072848	9.9835761589404	15.3443708609272				0.596026490066225	-0.0125033112582781	0.0219337748344371	-7.3282119205298	-44.7480794701987	10.8625165562914				0.495788079470199	0.00116556291390731	-0.596238410596026	-34.9796026490066	31.5176158940397	-21.474701986755			
85	1860	0.727841059602649	0.146754966887417	-0.311523178807947	19.9133774834437	135.375364238411	11.6950993377483				0.592953642384106	-0.0962119205298013	-0.0188609271523178	0.433907284768212	-31.3321854304636	-11.5059602649007				0.645827814569536	-0.00127152317880793	-0.40794701986755	-25.472582781457	141.266490066225	1.19973509933775				0.400529801324503	-0.384529801324503	-0.469721854304636	-1.43708609271523	-10.1764238410596	14.5043708609272				0.628026490066225	0.00349668874172187	0.0379337748344371	-22.4482119205298	-32.4280794701987	8.06251655629139				0.431788079470199	-0.0628344370860927	-0.548238410596027	-18.1796026490066	19.7576158940397	-15.034701986755			
86	1880	0.727841059602649	0.0987549668874172	-0.279523178807947	31.1133774834437	125.015364238411	8.33509933774834				0.592953642384106	-0.0482119205298013	-0.0348609271523178	-11.8860927152318	-24.3321854304636	-13.4659602649007				0.581827814569536	-0.129271523178808	-0.39194701986755	-38.072582781457	130.906490066225	-4.96026490066225				0.336529801324503	-0.336529801324503	-0.453721854304636	-3.67708609271523	-13.2564238410596	20.9443708609272				0.644026490066225	-0.0285033112582781	0.0539337748344371	-18.8082119205298	-35.2280794701987	7.50251655629139				0.335788079470199	-0.0628344370860927	-0.484238410596026	-27.1396026490066	16.6776158940397	-10.274701986755			
87	1900	0.679841059602649	0.0187549668874172	-0.343523178807947	22.9933774834437	109.615364238411	7.21509933774835				0.432953642384106	0.0477880794701987	-0.00286092715231785	-14.4060927152318	-33.0121854304636	-13.1859602649007				0.645827814569536	-0.129271523178808	-0.34394701986755	-36.952582781457	116.346490066225	-3.56026490066225				0.288529801324503	-0.304529801324503	-0.501721854304636	2.48291390728477	-18.2964238410596	25.1443708609272				0.580026490066225	-0.0125033112582781	0.00593377483443711	-17.6882119205298	-44.7480794701987	8.62251655629139				0.287788079470199	0.00116556291390731	-0.516238410596026	-32.7396026490066	10.7976158940397	-9.99470198675497			
88	1920	0.759841059602649	-0.0932450331125828	-0.359523178807947	19.0733774834437	105.135364238411	5.81509933774834				0.480953642384106	0.191788079470199	-0.0508609271523178	-14.1260927152318	-19.0121854304636	-14.0259602649007				0.773827814569536	-0.0812715231788079	-0.34394701986755	-29.112582781457	95.6264900662252	0.35973509933775				0.320529801324503	-0.352529801324503	-0.437721854304636	-12.3570860927152	-22.4964238410596	27.3843708609272				0.532026490066225	-0.0125033112582781	-0.0260662251655629	-15.1682119205298	-46.1480794701987	8.90251655629139				0.287788079470199	0.0331655629139073	-0.580238410596026	-26.8596026490066	-4.60238410596027	-11.674701986755			
89	1940	0.823841059602649	-0.0452450331125828	-0.407523178807947	16.5533774834437	86.6553642384106	4.97509933774835				0.688953642384106	0.143788079470199	0.0291390728476822	-0.966092715231788	-3.33218543046358	-1.14596026490066				0	0	0	0	0	0				0.304529801324503	-0.320529801324503	-0.405721854304636	-15.9970860927152	-28.6564238410596	25.7043708609272				0.548026490066225	0.0194966887417219	0.00593377483443711	-20.4882119205298	-43.6280794701987	6.38251655629139				0.287788079470199	-0.0148344370860927	-0.628238410596026	-19.2996026490066	-21.9623841059603	-3.55470198675497			
90	1960	0	0	0	0	0	0				0	0	0	0	0	0				0	0	0	0	0	0				0.320529801324503	-0.272529801324503	-0.405721854304636	-13.1970860927152	-25.0164238410596	24.5843708609272				0	0	0	0	0	0				0.303788079470199	-0.0628344370860927	-0.564238410596026	-28.5396026490066	-18.8823841059603	7.36529801324503			
91	2060	0	0	0	0	0	0				0	0	0	0	0	0				0.933827814569536	-0.00127152317880793	-0.24794701986755	-28.552582781457	11.9064900662252	3.71973509933775				0	0	0	0	0	0				0	0	0	0	0	0				0	0	0	0	0	0			
92	2080	0.967841059602649	-0.0132450331125828	-0.119523178807947	-5.56662251655629	36.5353642384106	-1.46490066225166				0.944953642384106	-0.000211920529801304	0.0131390728476822	-18.3260927152318	-13.1321854304636	0.81403973509934				0.885827814569536	0.0307284768211921	-0.23194701986755	-26.872582781457	14.1464900662252	0.35973509933775				0	0	0	0	0	0				0	0	0	0	0	0				0	0	0	0	0	0			
93	2100	0.983841059602649	-0.0452450331125828	-0.087523178807947	-3.04662251655629	32.6153642384106	-1.46490066225166				0.976953642384106	0.159788079470199	0.0291390728476822	-20.8460927152318	-1.37218543046358	-6.74596026490066				0.917827814569536	0.0787284768211921	-0.24794701986755	-23.232582781457	16.3864900662252	-1.32026490066225				0	0	0	0	0	0				0.964026490066225	-0.0285033112582781	0.0859337748344371	-23.8482119205298	-0.508079470198675	4.70251655629139				0.559788079470199	-0.0308344370860927	-0.708238410596026	-9.49960264900662	7.15761589403974	-13.914701986755			
94	2120	0.951841059602649	-0.0612450331125828	-0.071523178807947	7.31337748344371	29.5353642384106	-1.46490066225166				0.992953642384106	0.127788079470199	0.0771390728476822	-11.8860927152318	-10.3321854304636	0.25403973509934				0.933827814569536	0.0627284768211921	-0.27994701986755	-5.87258278145695	20.0264900662252	-1.04026490066225				0.608529801324503	-0.432529801324503	-0.581721854304636	-6.47708609271523	8.8635761589404	4.42437086092715				0.980026490066225	0.0194966887417219	0.0219337748344371	-23.5682119205298	-8.62807947019868	3.02251655629139				0.575788079470199	-0.0468344370860927	-0.756238410596026	-9.77960264900662	9.95761589403974	-13.354701986755			
95	2140	0.951841059602649	-0.0292450331125828	-0.087523178807947	3.95337748344371	24.7753642384106	-0.344900662251656				0.960953642384106	0.0957880794701987	0.0131390728476822	-3.20609271523179	-6.41218543046358	6.97403973509934				0.949827814569536	-0.00127152317880793	-0.23194701986755	8.12741721854305	14.1464900662252	1.75973509933775				0.608529801324503	-0.464529801324503	-0.549721854304636	3.04291390728477	6.9035761589404	10.5843708609272				0.996026490066225	0.0674966887417219	-0.0260662251655629	-21.6082119205298	-5.54807947019868	2.18251655629139				0.559788079470199	-0.0788344370860927	-0.788238410596027	-10.0596026490066	8.83761589403974	-6.35470198675497			
96	2160	0.967841059602649	0.00275496688741723	-0.039523178807947	4.23337748344371	19.7353642384106	-0.0649006622516557				0.944953642384106	0.0797880794701987	-0.0188609271523178	1.55390728476821	-4.73218543046358	7.81403973509934				0.949827814569536	-0.0812715231788079	-0.23194701986755	14.567417218543	11.9064900662252	3.71973509933775				0.640529801324503	-0.464529801324503	-0.613721854304636	4.72291390728477	3.2635761589404	10.0243708609272				0.932026490066225	0.00349668874172187	0.0699337748344371	-18.8082119205298	1.17192052980133	4.14251655629139				0.527788079470199	0.00116556291390731	-0.772238410596026	-17.8996026490066	9.39761589403974	-0.754701986754968			
97	2180	0.967841059602649	0.0187549668874172	-0.055523178807947	7.03337748344371	14.6953642384106	-0.0649006622516557				0.928953642384106	0.111788079470199	0.0291390728476822	-0.406092715231788	-1.93218543046358	6.97403973509934				0.933827814569536	-0.0652715231788079	-0.21594701986755	13.727417218543	13.0264900662252	4.55973509933775				0.672529801324503	-0.464529801324503	-0.597721854304636	-3.39708609271523	2.4235761589404	7.78437086092715				0.948026490066225	0.0194966887417219	0.0539337748344371	-15.1682119205298	-1.90807947019868	4.42251655629139				0.527788079470199	0.0651655629139073	-0.820238410596026	-20.4196026490066	5.75761589403974	-1.59470198675497			
98	2200	0.983841059602649	-0.0452450331125828	-0.071523178807947	13.1933774834437	9.3753642384106	-1.46490066225166				0.976953642384106	0.111788079470199	0.0291390728476822	1.83390728476821	-5.29218543046358	6.13403973509934				0.965827814569536	-0.0332715231788079	-0.19994701986755	5.04741721854305	13.3064900662252	5.39973509933775				0.640529801324503	-0.432529801324503	-0.533721854304636	-2.83708609271523	0.7435761589404	8.62437086092715				0.932026490066225	0.0354966887417219	0.00593377483443711	-12.9282119205298	-6.94807947019868	4.14251655629139				0.511788079470199	0.113165562913907	-0.852238410596026	-12.0196026490066	-3.20238410596026	-6.35470198675497			
99	2220	0.967841059602649	-0.0452450331125828	-0.119523178807947	10.3933774834437	7.9753642384106	-1.74490066225166				0.976953642384106	0.0957880794701987	0.0291390728476822	-0.406092715231788	-3.61218543046358	11.7340397350993				0.933827814569536	-0.00127152317880793	-0.21594701986755	5.04741721854305	7.98649006622517	3.99973509933775				0.592529801324503	-0.416529801324503	-0.549721854304636	-0.317086092715232	-3.7364238410596	6.10437086092715				0.948026490066225	0.0354966887417219	0.00593377483443711	-3.1282119205298	-3.58807947019868	3.02251655629139				0.495788079470199	0.0651655629139073	-0.852238410596026	0.300397350993377	-9.64238410596027	-7.19470198675497			
100	2240	0.967841059602649	-0.0452450331125828	-0.087523178807947	7.87337748344371	8.5353642384106	-1.18490066225166				0.960953642384106	0.0957880794701987	-0.00286092715231785	6.87390728476821	-1.65218543046358	11.1740397350993				0.933827814569536	0.0627284768211921	-0.21594701986755	1.96741721854305	4.62649006622517	1.19973509933775				0.592529801324503	-0.416529801324503	-0.613721854304636	6.40291390728477	-4.2964238410596	2.74437086092715				0.964026490066225	0.0194966887417219	0.00593377483443711	2.7517880794702	0.0519205298013249	3.30251655629139				0.463788079470199	0.0491655629139073	-0.820238410596026	8.42039735099338	-7.68238410596027	-1.87470198675497			
101	2260	0.951841059602649	-0.0132450331125828	-0.103523178807947	1.99337748344371	8.2553642384106	-2.02490066225166				0.944953642384106	0.0637880794701987	0.0131390728476822	12.7539072847682	-1.37218543046358	7.25403973509934				0.901827814569536	0.0627284768211921	-0.24794701986755	8.12741721854305	3.50649006622517	0.63973509933775				0.592529801324503	-0.464529801324503	-0.597721854304636	4.72291390728477	-0.9364238410596	-0.0556291390728476				0.948026490066225	0.00349668874172187	-0.0100662251655629	5.5517880794702	1.45192052980132	4.70251655629139				0.463788079470199	0.0651655629139073	-0.788238410596027	6.46039735099338	-8.52238410596027	0.0852980132450323			
102	2280	0.967841059602649	0.00275496688741723	-0.135523178807947	0.593377483443709	3.7753642384106	-1.46490066225166				0.960953642384106	0.0957880794701987	0.0131390728476822	16.1139072847682	-6.13218543046358	5.01403973509934				0.917827814569536	0.0467284768211921	-0.24794701986755	11.207417218543	3.22649006622517	-1.04026490066225				0.528529801324503	-0.480529801324503	-0.581721854304636	9.48291390728477	-2.6164238410596	-2.01562913907285				0.932026490066225	-0.0445033112582781	-0.0260662251655629	10.8717880794702	2.01192052980133	3.86251655629139				0.463788079470199	0.0491655629139073	-0.788238410596027	3.66039735099338	-6.28238410596027	-2.43470198675497			
103	2300	0.967841059602649	0.0187549668874172	-0.151523178807947	4.51337748344371	-1.5446357615894	-1.46490066225166				0.976953642384106	0.0637880794701987	-0.0508609271523178	15.5539072847682	-4.45218543046358	4.17403973509934				0.917827814569536	0.0307284768211921	-0.27994701986755	7.56741721854305	0.706490066225167	-2.72026490066225				0.512529801324503	-0.496529801324503	-0.597721854304636	5.28291390728477	-1.7764238410596	-2.57562913907285				0.916026490066225	-0.0285033112582781	-0.0100662251655629	9.7517880794702	0.0519205298013249	1.62251655629139				0.495788079470199	0.00116556291390731	-0.772238410596026	5.34039735099338	-6.84238410596027	-4.11470198675497			
104	2320	0.951841059602649	0.00275496688741723	-0.135523178807947	2.83337748344371	-3.5046357615894	-1.18490066225166				1.02495364238411	0.0477880794701987	-0.0668609271523178	14.4339072847682	1.70781456953642	6.69403973509934				0.949827814569536	0.0307284768211921	-0.27994701986755	6.44741721854305	0.986490066225167	-1.60026490066225				0.512529801324503	-0.512529801324503	-0.629721854304636	1.92291390728477	-0.6564238410596	-2.01562913907285				0.948026490066225	-0.0445033112582781	0.00593377483443711	6.6717880794702	2.85192052980133	1.34251655629139				0.511788079470199	0.00116556291390731	-0.772238410596026	5.06039735099338	-5.16238410596027	-3.83470198675497			
105	2340	0.951841059602649	-0.0132450331125828	-0.119523178807947	-0.806622516556291	-2.3846357615894	-0.344900662251656				0.992953642384106	0.0637880794701987	-0.0508609271523178	13.5939072847682	-5.01218543046358	5.29403973509934				0.949827814569536	-0.00127152317880793	-0.27994701986755	6.16741721854305	-2.37350993377483	-2.44026490066225				0.512529801324503	-0.496529801324503	-0.629721854304636	5.56291390728477	0.1835761589404	-2.29562913907285				0.964026490066225	-0.0445033112582781	0.00593377483443711	5.5517880794702	5.93192052980133	0.502516556291392				0.495788079470199	0.0331655629139073	-0.756238410596026	4.22039735099338	-0.682384105960265	-3.27470198675497			
106	2360	0.967841059602649	-0.0292450331125828	-0.151523178807947	1.71337748344371	-0.984635761589404	-0.904900662251656				0.960953642384106	0.0957880794701987	-0.0828609271523179	12.7539072847682	-10.3321854304636	-3.10596026490066				0.917827814569536	-0.00127152317880793	-0.29594701986755	6.16741721854305	-4.33350993377483	-1.88026490066225				0.544529801324503	-0.480529801324503	-0.629721854304636	9.20291390728477	2.7035761589404	-3.69562913907285				0.964026490066225	-0.0445033112582781	0.00593377483443711	5.5517880794702	5.37192052980133	-1.73748344370861				0.527788079470199	0.0491655629139073	-0.756238410596026	2.82039735099338	2.67761589403974	-6.07470198675497			
107	2380	0.951841059602649	0.00275496688741723	-0.151523178807947	-0.526622516556291	-0.424635761589404	-1.46490066225166				0.992953642384106	0.0797880794701987	-0.0508609271523178	10.2339072847682	-7.25218543046358	-5.06596026490066				0.917827814569536	0.0307284768211921	-0.27994701986755	-2.79258278145695	-3.49350993377483	-0.76026490066225				0.576529801324503	-0.496529801324503	-0.629721854304636	6.68291390728477	2.1435761589404	-4.53562913907285				0.980026490066225	-0.0125033112582781	0.0219337748344371	3.3117880794702	2.01192052980133	-2.29748344370861				0.559788079470199	0.0491655629139073	-0.772238410596026	7.86039735099338	-0.402384105960265	-9.99470198675497			
108	2400	0.951841059602649	0.00275496688741723	-0.167523178807947	-3.32662251655629	-0.704635761589404	-1.18490066225166				1.02495364238411	0.0797880794701987	-0.0828609271523179	7.99390728476821	-4.45218543046358	-1.70596026490066				0.933827814569536	0.0307284768211921	-0.26394701986755	-4.75258278145695	-3.49350993377483	0.0797350993377501				0.576529801324503	-0.496529801324503	-0.645721854304636	1.92291390728477	0.4635761589404	-4.25562913907285				0.980026490066225	0.0194966887417219	0.00593377483443711	2.4717880794702	2.29192052980133	-2.57748344370861				0.559788079470199	0.0171655629139073	-0.788238410596027	5.06039735099338	-2.08238410596027	-12.234701986755			
109	2420	0.951841059602649	-0.0292450331125828	-0.135523178807947	-2.48662251655629	2.0953642384106	-0.0649006622516557				0.976953642384106	0.111788079470199	-0.114860927152318	10.2339072847682	-5.57218543046358	0.81403973509934				0.933827814569536	0.0147284768211921	-0.29594701986755	3.36741721854305	-3.77350993377483	-1.04026490066225				0.576529801324503	-0.496529801324503	-0.661721854304636	0.802913907284768	-2.0564238410596	-3.41562913907285				0.996026490066225	-0.0125033112582781	-0.0580662251655629	3.0317880794702	-2.18807947019868	-2.01748344370861				0.543788079470199	0.0491655629139073	-0.788238410596027	-1.93960264900662	-0.682384105960265	-11.114701986755			
110	2440	0.967841059602649	-0.0292450331125828	-0.135523178807947	0.0333774834437086	2.0953642384106	-1.46490066225166				0.976953642384106	0.0957880794701987	-0.146860927152318	7.43390728476821	-5.01218543046358	-1.98596026490066				0.917827814569536	0.0467284768211921	-0.29594701986755	5.32741721854305	-2.37350993377483	-1.32026490066225				0.560529801324503	-0.480529801324503	-0.677721854304636	0.242913907284768	-5.6964238410596	-3.41562913907285				0.980026490066225	0.00349668874172187	0.00593377483443711	-0.0482119205298018	2.29192052980133	-2.85748344370861				0.527788079470199	0.0651655629139073	-0.804238410596027	-5.57960264900662	2.39761589403974	-9.71470198675497			
111	2460	0.951841059602649	0.00275496688741723	-0.135523178807947	-0.246622516556291	-0.424635761589404	-2.02490066225166				0.992953642384106	0.0957880794701987	-0.0668609271523178	0.993907284768212	-4.73218543046358	-3.94596026490066				0.949827814569536	0.0467284768211921	-0.29594701986755	1.12741721854305	-0.693509933774834	-0.20026490066225				0.512529801324503	-0.464529801324503	-0.661721854304636	0.802913907284768	-7.6564238410596	-2.85562913907285				0.964026490066225	0.00349668874172187	-0.0260662251655629	1.0717880794702	-3.02807947019868	-3.69748344370861				0.527788079470199	0.0651655629139073	-0.820238410596026	-1.93960264900662	1.55761589403974	-8.03470198675497			
112	2480	0.967841059602649	0.00275496688741723	-0.151523178807947	0.0333774834437086	-2.1046357615894	-1.74490066225166				0.976953642384106	0.0957880794701987	-0.0508609271523178	-0.686092715231788	-6.69218543046358	-2.54596026490066				0.933827814569536	-0.0172715231788079	-0.27994701986755	0.847417218543046	-0.973509933774833	0.35973509933775				0.496529801324503	-0.496529801324503	-0.645721854304636	-2.27708609271523	-6.8164238410596	-2.85562913907285				0.980026490066225	0.00349668874172187	-0.0580662251655629	-0.0482119205298018	-4.42807947019868	-3.41748344370861				0.527788079470199	0.0491655629139073	-0.820238410596026	-1.65960264900662	-0.402384105960265	-7.19470198675497			
113	2500	0.951841059602649	-0.0132450331125828	-0.135523178807947	2.27337748344371	-1.8246357615894	-0.344900662251656				0.960953642384106	0.111788079470199	-0.0988609271523179	0.153907284768212	0.0278145695364242	0.25403973509934				0.917827814569536	-0.0172715231788079	-0.26394701986755	-1.11258278145695	-2.09350993377483	0.35973509933775				0.496529801324503	-0.480529801324503	-0.645721854304636	-4.23708609271523	-5.6964238410596	-0.895629139072848				0.964026490066225	0.00349668874172187	-0.0260662251655629	1.3517880794702	-3.86807947019868	-1.73748344370861				0.543788079470199	0.0651655629139073	-0.820238410596026	-3.05960264900662	-1.52238410596026	-5.23470198675497			
114	2520	0.951841059602649	-0.0132450331125828	-0.135523178807947	2.83337748344371	-2.6646357615894	-0.624900662251656				0.944953642384106	0.0957880794701987	-0.0988609271523179	6.31390728476821	-3.61218543046358	-0.30596026490066				0.933827814569536	0.0147284768211921	-0.26394701986755	-1.11258278145695	-1.53350993377483	1.75973509933775				0.496529801324503	-0.464529801324503	-0.661721854304636	-1.43708609271523	-3.7364238410596	0.784370860927152				0.948026490066225	0.00349668874172187	-0.0420662251655629	-2.0082119205298	-2.18807947019868	-2.29748344370861				0.527788079470199	0.0651655629139073	-0.820238410596026	-3.05960264900662	-3.76238410596027	-3.27470198675497			
115	2540	0.951841059602649	-0.0292450331125828	-0.135523178807947	-0.526622516556291	-1.8246357615894	-1.18490066225166				0.992953642384106	0.0797880794701987	-0.114860927152318	6.03390728476821	-9.21218543046358	-0.0259602649006601				0.949827814569536	0.0307284768211921	-0.27994701986755	-2.23258278145695	-2.37350993377483	0.63973509933775				0.480529801324503	-0.464529801324503	-0.645721854304636	-0.0370860927152318	-1.2164238410596	0.224370860927152				0.948026490066225	0.00349668874172187	-0.0260662251655629	-2.2882119205298	-3.58807947019868	-2.29748344370861				0.511788079470199	0.0651655629139073	-0.820238410596026	0.860397350993377	-6.28238410596027	-2.15470198675497			
116	2560	0.951841059602649	-0.0452450331125828	-0.135523178807947	-6.12662251655629	-1.2646357615894	-0.904900662251656				0.976953642384106	0.0637880794701987	-0.114860927152318	0.713907284768212	-6.69218543046358	-2.54596026490066				0.933827814569536	0.0307284768211921	-0.27994701986755	-0.832582781456954	-3.49350993377483	0.35973509933775				0.480529801324503	-0.464529801324503	-0.645721854304636	1.92291390728477	-0.0964238410596001	0.504370860927152				0.964026490066225	-0.0125033112582781	-0.0420662251655629	-2.2882119205298	-4.14807947019868	-0.617483443708608				0.511788079470199	0.0651655629139073	-0.804238410596027	2.26039735099338	-6.56238410596027	-1.03470198675497			
117	2580	0.951841059602649	-0.0132450331125828	-0.151523178807947	-5.56662251655629	1.5353642384106	-1.46490066225166				0.992953642384106	0.0797880794701987	-0.0828609271523179	-4.32609271523179	1.70781456953642	0.25403973509934				0.933827814569536	0.0307284768211921	-0.27994701986755	-3.35258278145695	-2.65350993377483	0.0797350993377501				0.496529801324503	-0.480529801324503	-0.645721854304636	3.04291390728477	-0.0964238410596001	1.34437086092715				0.980026490066225	0.00349668874172187	-0.0580662251655629	-5.6482119205298	-4.42807947019868	0.502516556291392				0.527788079470199	0.0651655629139073	-0.820238410596026	-0.259602649006623	-5.72238410596027	0.0852980132450323			
118	2600	0.951841059602649	0.00275496688741723	-0.135523178807947	-2.48662251655629	3.4953642384106	-1.74490066225166				0.944953642384106	0.0797880794701987	-0.0828609271523179	-1.52609271523179	-3.61218543046358	0.81403973509934				0.917827814569536	0.0147284768211921	-0.26394701986755	-5.31258278145695	-2.37350993377483	-0.48026490066225				0.496529801324503	-0.496529801324503	-0.645721854304636	2.76291390728477	0.1835761589404	3.58437086092715				0.980026490066225	-0.0125033112582781	-0.0580662251655629	-7.3282119205298	-4.70807947019868	1.06251655629139				0.543788079470199	0.0811655629139073	-0.820238410596026	-1.37960264900662	-4.32238410596027	-0.194701986754968			
119	2620	0.967841059602649	-0.0132450331125828	-0.119523178807947	-1.92662251655629	0.135364238410596	-0.904900662251656				0.976953642384106	0.0957880794701987	-0.0988609271523179	-1.24609271523179	-5.01218543046358	-2.82596026490066				0.933827814569536	-0.00127152317880793	-0.27994701986755	-6.99258278145695	-2.09350993377483	-0.20026490066225				0.496529801324503	-0.528529801324503	-0.645721854304636	0.242913907284768	2.9835761589404	3.86437086092715				0.964026490066225	-0.0125033112582781	-0.0580662251655629	-7.0482119205298	-3.58807947019868	2.74251655629139				0.511788079470199	0.0811655629139073	-0.820238410596026	-1.37960264900662	-2.08238410596027	1.76529801324503			
120	2640	0.967841059602649	-0.0292450331125828	-0.151523178807947	-4.72662251655629	-3.2246357615894	-1.18490066225166				0.976953642384106	0.0797880794701987	-0.0668609271523178	-8.24609271523179	-3.61218543046358	-2.82596026490066				0.933827814569536	-0.00127152317880793	-0.29594701986755	-6.99258278145695	-3.77350993377483	0.35973509933775				0.480529801324503	-0.480529801324503	-0.661721854304636	-0.0370860927152318	3.8235761589404	3.86437086092715				0.932026490066225	-0.0125033112582781	-0.0260662251655629	-7.8882119205298	-2.18807947019868	1.62251655629139				0.495788079470199	0.0811655629139073	-0.804238410596027	2.54039735099338	-1.24238410596026	1.76529801324503			
121	2660	0.967841059602649	-0.0132450331125828	-0.151523178807947	-4.72662251655629	-3.2246357615894	-1.46490066225166				1.00895364238411	0.0957880794701987	-0.0828609271523179	-6.28609271523179	-7.81218543046358	-1.70596026490066				0.933827814569536	0.0147284768211921	-0.27994701986755	-5.87258278145695	-5.17350993377483	-0.20026490066225				0.480529801324503	-0.480529801324503	-0.645721854304636	-0.317086092715232	3.8235761589404	4.42437086092715				0.932026490066225	-0.0125033112582781	-0.0420662251655629	-10.6882119205298	-3.02807947019868	1.90251655629139				0.495788079470199	0.0811655629139073	-0.804238410596027	2.54039735099338	-5.44238410596027	-1.59470198675497			
122	2680	0.951841059602649	0.00275496688741723	-0.119523178807947	-5.84662251655629	-2.3846357615894	-0.904900662251656				0.976953642384106	0.111788079470199	-0.130860927152318	-2.36609271523179	-10.0521854304636	-1.98596026490066				0.933827814569536	0.0307284768211921	-0.27994701986755	-2.51258278145695	-5.73350993377484	0.0797350993377501				0.496529801324503	-0.496529801324503	-0.645721854304636	2.48291390728477	2.4235761589404	4.70437086092715				0.932026490066225	0.00349668874172187	-0.0100662251655629	-11.8082119205298	2.29192052980133	0.782516556291392				0.495788079470199	0.0811655629139073	-0.820238410596026	3.66039735099338	-8.52238410596027	-3.27470198675497			
123	2700	0.951841059602649	-0.0292450331125828	-0.103523178807947	-9.48662251655629	-0.984635761589404	-0.904900662251656				0.944953642384106	0.111788079470199	-0.0988609271523179	2.11390728476821	-11.7321854304636	-5.34596026490066				0.901827814569536	0.0147284768211921	-0.27994701986755	-4.75258278145695	-4.05350993377483	-0.48026490066225				0.544529801324503	-0.512529801324503	-0.661721854304636	1.64291390728477	2.9835761589404	4.98437086092715				0.980026490066225	0.00349668874172187	-0.0420662251655629	-9.0082119205298	3.69192052980133	0.222516556291392				0.495788079470199	0.0651655629139073	-0.820238410596026	5.90039735099338	-9.36238410596027	-2.71470198675497			
124	2720	0.967841059602649	-0.0132450331125828	-0.135523178807947	-8.36662251655629	0.135364238410596	-1.18490066225166				0.944953642384106	0.0957880794701987	-0.130860927152318	-1.52609271523179	-8.09218543046358	-3.94596026490066				0.901827814569536	0.0147284768211921	-0.26394701986755	-6.15258278145695	-3.21350993377483	-0.20026490066225				0.560529801324503	-0.512529801324503	-0.645721854304636	-4.23708609271523	1.5835761589404	3.86437086092715				0.996026490066225	0.00349668874172187	-0.0420662251655629	-8.4482119205298	2.29192052980133	-0.0574834437086077				0.479788079470199	0.0811655629139073	-0.820238410596026	5.62039735099338	-7.40238410596027	-2.99470198675497			
125	2740	0.967841059602649	0.00275496688741723	-0.135523178807947	-4.16662251655629	2.3753642384106	-1.46490066225166				0.992953642384106	0.0957880794701987	-0.178860927152318	-7.68609271523179	-1.09218543046358	-0.86596026490066				0.933827814569536	0.0307284768211921	-0.27994701986755	-6.71258278145695	-1.81350993377483	0.0797350993377501				0.544529801324503	-0.496529801324503	-0.661721854304636	-4.23708609271523	-1.2164238410596	5.54437086092715				0.996026490066225	0.00349668874172187	-0.0580662251655629	-6.2082119205298	1.17192052980133	0.222516556291392				0.495788079470199	0.0811655629139073	-0.836238410596026	4.50039735099338	-5.16238410596027	-3.83470198675497			
126	2760	0.967841059602649	0.0187549668874172	-0.135523178807947	-5.56662251655629	1.5353642384106	-1.74490066225166				0.992953642384106	0.127788079470199	-0.162860927152318	-5.16609271523179	1.70781456953642	2.77403973509934				0.933827814569536	0.0627284768211921	-0.31194701986755	-7.55258278145695	-1.53350993377483	1.47973509933775				0.544529801324503	-0.512529801324503	-0.661721854304636	-2.83708609271523	-2.6164238410596	6.10437086092715				1.01202649006623	0.00349668874172187	-0.0420662251655629	-4.5282119205298	0.0519205298013249	-0.0574834437086077				0.495788079470199	0.0491655629139073	-0.836238410596026	3.38039735099338	-6.00238410596027	-5.51470198675497			
127	2780	0.951841059602649	0.0187549668874172	-0.119523178807947	-5.56662251655629	0.695364238410596	-1.18490066225166				0.944953642384106	0.111788079470199	-0.146860927152318	-0.966092715231788	-0.532185430463576	1.65403973509934				0.917827814569536	0.0307284768211921	-0.32794701986755	-4.75258278145695	-1.25350993377483	1.75973509933775				0.528529801324503	-0.512529801324503	-0.661721854304636	-0.877086092715232	-4.5764238410596	7.22437086092715				0.980026490066225	-0.0125033112582781	-0.0580662251655629	-4.8082119205298	-0.508079470198675	-0.337483443708608				0.479788079470199	0.0491655629139073	-0.852238410596026	1.42039735099338	-5.72238410596027	-5.23470198675497			
128	2800	0.951841059602649	0.0187549668874172	-0.135523178807947	-3.04662251655629	0.695364238410596	-1.46490066225166				0	0	0	0	0	0				0	0	0	0	0	0				0.512529801324503	-0.512529801324503	-0.661721854304636	-4.79708609271523	-5.4164238410596	3.30437086092715				0.964026490066225	-0.0125033112582781	-0.0580662251655629	-7.6082119205298	-1.34807947019868	-0.897483443708608				0.447788079470199	0.0651655629139073	-0.836238410596026	-0.819602649006623	-5.16238410596027	-4.39470198675497			
129	2820	0	0	0	0	0	0				0	0	0	0	0	0				0	0	0	0	0	0				0.496529801324503	-0.480529801324503	-0.629721854304636	-10.6770860927152	-6.8164238410596	2.18437086092715				0.964026490066225	0.00349668874172187	-0.0420662251655629	-6.7682119205298	-1.90807947019868	-1.17748344370861				0.431788079470199	0.0491655629139073	-0.820238410596026	-1.93960264900662	-4.88238410596027	-4.11470198675497			
130	2840	0	0	0	0	0	0				0	0	0	0	0	0				0	0	0	0	0	0				0.480529801324503	-0.448529801324503	-0.629721854304636	-4.79708609271523	-4.2964238410596	2.74437086092715				0.964026490066225	0.00349668874172187	-0.0580662251655629	-5.3682119205298	-6.10807947019868	-0.337483443708608				0.447788079470199	0.0651655629139073	-0.820238410596026	-1.09960264900662	-5.16238410596027	-1.31470198675497			
