No	Time	12-AccX	12-AccY	12-AccZ	12-GyroX	12-GyroY	12-GyroZ	13-AccX	13-AccY	13-AccZ	13-GyroX	13-GyroY	13-GyroZ	14-AccX	14-AccY	14-AccZ	14-GyroX	14-GyroY	14-GyroZ	15-AccX	15-AccY	15-AccZ	15-GyroX	15-GyroY	15-GyroZ	16-AccX	16-AccY	16-AccZ	16-GyroX	16-GyroY	16-GyroZ	17-AccX	17-AccY	17-AccZ	17-GyroX	17-GyroY	17-GyroZ
0	100	0	0	0	0	0	0				0	0	0	0	0	0				-0.250172185430464	-0.0172715231788079	-0.88794701986755	-0.272582781456954	0.706490066225167	0.35973509933775				0	0	0	0	0	0				0.948026490066225	0.0834966887417219	0.181933774834437	0.791788079470198	0.891920529801325	-0.0574834437086077				0.287788079470199	-0.142834437086093	-0.900238410596026	1.14039735099338	-2.08238410596027	-2.15470198675497			
1	120	-0.200158940397351	0.130754966887417	-0.951523178807947	-0.246622516556291	0.415364238410596	-1.18490066225166				0.960953642384106	0.159788079470199	0.141139072847682	1.27390728476821	-4.45218543046358	0.53403973509934				-0.250172185430464	-0.0172715231788079	-0.87194701986755	0.847417218543046	0.706490066225167	-0.20026490066225				0.352529801324503	-0.256529801324503	-0.885721854304636	1.36291390728477	0.1835761589404	0.504370860927152				0.964026490066225	0.0674966887417219	0.149933774834437	-0.0482119205298018	0.0519205298013249	-0.0574834437086077				0.287788079470199	-0.158834437086093	-0.916238410596027	3.10039735099338	-2.36238410596027	-2.15470198675497			
2	140	-0.184158940397351	0.130754966887417	-0.935523178807947	-0.246622516556291	0.975364238410596	-1.18490066225166				0.976953642384106	0.159788079470199	0.125139072847682	1.27390728476821	-3.61218543046358	0.53403973509934				-0.250172185430464	-0.0172715231788079	-0.87194701986755	0.00741721854304636	-0.693509933774834	-0.20026490066225				0.352529801324503	-0.224529801324503	-0.869721854304636	-0.0370860927152318	-1.4964238410596	-0.0556291390728476				0.948026490066225	0.0834966887417219	0.165933774834437	-0.888211920529802	1.45192052980132	-0.0574834437086077				0.271788079470199	-0.158834437086093	-0.900238410596026	2.82039735099338	-3.20238410596026	-1.59470198675497			
3	160	-0.184158940397351	0.130754966887417	-0.935523178807947	-0.806622516556291	0.135364238410596	-0.0649006622516557				0.976953642384106	0.159788079470199	0.141139072847682	0.713907284768212	-0.812185430463576	1.09403973509934				-0.250172185430464	-0.0172715231788079	-0.88794701986755	0.287417218543046	-0.413509933774833	0.35973509933775				0.336529801324503	-0.224529801324503	-0.885721854304636	0.242913907284768	-1.7764238410596	-0.335629139072848				0.948026490066225	0.0834966887417219	0.165933774834437	0.231788079470198	2.29192052980133	-0.337483443708608				0.255788079470199	-0.158834437086093	-0.884238410596026	1.14039735099338	-3.76238410596027	-1.87470198675497			
4	180	-0.200158940397351	0.130754966887417	-0.951523178807947	-0.246622516556291	0.135364238410596	-0.624900662251656				0.976953642384106	0.159788079470199	0.157139072847682	0.993907284768212	-0.252185430463576	0.81403973509934				-0.250172185430464	-0.0172715231788079	-0.88794701986755	0.567417218543046	0.146490066225167	0.0797350993377501				0.336529801324503	-0.240529801324503	-0.869721854304636	-0.0370860927152318	-1.7764238410596	-0.895629139072848				0.932026490066225	0.0834966887417219	0.165933774834437	3.3117880794702	1.17192052980133	-0.0574834437086077				0.271788079470199	-0.142834437086093	-0.900238410596026	1.98039735099338	-4.04238410596027	-2.99470198675497			
5	200	-0.200158940397351	0.114754966887417	-0.951523178807947	-0.246622516556291	0.135364238410596	-1.18490066225166				0.992953642384106	0.143788079470199	0.141139072847682	0.433907284768212	-0.812185430463576	0.25403973509934				-0.250172185430464	-0.00127152317880793	-0.90394701986755	-0.272582781456954	0.146490066225167	-1.04026490066225				0.336529801324503	-0.240529801324503	-0.885721854304636	-1.15708609271523	-1.7764238410596	-1.73562913907285				0.948026490066225	0.0834966887417219	0.165933774834437	2.4717880794702	3.13192052980133	-0.0574834437086077				0.271788079470199	-0.158834437086093	-0.916238410596027	3.10039735099338	-3.76238410596027	-2.99470198675497			
6	220	-0.200158940397351	0.130754966887417	-0.935523178807947	0.873377483443709	-0.144635761589404	-0.904900662251656				0.976953642384106	0.159788079470199	0.141139072847682	-0.126092715231788	-0.252185430463576	-0.30596026490066				-0.266172185430464	-0.0172715231788079	-0.87194701986755	0.00741721854304636	0.706490066225167	-0.48026490066225				0.336529801324503	-0.240529801324503	-0.885721854304636	-1.15708609271523	-0.9364238410596	-0.895629139072848				0.964026490066225	0.0834966887417219	0.165933774834437	0.231788079470198	2.01192052980133	-0.617483443708608				0.271788079470199	-0.158834437086093	-0.916238410596027	3.38039735099338	-2.08238410596027	-1.87470198675497			
7	240	-0.200158940397351	0.130754966887417	-0.935523178807947	0.0333774834437086	0.415364238410596	-0.344900662251656				0.976953642384106	0.159788079470199	0.141139072847682	-0.126092715231788	-0.812185430463576	0.25403973509934				-0.266172185430464	-0.0172715231788079	-0.88794701986755	0.287417218543046	-0.413509933774833	0.0797350993377501				0.320529801324503	-0.224529801324503	-0.885721854304636	1.92291390728477	1.0235761589404	0.504370860927152				0.964026490066225	0.0834966887417219	0.181933774834437	-0.0482119205298018	1.73192052980133	-0.337483443708608				0.271788079470199	-0.158834437086093	-0.884238410596026	0.580397350993377	-1.24238410596026	-1.03470198675497			
8	260	-0.200158940397351	0.130754966887417	-0.951523178807947	-1.08662251655629	0.415364238410596	-1.46490066225166				0.976953642384106	0.159788079470199	0.141139072847682	0.153907284768212	-0.812185430463576	0.25403973509934				-0.266172185430464	-0.00127152317880793	-0.88794701986755	0.567417218543046	0.706490066225167	-0.20026490066225				0.320529801324503	-0.240529801324503	-0.885721854304636	-0.0370860927152318	1.0235761589404	-0.335629139072848				0.964026490066225	0.0834966887417219	0.165933774834437	-0.0482119205298018	2.01192052980133	0.222516556291392				0.271788079470199	-0.158834437086093	-0.900238410596026	0.0203973509933773	-1.52238410596026	-0.754701986754968			
9	280	-0.200158940397351	0.114754966887417	-0.951523178807947	0.593377483443709	0.415364238410596	-0.344900662251656				0.976953642384106	0.159788079470199	0.141139072847682	0.433907284768212	0.0278145695364242	0.25403973509934				-0.250172185430464	-0.0172715231788079	-0.90394701986755	0.847417218543046	0.706490066225167	0.35973509933775				0.336529801324503	-0.240529801324503	-0.885721854304636	-0.597086092715232	-0.3764238410596	0.784370860927152				0.948026490066225	0.0834966887417219	0.165933774834437	0.791788079470198	1.17192052980133	0.222516556291392				0.271788079470199	-0.158834437086093	-0.900238410596026	1.98039735099338	-2.36238410596027	0.0852980132450323			
10	300	-0.184158940397351	0.114754966887417	-0.967523178807947	0.593377483443709	0.695364238410596	-0.904900662251656				0.976953642384106	0.159788079470199	0.125139072847682	1.55390728476821	-1.09218543046358	1.37403973509934				-0.250172185430464	-0.0172715231788079	-0.88794701986755	1.96741721854305	0.706490066225167	-0.20026490066225				0.336529801324503	-0.224529801324503	-0.869721854304636	-0.877086092715232	0.1835761589404	0.504370860927152				0.964026490066225	0.0834966887417219	0.181933774834437	-0.328211920529802	1.45192052980132	-0.0574834437086077				0.287788079470199	-0.174834437086093	-0.900238410596026	1.14039735099338	-0.682384105960265	-0.194701986754968			
11	320	-0.200158940397351	0.130754966887417	-0.951523178807947	-1.08662251655629	-0.144635761589404	-0.624900662251656				0.976953642384106	0.159788079470199	0.125139072847682	1.83390728476821	-1.93218543046358	1.09403973509934				-0.250172185430464	-0.00127152317880793	-0.87194701986755	0.287417218543046	0.426490066225167	0.0797350993377501				0.336529801324503	-0.224529801324503	-0.869721854304636	0.242913907284768	0.4635761589404	1.06437086092715				0.964026490066225	0.0834966887417219	0.181933774834437	-0.608211920529802	0.611920529801325	0.222516556291392				0.271788079470199	-0.158834437086093	-0.900238410596026	1.42039735099338	0.997615894039735	0.925298013245032			
12	340	-0.200158940397351	0.130754966887417	-0.951523178807947	0.0333774834437086	0.135364238410596	-1.18490066225166				0.976953642384106	0.143788079470199	0.125139072847682	0.993907284768212	-2.21218543046358	1.37403973509934				-0.250172185430464	-0.0172715231788079	-0.88794701986755	-1.11258278145695	-0.693509933774834	-0.76026490066225				0.336529801324503	-0.240529801324503	-0.869721854304636	0.802913907284768	-0.0964238410596001	0.784370860927152				0.948026490066225	0.0834966887417219	0.197933774834437	-1.1682119205298	0.891920529801325	0.782516556291392				0.271788079470199	-0.158834437086093	-0.900238410596026	0.0203973509933773	0.997615894039735	1.20529801324503			
13	360	-0.200158940397351	0.130754966887417	-0.951523178807947	0.0333774834437086	0.415364238410596	-0.0649006622516557				0.976953642384106	0.159788079470199	0.141139072847682	0.993907284768212	-0.812185430463576	1.09403973509934				-0.266172185430464	-0.00127152317880793	-0.88794701986755	0.567417218543046	-0.133509933774833	-0.48026490066225				0.336529801324503	-0.240529801324503	-0.869721854304636	-0.317086092715232	0.4635761589404	1.34437086092715				0.948026490066225	0.0834966887417219	0.181933774834437	-0.608211920529802	0.611920529801325	0.782516556291392				0.271788079470199	-0.158834437086093	-0.900238410596026	0.580397350993377	-0.122384105960265	1.48529801324503			
14	380	-0.200158940397351	0.130754966887417	-0.951523178807947	0.593377483443709	0.135364238410596	-0.344900662251656				0.976953642384106	0.159788079470199	0.141139072847682	0.713907284768212	0.867814569536424	-0.0259602649006601				-0.266172185430464	-0.0172715231788079	-0.88794701986755	1.40741721854305	0.146490066225167	0.0797350993377501				0.336529801324503	-0.224529801324503	-0.869721854304636	-0.597086092715232	1.0235761589404	1.34437086092715				0.948026490066225	0.0834966887417219	0.181933774834437	-0.888211920529802	2.01192052980133	1.62251655629139				0.255788079470199	-0.158834437086093	-0.900238410596026	0.860397350993377	0.157615894039735	0.645298013245032			
15	400	-0.200158940397351	0.130754966887417	-0.951523178807947	-0.526622516556291	0.975364238410596	-0.344900662251656				0.976953642384106	0.159788079470199	0.141139072847682	1.27390728476821	1.70781456953642	-0.0259602649006601				-0.250172185430464	-0.0172715231788079	-0.88794701986755	0.567417218543046	0.426490066225167	-0.20026490066225				0.336529801324503	-0.240529801324503	-0.869721854304636	0.242913907284768	2.4235761589404	1.62437086092715				0.948026490066225	0.0834966887417219	0.181933774834437	-1.4482119205298	2.29192052980133	-0.337483443708608				0.271788079470199	-0.158834437086093	-0.884238410596026	1.70039735099338	0.157615894039735	1.20529801324503			
16	420	-0.184158940397351	0.130754966887417	-0.951523178807947	0.593377483443709	0.415364238410596	-0.344900662251656				0.976953642384106	0.159788079470199	0.141139072847682	1.27390728476821	0.587814569536424	0.53403973509934				-0.234172185430464	-0.0172715231788079	-0.87194701986755	0.287417218543046	1.26649006622517	0.0797350993377501				0.352529801324503	-0.224529801324503	-0.869721854304636	0.522913907284768	1.8635761589404	1.90437086092715				0.964026490066225	0.0834966887417219	0.181933774834437	-1.4482119205298	2.85192052980133	-0.337483443708608				0.271788079470199	-0.158834437086093	-0.884238410596026	1.42039735099338	0.717615894039735	0.925298013245032			
17	440	-0.200158940397351	0.130754966887417	-0.951523178807947	1.15337748344371	0.695364238410596	-0.904900662251656				0.960953642384106	0.159788079470199	0.141139072847682	0.993907284768212	-0.532185430463576	-0.0259602649006601				-0.250172185430464	-0.0172715231788079	-0.87194701986755	-0.552582781456954	-0.973509933774833	0.35973509933775				0.352529801324503	-0.240529801324503	-0.869721854304636	-0.0370860927152318	1.3035761589404	1.06437086092715				0.948026490066225	0.0834966887417219	0.197933774834437	-1.4482119205298	2.29192052980133	0.782516556291392				0.287788079470199	-0.158834437086093	-0.884238410596026	0.300397350993377	0.997615894039735	1.20529801324503			
18	460	-0.184158940397351	0.130754966887417	-0.935523178807947	-0.806622516556291	0.135364238410596	-1.18490066225166				0.960953642384106	0.159788079470199	0.141139072847682	0.993907284768212	-0.252185430463576	0.25403973509934				-0.250172185430464	-0.00127152317880793	-0.88794701986755	1.40741721854305	0.986490066225167	-0.20026490066225				0.352529801324503	-0.240529801324503	-0.885721854304636	-0.597086092715232	0.7435761589404	1.06437086092715				0.932026490066225	0.0994966887417219	0.197933774834437	-0.0482119205298018	3.41192052980132	-0.0574834437086077				0.271788079470199	-0.158834437086093	-0.884238410596026	0.0203973509933773	0.717615894039735	0.925298013245032			
19	480	-0.200158940397351	0.130754966887417	-0.935523178807947	-1.92662251655629	-0.424635761589404	-0.904900662251656				0.976953642384106	0.159788079470199	0.141139072847682	0.153907284768212	0.0278145695364242	-0.0259602649006601				-0.250172185430464	-0.0172715231788079	-0.88794701986755	0.847417218543046	0.986490066225167	-0.20026490066225				0.352529801324503	-0.240529801324503	-0.869721854304636	-1.15708609271523	-0.0964238410596001	1.62437086092715				0.964026490066225	0.0674966887417219	0.181933774834437	-0.328211920529802	-1.34807947019868	-0.337483443708608				0.271788079470199	-0.158834437086093	-0.884238410596026	0.0203973509933773	0.157615894039735	-0.194701986754968			
20	500	-0.200158940397351	0.130754966887417	-0.935523178807947	-0.246622516556291	-0.424635761589404	-0.344900662251656				0.976953642384106	0.159788079470199	0.141139072847682	2.67390728476821	-1.93218543046358	0.53403973509934				-0.250172185430464	-0.0172715231788079	-0.88794701986755	0.00741721854304636	0.146490066225167	-0.48026490066225				0.352529801324503	-0.240529801324503	-0.885721854304636	-1.71708609271523	-0.9364238410596	1.34437086092715				0.964026490066225	0.0834966887417219	0.181933774834437	-2.8482119205298	2.57192052980133	-0.617483443708608				0.271788079470199	-0.158834437086093	-0.884238410596026	1.14039735099338	-0.122384105960265	0.0852980132450323			
21	520	-0.200158940397351	0.130754966887417	-0.935523178807947	-0.246622516556291	0.135364238410596	-0.904900662251656				0.976953642384106	0.159788079470199	0.125139072847682	1.55390728476821	1.14781456953642	0.81403973509934				-0.250172185430464	-0.0172715231788079	-0.88794701986755	0.847417218543046	0.426490066225167	0.0797350993377501				0.336529801324503	-0.224529801324503	-0.885721854304636	-0.317086092715232	0.4635761589404	2.46437086092715				0.948026490066225	0.0834966887417219	0.197933774834437	-0.888211920529802	2.57192052980133	-0.897483443708608				0.255788079470199	-0.174834437086093	-0.884238410596026	0.580397350993377	0.437615894039735	0.645298013245032			
22	540	-0.200158940397351	0.130754966887417	-0.935523178807947	0.873377483443709	0.415364238410596	-0.624900662251656				0.976953642384106	0.159788079470199	0.157139072847682	-1.24609271523179	1.42781456953642	0.81403973509934				-0.266172185430464	-0.0172715231788079	-0.88794701986755	0.00741721854304636	-0.133509933774833	-0.76026490066225				0.336529801324503	-0.224529801324503	-0.869721854304636	-1.71708609271523	0.7435761589404	1.90437086092715				0.964026490066225	0.0834966887417219	0.165933774834437	-1.4482119205298	3.41192052980132	-1.17748344370861				0.255788079470199	-0.158834437086093	-0.884238410596026	-0.539602649006623	0.997615894039735	0.365298013245032			
23	560	-0.200158940397351	0.114754966887417	-0.935523178807947	0.593377483443709	0.415364238410596	-0.624900662251656				0.992953642384106	0.143788079470199	0.157139072847682	0.433907284768212	-1.65218543046358	0.53403973509934				-0.266172185430464	-0.0172715231788079	-0.88794701986755	0.847417218543046	0.426490066225167	0.0797350993377501				0.352529801324503	-0.208529801324503	-0.853721854304636	-1.43708609271523	1.0235761589404	1.34437086092715				0.964026490066225	0.0834966887417219	0.197933774834437	1.3517880794702	1.45192052980132	-0.0574834437086077				0.271788079470199	-0.142834437086093	-0.884238410596026	-1.93960264900662	2.11761589403974	1.48529801324503			
24	580	-0.200158940397351	0.130754966887417	-0.935523178807947	0.0333774834437086	0.135364238410596	-1.46490066225166				0.992953642384106	0.159788079470199	0.141139072847682	1.83390728476821	-3.33218543046358	0.25403973509934				-0.250172185430464	-0.0172715231788079	-0.88794701986755	0.567417218543046	0.426490066225167	-0.76026490066225				0.352529801324503	-0.224529801324503	-0.853721854304636	-2.55708609271523	1.0235761589404	-0.0556291390728476				0.964026490066225	0.0834966887417219	0.197933774834437	0.231788079470198	1.45192052980132	-0.897483443708608				0.287788079470199	-0.174834437086093	-0.900238410596026	-1.37960264900662	1.83761589403974	0.365298013245032			
25	600	-0.200158940397351	0.130754966887417	-0.951523178807947	-0.246622516556291	-0.424635761589404	-0.624900662251656				0.976953642384106	0.159788079470199	0.125139072847682	2.39390728476821	-2.21218543046358	0.53403973509934				-0.250172185430464	-0.0172715231788079	-0.88794701986755	0.567417218543046	0.146490066225167	-0.20026490066225				0.352529801324503	-0.224529801324503	-0.869721854304636	-1.71708609271523	1.5835761589404	0.504370860927152				0.948026490066225	0.0834966887417219	0.197933774834437	-0.328211920529802	0.331920529801325	-0.337483443708608				0.287788079470199	-0.174834437086093	-0.900238410596026	0.0203973509933773	1.83761589403974	-0.474701986754968			
26	620	-0.200158940397351	0.130754966887417	-0.951523178807947	0.0333774834437086	0.135364238410596	-0.624900662251656				0.976953642384106	0.159788079470199	0.125139072847682	2.67390728476821	-2.21218543046358	0.25403973509934				-0.266172185430464	-0.0172715231788079	-0.88794701986755	0.00741721854304636	-0.693509933774834	-0.76026490066225				0.352529801324503	-0.224529801324503	-0.885721854304636	-0.0370860927152318	1.3035761589404	1.06437086092715				0.964026490066225	0.0834966887417219	0.197933774834437	-0.0482119205298018	0.611920529801325	-0.0574834437086077				0.287788079470199	-0.158834437086093	-0.900238410596026	-0.819602649006623	1.55761589403974	-0.194701986754968			
27	640	-0.216158940397351	0.130754966887417	-0.951523178807947	0.0333774834437086	0.415364238410596	-1.18490066225166				0.960953642384106	0.159788079470199	0.141139072847682	0.433907284768212	-1.37218543046358	0.53403973509934				-0.250172185430464	-0.0172715231788079	-0.88794701986755	-0.272582781456954	-0.133509933774833	0.35973509933775				0.368529801324503	-0.224529801324503	-0.885721854304636	-0.877086092715232	0.4635761589404	1.34437086092715				0.948026490066225	0.0834966887417219	0.197933774834437	-0.0482119205298018	0.611920529801325	-0.897483443708608				0.271788079470199	-0.158834437086093	-0.900238410596026	-0.819602649006623	1.55761589403974	0.365298013245032			
28	660	-0.200158940397351	0.114754966887417	-0.951523178807947	0.593377483443709	0.415364238410596	-1.18490066225166				0.976953642384106	0.159788079470199	0.141139072847682	0.713907284768212	-1.37218543046358	0.25403973509934				-0.250172185430464	-0.00127152317880793	-0.88794701986755	-0.552582781456954	0.986490066225167	0.0797350993377501				0.336529801324503	-0.224529801324503	-0.869721854304636	-1.15708609271523	0.4635761589404	0.224370860927152				0.948026490066225	0.0834966887417219	0.197933774834437	-0.328211920529802	0.331920529801325	-0.897483443708608				0.287788079470199	-0.158834437086093	-0.900238410596026	-0.819602649006623	0.437615894039735	0.925298013245032			
29	680	-0.200158940397351	0.114754966887417	-0.951523178807947	-0.246622516556291	0.415364238410596	-0.904900662251656				0.976953642384106	0.159788079470199	0.125139072847682	1.55390728476821	-1.09218543046358	-0.585960264900661				-0.266172185430464	-0.0172715231788079	-0.88794701986755	0.567417218543046	1.26649006622517	0.0797350993377501				0.352529801324503	-0.224529801324503	-0.869721854304636	-0.0370860927152318	0.7435761589404	1.34437086092715				0.948026490066225	0.0834966887417219	0.197933774834437	0.231788079470198	0.331920529801325	-0.0574834437086077				0.271788079470199	-0.158834437086093	-0.900238410596026	-0.819602649006623	0.717615894039735	0.365298013245032			
30	700	-0.200158940397351	0.114754966887417	-0.935523178807947	0.0333774834437086	0.415364238410596	-0.624900662251656				0.976953642384106	0.159788079470199	0.125139072847682	2.11390728476821	-1.37218543046358	-0.585960264900661				-0.250172185430464	-0.0172715231788079	-0.88794701986755	0.847417218543046	0.426490066225167	-0.20026490066225				0.352529801324503	-0.224529801324503	-0.869721854304636	0.242913907284768	-0.0964238410596001	0.784370860927152				0.948026490066225	0.0834966887417219	0.181933774834437	-0.0482119205298018	-0.228079470198675	-0.617483443708608				0.287788079470199	-0.158834437086093	-0.900238410596026	-0.259602649006623	0.437615894039735	0.365298013245032			
31	720	-0.200158940397351	0.130754966887417	-0.935523178807947	-0.806622516556291	0.415364238410596	-1.46490066225166				0.976953642384106	0.159788079470199	0.125139072847682	0.433907284768212	-1.37218543046358	-0.585960264900661				-0.250172185430464	-0.0172715231788079	-0.87194701986755	0.287417218543046	-0.413509933774833	-0.48026490066225				0.352529801324503	-0.224529801324503	-0.869721854304636	-0.0370860927152318	-0.6564238410596	0.224370860927152				0.948026490066225	0.0834966887417219	0.197933774834437	-0.328211920529802	0.891920529801325	-1.45748344370861				0.271788079470199	-0.158834437086093	-0.900238410596026	-0.539602649006623	1.55761589403974	-0.194701986754968			
32	740	-0.200158940397351	0.130754966887417	-0.967523178807947	0.593377483443709	0.135364238410596	-0.904900662251656				0.960953642384106	0.159788079470199	0.125139072847682	0.433907284768212	-1.93218543046358	-0.585960264900661				-0.250172185430464	-0.0172715231788079	-0.87194701986755	0.00741721854304636	0.706490066225167	-0.20026490066225				0.352529801324503	-0.240529801324503	-0.869721854304636	-0.317086092715232	-0.3764238410596	-0.0556291390728476				0.948026490066225	0.0834966887417219	0.181933774834437	-0.608211920529802	-0.508079470198675	-0.617483443708608				0.271788079470199	-0.158834437086093	-0.900238410596026	-0.259602649006623	0.717615894039735	-0.754701986754968			
33	760	-0.184158940397351	0.114754966887417	-0.935523178807947	-0.806622516556291	0.135364238410596	-0.624900662251656				0.976953642384106	0.175788079470199	0.125139072847682	1.27390728476821	-0.812185430463576	-1.42596026490066				-0.250172185430464	-0.0172715231788079	-0.88794701986755	1.40741721854305	0.986490066225167	-0.76026490066225				0.336529801324503	-0.224529801324503	-0.869721854304636	0.242913907284768	0.1835761589404	0.504370860927152				0.948026490066225	0.0834966887417219	0.197933774834437	-1.4482119205298	0.331920529801325	-1.45748344370861				0.271788079470199	-0.174834437086093	-0.884238410596026	-0.259602649006623	-0.682384105960265	-0.194701986754968			
34	780	-0.200158940397351	0.130754966887417	-0.935523178807947	-1.08662251655629	0.415364238410596	-0.904900662251656				0.976953642384106	0.159788079470199	0.141139072847682	1.27390728476821	1.14781456953642	-1.14596026490066				-0.250172185430464	-0.0172715231788079	-0.88794701986755	-0.272582781456954	0.146490066225167	-0.76026490066225				0.336529801324503	-0.224529801324503	-0.869721854304636	-0.0370860927152318	0.7435761589404	0.784370860927152				0.948026490066225	0.0834966887417219	0.181933774834437	0.511788079470198	-0.788079470198675	-0.337483443708608				0.271788079470199	-0.158834437086093	-0.868238410596026	-1.09960264900662	0.157615894039735	-0.194701986754968			
35	800	-0.200158940397351	0.130754966887417	-0.935523178807947	0.313377483443709	0.135364238410596	-0.904900662251656				0.976953642384106	0.159788079470199	0.125139072847682	0.433907284768212	0.307814569536424	-0.86596026490066				-0.250172185430464	-0.0172715231788079	-0.87194701986755	1.96741721854305	-0.413509933774833	-0.76026490066225				0.336529801324503	-0.224529801324503	-0.869721854304636	-0.317086092715232	0.7435761589404	0.224370860927152				0.948026490066225	0.0834966887417219	0.181933774834437	1.3517880794702	0.611920529801325	-0.617483443708608				0.271788079470199	-0.158834437086093	-0.884238410596026	-1.09960264900662	0.997615894039735	-0.754701986754968			
36	820	-0.200158940397351	0.130754966887417	-0.951523178807947	0.0333774834437086	0.415364238410596	-1.18490066225166				0.992953642384106	0.143788079470199	0.141139072847682	0.433907284768212	0.307814569536424	0.25403973509934				-0.250172185430464	-0.0172715231788079	-0.88794701986755	-0.552582781456954	-0.413509933774833	-0.48026490066225				0.352529801324503	-0.224529801324503	-0.869721854304636	-0.597086092715232	0.7435761589404	-0.0556291390728476				0.948026490066225	0.0834966887417219	0.181933774834437	-0.608211920529802	-0.508079470198675	-2.01748344370861				0.271788079470199	-0.158834437086093	-0.900238410596026	-1.09960264900662	1.55761589403974	-0.474701986754968			
37	840	-0.200158940397351	0.130754966887417	-0.951523178807947	-1.08662251655629	0.695364238410596	-2.02490066225166				0.976953642384106	0.159788079470199	0.141139072847682	0.153907284768212	-0.252185430463576	-0.30596026490066				-0.250172185430464	-0.0172715231788079	-0.88794701986755	-1.39258278145695	0.986490066225167	-0.48026490066225				0.352529801324503	-0.224529801324503	-0.885721854304636	-0.0370860927152318	0.4635761589404	-0.335629139072848				0.964026490066225	0.0834966887417219	0.197933774834437	0.231788079470198	-0.228079470198675	-0.897483443708608				0.271788079470199	-0.158834437086093	-0.900238410596026	-1.37960264900662	0.997615894039735	-0.474701986754968			
38	860	-0.200158940397351	0.130754966887417	-0.951523178807947	-0.806622516556291	0.415364238410596	-1.18490066225166				0.976953642384106	0.159788079470199	0.125139072847682	0.433907284768212	0.307814569536424	-0.86596026490066				-0.234172185430464	-0.0172715231788079	-0.88794701986755	0.00741721854304636	-0.133509933774833	-0.48026490066225				0.352529801324503	-0.240529801324503	-0.869721854304636	0.802913907284768	1.3035761589404	-1.17562913907285				0.964026490066225	0.0834966887417219	0.181933774834437	0.231788079470198	-0.788079470198675	-0.617483443708608				0.287788079470199	-0.158834437086093	-0.900238410596026	-1.37960264900662	0.997615894039735	-1.31470198675497			
39	880	-0.200158940397351	0.130754966887417	-0.935523178807947	-0.526622516556291	0.415364238410596	-1.46490066225166				0.976953642384106	0.159788079470199	0.125139072847682	0.153907284768212	0.0278145695364242	-1.70596026490066				-0.250172185430464	-0.0172715231788079	-0.88794701986755	0.567417218543046	0.146490066225167	-0.48026490066225				0.352529801324503	-0.224529801324503	-0.869721854304636	-0.877086092715232	1.0235761589404	-0.615629139072848				0.948026490066225	0.0834966887417219	0.181933774834437	0.231788079470198	-1.06807947019868	-1.17748344370861				0.271788079470199	-0.158834437086093	-0.884238410596026	-1.09960264900662	1.27761589403974	-1.59470198675497			
40	900	-0.200158940397351	0.114754966887417	-0.951523178807947	-0.806622516556291	0.415364238410596	-1.74490066225166				0.976953642384106	0.159788079470199	0.141139072847682	-0.406092715231788	1.42781456953642	-0.86596026490066				-0.250172185430464	-0.0172715231788079	-0.87194701986755	0.00741721854304636	-0.413509933774833	-1.04026490066225				0.352529801324503	-0.224529801324503	-0.885721854304636	-0.0370860927152318	1.3035761589404	-0.335629139072848				0.948026490066225	0.0834966887417219	0.181933774834437	0.231788079470198	-1.06807947019868	-0.617483443708608				0.287788079470199	-0.158834437086093	-0.900238410596026	-2.77960264900662	1.55761589403974	-0.474701986754968			
41	920	-0.184158940397351	0.130754966887417	-0.951523178807947	0.873377483443709	0.135364238410596	-0.904900662251656				0.976953642384106	0.159788079470199	0.141139072847682	0.713907284768212	0.0278145695364242	-0.0259602649006601				-0.250172185430464	-0.00127152317880793	-0.88794701986755	-0.832582781456954	0.146490066225167	-0.48026490066225				0.352529801324503	-0.240529801324503	-0.885721854304636	-0.877086092715232	0.4635761589404	1.06437086092715				0.948026490066225	0.0834966887417219	0.181933774834437	0.791788079470198	-1.06807947019868	-0.617483443708608				0.287788079470199	-0.158834437086093	-0.900238410596026	-3.05960264900662	1.83761589403974	0.645298013245032			
42	940	-0.200158940397351	0.114754966887417	-0.935523178807947	0.0333774834437086	0.135364238410596	-1.18490066225166				0.976953642384106	0.159788079470199	0.125139072847682	0.993907284768212	-1.09218543046358	-0.0259602649006601				-0.266172185430464	-0.00127152317880793	-0.88794701986755	0.00741721854304636	0.146490066225167	-0.20026490066225				0.336529801324503	-0.240529801324503	-0.869721854304636	-0.597086092715232	-0.6564238410596	0.784370860927152				0	0	0	0	0	0				0	0	0	0	0	0			
43	1040	0	0	0	0	0	0				0	0	0	0	0	0				0	0	0	0	0	0				0	0	0	0	0	0				0.964026490066225	0.0834966887417219	0.165933774834437	-2.2882119205298	0.611920529801325	0.222516556291392				0.271788079470199	-0.158834437086093	-0.900238410596026	-0.819602649006623	-0.402384105960265	-0.194701986754968			
44	1060	0	0	0	0	0	0				0	0	0	0	0	0				0	0	0	0	0	0				0.320529801324503	-0.240529801324503	-0.869721854304636	-0.317086092715232	1.5835761589404	3.02437086092715				0.948026490066225	0.0834966887417219	0.181933774834437	-2.5682119205298	-0.228079470198675	-0.897483443708608				0.271788079470199	-0.158834437086093	-0.900238410596026	-0.539602649006623	-0.682384105960265	0.925298013245032			
45	1080	-0.200158940397351	0.114754966887417	-0.951523178807947	0.0333774834437086	0.695364238410596	-1.46490066225166				0.992953642384106	0.159788079470199	0.125139072847682	-0.126092715231788	-2.21218543046358	0.81403973509934				-0.250172185430464	-0.00127152317880793	-0.87194701986755	-0.832582781456954	-0.413509933774833	-0.20026490066225				0.336529801324503	-0.240529801324503	-0.885721854304636	-0.0370860927152318	2.9835761589404	3.86437086092715				0.964026490066225	0.0994966887417219	0.181933774834437	-4.5282119205298	1.73192052980133	-1.17748344370861				0.255788079470199	-0.158834437086093	-0.900238410596026	0.300397350993377	0.157615894039735	1.76529801324503			
46	1100	-0.184158940397351	0.114754966887417	-0.951523178807947	-1.36662251655629	0.415364238410596	-0.344900662251656				0.976953642384106	0.159788079470199	0.125139072847682	-0.126092715231788	-0.812185430463576	0.53403973509934				-0.250172185430464	-0.00127152317880793	-0.87194701986755	0.00741721854304636	0.146490066225167	-0.76026490066225				0.320529801324503	-0.240529801324503	-0.885721854304636	0.802913907284768	2.1435761589404	3.30437086092715				0.964026490066225	0.115496688741722	0.149933774834437	-2.2882119205298	-0.228079470198675	-0.337483443708608				0.239788079470199	-0.126834437086093	-0.916238410596027	-2.49960264900662	0.157615894039735	2.88529801324503			
47	1120	-0.184158940397351	0.130754966887417	-0.935523178807947	-2.20662251655629	-0.144635761589404	0.775099337748344				0.976953642384106	0.175788079470199	0.109139072847682	1.83390728476821	2.54781456953642	3.05403973509934				-0.234172185430464	-0.00127152317880793	-0.88794701986755	0.567417218543046	0.426490066225167	-1.04026490066225				0.320529801324503	-0.240529801324503	-0.901721854304636	0.802913907284768	1.5835761589404	3.86437086092715				0.964026490066225	0.0994966887417219	0.165933774834437	-5.3682119205298	1.73192052980133	-2.01748344370861				0.255788079470199	-0.126834437086093	-0.932238410596026	-4.17960264900662	1.83761589403974	2.88529801324503			
48	1140	-0.168158940397351	0.130754966887417	-0.935523178807947	-2.48662251655629	0.135364238410596	0.775099337748344				0.992953642384106	0.175788079470199	0.0931390728476822	2.39390728476821	1.42781456953642	5.29403973509934				-0.218172185430464	-0.00127152317880793	-0.87194701986755	-0.272582781456954	-1.25350993377483	-1.60026490066225				0.320529801324503	-0.256529801324503	-0.901721854304636	15.0829139072848	-0.3764238410596	3.86437086092715				0.964026490066225	0.0994966887417219	0.149933774834437	-3.6882119205298	3.97192052980133	-2.29748344370861				0.239788079470199	-0.158834437086093	-0.964238410596026	-1.09960264900662	0.437615894039735	4.84529801324503			
49	1160	-0.168158940397351	0.130754966887417	-0.935523178807947	-2.48662251655629	-1.5446357615894	2.17509933774834				1.00895364238411	0.175788079470199	0.109139072847682	5.47390728476821	-9.21218543046358	8.65403973509934				-0.234172185430464	-0.00127152317880793	-0.88794701986755	1.96741721854305	-2.09350993377483	-2.72026490066225				0.288529801324503	-0.240529801324503	-0.949721854304636	14.8029139072848	-4.5764238410596	2.74437086092715				1.01202649006623	0.0834966887417219	0.117933774834437	-1.7282119205298	5.09192052980133	-1.17748344370861				0.239788079470199	-0.206834437086093	-0.964238410596026	0.580397350993377	-9.64238410596027	7.36529801324503			
50	1180	-0.200158940397351	0.114754966887417	-0.951523178807947	-0.526622516556291	-3.5046357615894	1.33509933774834				0.992953642384106	0.159788079470199	0.0771390728476822	5.47390728476821	-11.7321854304636	11.7340397350993				-0.250172185430464	0.0147284768211921	-0.88794701986755	3.08741721854305	-2.37350993377483	-3.84026490066225				0.272529801324503	-0.240529801324503	-0.933721854304636	13.9629139072848	-10.1764238410596	-0.0556291390728476				0.996026490066225	0.0834966887417219	0.133933774834437	-1.7282119205298	6.49192052980132	-0.897483443708608				0.191788079470199	-0.174834437086093	-0.980238410596026	-7.25960264900662	-7.96238410596027	9.88529801324503			
51	1200	-0.216158940397351	0.130754966887417	-0.967523178807947	-2.48662251655629	-2.9446357615894	1.61509933774834				1.05695364238411	0.191788079470199	0.0131390728476822	8.83390728476821	-11.7321854304636	10.0540397350993				-0.266172185430464	0.0147284768211921	-0.88794701986755	3.36741721854305	-0.973509933774833	-4.40026490066225				0.272529801324503	-0.288529801324503	-0.981721854304636	13.1229139072848	-15.7764238410596	-0.0556291390728476				1.02802649006623	0.0834966887417219	0.117933774834437	-4.2482119205298	7.61192052980133	0.222516556291392				0.175788079470199	-0.126834437086093	-1.01223841059603	-13.1396026490066	-3.48238410596027	11.285298013245			
52	1220	-0.216158940397351	0.114754966887417	-0.983523178807947	-4.16662251655629	-1.2646357615894	2.73509933774834				1.07295364238411	0.207788079470199	-0.00286092715231785	13.8739072847682	-17.6121854304636	8.37403973509934				-0.282172185430464	-0.00127152317880793	-0.90394701986755	5.60741721854305	-0.973509933774833	-5.24026490066225				0.304529801324503	-0.320529801324503	-0.997721854304636	8.36291390728477	-11.0164238410596	-2.01562913907285				1.07602649006623	0.0834966887417219	0.0859337748344371	-3.6882119205298	9.01192052980133	-0.337483443708608				0.191788079470199	-0.158834437086093	-1.07623841059603	-5.85960264900662	-7.68238410596027	15.205298013245			
53	1240	-0.216158940397351	0.0987549668874172	-0.951523178807947	-5.84662251655629	-0.704635761589404	3.29509933774834				1.12095364238411	0.191788079470199	-0.0188609271523178	13.8739072847682	-31.6121854304636	8.37403973509934				-0.282172185430464	-0.0172715231788079	-0.88794701986755	6.44741721854305	-0.413509933774833	-7.76026490066225				0.272529801324503	-0.288529801324503	-1.02972185430464	11.4429139072848	-8.7764238410596	-5.93562913907285				1.10802649006623	0.0994966887417219	0.0699337748344371	-0.608211920529802	7.89192052980133	-0.617483443708608				0.143788079470199	-0.206834437086093	-1.01223841059603	-1.65960264900662	-11.3223841059603	23.885298013245			
54	1260	-0.232158940397351	0.0827549668874172	-0.919523178807947	-3.32662251655629	-2.3846357615894	3.01509933774834				1.18495364238411	0.255788079470199	-0.130860927152318	16.9539072847682	-51.7721854304636	5.01403973509934				-0.266172185430464	0.0147284768211921	-0.85594701986755	5.04741721854305	0.146490066225167	-10.0002649006623				0.224529801324503	-0.224529801324503	-1.01372185430464	10.6029139072848	-6.8164238410596	-11.5356291390728				1.14002649006623	0.0834966887417219	0.0219337748344371	1.3517880794702	3.13192052980133	0.782516556291392				0.0637880794701987	-0.190834437086093	-0.964238410596026	-12.8596026490066	3.23761589403974	31.165298013245			
55	1280	-0.264158940397351	0.0987549668874172	-0.951523178807947	-11.7266225165563	-1.5446357615894	3.57509933774835				1.08895364238411	0.207788079470199	-0.210860927152318	16.3939072847682	-58.2121854304636	6.69403973509934				-0.298172185430464	0.0307284768211921	-0.88794701986755	8.12741721854305	-1.25350993377483	-9.44026490066225				0.224529801324503	-0.256529801324503	-1.01372185430464	6.96291390728477	-6.5364238410596	-16.0156291390729				1.12402649006623	0.115496688741722	0.00593377483443711	1.9117880794702	-1.90807947019868	1.34251655629139				0.0637880794701987	-0.142834437086093	-0.996238410596026	-22.6596026490066	14.9976158940397	34.525298013245			
56	1300	-0.280158940397351	0.130754966887417	-0.951523178807947	-16.4866225165563	-0.424635761589404	5.81509933774834				0.976953642384106	0.191788079470199	-0.226860927152318	0.433907284768212	-42.8121854304636	4.73403973509934				-0.314172185430464	0.0147284768211921	-0.90394701986755	14.007417218543	-0.693509933774834	-8.60026490066225				0.240529801324503	-0.288529801324503	-1.02972185430464	-0.0370860927152318	-7.3764238410596	-22.1756291390729				1.09202649006623	0.115496688741722	0.0219337748344371	4.4317880794702	-10.0280794701987	1.34251655629139				0.0317880794701987	-0.126834437086093	-1.01223841059603	-13.6996026490066	18.6376158940397	38.445298013245			
57	1320	-0.296158940397351	0.130754966887417	-0.935523178807947	-12.5666225165563	1.8153642384106	6.65509933774834				1.12095364238411	0.239788079470199	-0.114860927152318	-8.52609271523179	-62.9721854304636	1.65403973509934				-0.330172185430464	-0.0492715231788079	-0.90394701986755	17.3674172185431	2.66649006622517	-10.8402649006623				0.192529801324503	-0.304529801324503	-1.01372185430464	-7.31708609271523	-6.8164238410596	-29.1756291390729				1.06002649006623	0.131496688741722	-0.0260662251655629	2.4717880794702	-15.3480794701987	1.34251655629139				0.0477880794701987	-0.110834437086093	-1.01223841059603	-14.5396026490066	26.7576158940397	46.565298013245			
58	1340	-0.296158940397351	0.130754966887417	-0.983523178807947	-15.3666225165563	5.7353642384106	6.93509933774835				1.08895364238411	0.335788079470199	-0.258860927152318	4.63390728476821	-117.292185430464	-6.18596026490066				-0.330172185430464	-0.0332715231788079	-0.90394701986755	13.727417218543	1.82649006622517	-11.1202649006623				0.128529801324503	-0.288529801324503	-0.981721854304636	-18.5170860927152	-4.5764238410596	-38.1356291390729				1.01202649006623	0.131496688741722	-0.0900662251655629	4.7117880794702	-11.1480794701987	2.74251655629139				0.0317880794701987	-0.0628344370860927	-0.948238410596026	-16.7796026490066	26.1976158940397	60.285298013245			
59	1360	-0.280158940397351	0.114754966887417	-0.935523178807947	-20.6866225165563	2.6553642384106	7.49509933774834				0.672953642384106	0.143788079470199	-0.354860927152318	18.0739072847682	-73.8921854304636	15.6540397350993				-0.346172185430464	-0.00127152317880793	-0.88794701986755	10.087417218543	0.426490066225167	-9.44026490066225				0.0965298013245033	-0.288529801324503	-0.933721854304636	-22.9970860927152	-2.3364238410596	-43.7356291390728				0.980026490066225	0.115496688741722	-0.0900662251655629	7.5117880794702	2.29192052980133	1.62251655629139				-0.0322119205298013	-0.0788344370860927	-0.964238410596026	-15.6596026490066	23.9576158940397	66.725298013245			
60	1380	-0.312158940397351	0.162754966887417	-0.903523178807947	-24.3266225165563	3.7753642384106	7.21509933774835				0.736953642384106	0.0957880794701987	-0.130860927152318	-3.20609271523179	-0.252185430463576	22.6540397350993				-0.362172185430464	-0.0172715231788079	-0.83994701986755	18.487417218543	5.46649006622517	-8.88026490066225				0.0645298013245033	-0.272529801324503	-0.917721854304636	-21.8770860927152	3.2635761589404	-48.4956291390729				0.964026490066225	0.0194966887417219	-0.0900662251655629	10.8717880794702	-0.228079470198675	3.02251655629139				-0.0322119205298013	-0.0948344370860927	-0.996238410596026	-15.0996026490066	27.5976158940397	71.205298013245			
61	1400	-0.296158940397351	0.194754966887417	-0.887523178807947	-27.6866225165563	5.1753642384106	7.77509933774834				0.816953642384106	0.207788079470199	-0.210860927152318	-0.126092715231788	15.1478145695364	22.9340397350993				-0.314172185430464	-0.0492715231788079	-0.87194701986755	28.287417218543	0.426490066225167	-8.32026490066225				0.0805298013245033	-0.272529801324503	-0.853721854304636	-18.2370860927152	10.5435761589404	-48.7756291390729				0.948026490066225	0.0514966887417219	-0.122066225165563	5.8317880794702	-7.50807947019868	3.02251655629139				-0.000211920529801336	-0.110834437086093	-0.996238410596026	1.14039735099338	30.1176158940397	77.365298013245			
62	1420	-0.232158940397351	0.194754966887417	-0.887523178807947	-20.6866225165563	3.2153642384106	7.49509933774834				0.896953642384106	0.159788079470199	-0.258860927152318	16.6739072847682	47.6278145695364	19.2940397350993				-0.298172185430464	-0.0652715231788079	-0.83994701986755	24.647417218543	3.50649006622517	-6.36026490066225				0.0325298013245033	-0.288529801324503	-0.853721854304636	-9.83708609271523	14.7435761589404	-46.5356291390729				0.932026490066225	0.0674966887417219	-0.170066225165563	4.1517880794702	-5.26807947019868	1.90251655629139				0.0637880794701987	-0.0468344370860927	-0.916238410596027	-4.45960264900662	31.2376158940397	84.085298013245			
63	1440	-0.232158940397351	0.226754966887417	-0.951523178807947	-22.9266225165563	6.0153642384106	7.77509933774834				0.864953642384106	0.0957880794701987	-0.178860927152318	5.47390728476821	54.6278145695364	18.1740397350993				-0.314172185430464	-0.0812715231788079	-0.90394701986755	23.247417218543	5.18649006622517	-4.12026490066225				0.0325298013245033	-0.256529801324503	-0.853721854304636	3.04291390728477	20.0635761589404	-40.3756291390728				0.868026490066225	0.0354966887417219	-0.0900662251655629	6.3917880794702	10.4119205298013	2.18251655629139				0.0957880794701987	0.0331655629139073	-0.996238410596026	-14.5396026490066	35.9976158940397	81.285298013245			
64	1460	-0.216158940397351	0.242754966887417	-0.951523178807947	-27.9666225165563	9.0953642384106	11.6950993377483				0.720953642384106	0.0637880794701987	-0.130860927152318	-4.04609271523179	72.2678145695364	17.0540397350993				-0.282172185430464	-0.0652715231788079	-0.88794701986755	33.327417218543	6.86649006622517	-2.44026490066225				0.208529801324503	-0.304529801324503	-0.805721854304636	16.4829139072848	25.6635761589404	-32.2556291390729				0.836026490066225	0.0354966887417219	0.0539337748344371	11.7117880794702	17.1319205298013	5.82251655629139				0.191788079470199	0.0171655629139073	-1.02823841059603	8.42039735099338	33.4776158940397	76.805298013245			
65	1480	-0.168158940397351	0.194754966887417	-0.967523178807947	-27.1266225165563	10.2153642384106	13.9350993377483				0.880953642384106	0.0157880794701987	-0.0188609271523178	2.39390728476821	98.8678145695364	19.2940397350993				-0.234172185430464	-0.0652715231788079	-0.85594701986755	35.8474172185431	10.2264900662252	-1.32026490066225				0.576529801324503	-0.336529801324503	-0.821721854304636	27.9629139072848	27.0635761589404	-19.9356291390729				0.884026490066225	0.0834966887417219	0.0699337748344371	17.0317880794702	20.7719205298013	8.06251655629139				0.239788079470199	-0.0628344370860927	-1.02823841059603	39.5003973509934	25.6376158940397	77.085298013245			
66	1500	-0.248158940397351	0.226754966887417	-0.999523178807947	-25.7266225165563	9.3753642384106	13.3750993377483				1.02495364238411	-0.000211920529801304	0.125139072847682	1.27390728476821	115.107814569536	13.1340397350993				-0.266172185430464	-0.129271523178808	-0.96794701986755	23.5274172185431	10.2264900662252	0.63973509933775				0.992529801324503	-0.256529801324503	-0.901721854304636	33.2829139072848	15.3035761589404	-1.73562913907285				0.948026490066225	0.115496688741722	0.213933774834437	33.5517880794702	25.5319205298013	12.8225165562914				0.303788079470199	-0.222834437086093	-1.01223841059603	50.9803973509934	22.2776158940397	81.845298013245			
67	1520	-0.184158940397351	0.242754966887417	-0.967523178807947	-25.4466225165563	13.8553642384106	13.9350993377483				0.896953642384106	0.0957880794701987	0.205139072847682	2.95390728476821	108.947814569536	13.9740397350993				-0.250172185430464	-0.145271523178808	-1.01594701986755	14.567417218543	7.98649006622517	0.35973509933775				0.816529801324503	-0.288529801324503	-1.01372185430464	27.9629139072848	-9.8964238410596	3.86437086092715				1.01202649006623	0.147496688741722	0.325933774834437	50.3517880794702	15.7319205298013	17.0225165562914				0.367788079470199	-0.318834437086093	-1.02823841059603	51.2603973509934	16.1176158940397	95.005298013245			
68	1540	-0.168158940397351	0.178754966887417	-0.951523178807947	-18.7266225165563	17.2153642384106	16.4550993377483				0.960953642384106	0.111788079470199	0.157139072847682	-0.406092715231788	105.307814569536	10.8940397350993				-0.202172185430464	-0.145271523178808	-0.83994701986755	13.167417218543	6.86649006622517	-1.32026490066225				0.288529801324503	-0.368529801324503	-1.12572185430464	-16.8370860927152	-35.0964238410596	-8.45562913907285				0.996026490066225	0.0354966887417219	0.357933774834437	60.9917880794702	8.73192052980133	17.5825165562914				0.223788079470199	-0.286834437086093	-0.900238410596026	29.4203973509934	13.8776158940397	101.445298013245			
69	1560	-0.216158940397351	0.194754966887417	-0.999523178807947	-22.3666225165563	21.9753642384106	19.8150993377483				1.04095364238411	-0.0802119205298013	0.285139072847682	-0.406092715231788	126.307814569536	11.1740397350993				-0.202172185430464	-0.145271523178808	-0.90394701986755	25.767417218543	0.426490066225167	-7.76026490066225				0.0805298013245033	-0.480529801324503	-1.04572185430464	-38.6770860927152	-38.1764238410596	-23.5756291390728				0.964026490066225	-0.0925033112582781	0.293933774834437	66.8717880794702	19.9319205298013	14.2225165562914				0.0797880794701987	-0.0948344370860927	-0.804238410596027	-22.9396026490066	35.1576158940397	86.885298013245			
70	1580	-0.200158940397351	0.242754966887417	-0.999523178807947	-30.4866225165563	27.2953642384106	22.3350993377483				0.992953642384106	-0.320211920529801	0.557139072847682	-7.68609271523179	140.307814569536	14.2540397350993				-0.202172185430464	-0.209271523178808	-0.88794701986755	26.0474172185431	13.5864900662252	-5.24026490066225				0.0325298013245033	-0.432529801324503	-0.885721854304636	-61.3570860927152	-30.8964238410596	-27.4956291390729				0.964026490066225	-0.188503311258278	0.229933774834437	64.0717880794702	40.3719205298013	5.82251655629139				0.287788079470199	-0.0308344370860927	-0.884238410596026	-17.6196026490066	49.4376158940397	62.525298013245			
71	1600	-0.152158940397351	0.242754966887417	-1.06352317880795	-24.8866225165563	29.5353642384106	23.7350993377483				1.07295364238411	0.0157880794701987	0.461139072847682	-16.9260927152318	112.587814569536	-6.18596026490066				-0.218172185430464	-0.225271523178808	-1.01594701986755	8.12741721854305	14.4264900662252	-2.16026490066225				0.256529801324503	-0.176529801324503	-0.709721854304636	-80.3970860927152	-24.7364238410596	-14.3356291390729				0.868026490066225	-0.108503311258278	0.325933774834437	57.0717880794702	46.2519205298013	0.222516556291392				0.383788079470199	-0.222834437086093	-0.948238410596026	68.0603973509934	27.5976158940397	36.485298013245			
72	1620	-0.136158940397351	0.290754966887417	-0.919523178807947	-32.7266225165563	36.5353642384106	26.5350993377483				1.08895364238411	0.335788079470199	0.189139072847682	7.15390728476821	85.7078145695364	-8.14596026490066				-0.298172185430464	-0.241271523178808	-0.91994701986755	16.247417218543	21.4264900662252	-5.80026490066225				0.224529801324503	-0.0165298013245033	-0.725721854304636	-45.3970860927152	-16.6164238410596	-0.0556291390728476				0.900026490066225	0.131496688741722	0.389933774834437	40.8317880794702	46.2519205298013	3.58251655629139				0.335788079470199	-0.446834437086093	-0.884238410596026	80.9403973509934	16.9576158940397	24.445298013245			
73	1640	-0.088158940397351	0.354754966887417	-0.983523178807947	-34.4066225165563	38.2153642384106	29.0550993377483				1.05695364238411	0.207788079470199	0.413139072847682	19.4739072847682	104.187814569536	4.17403973509934				-0.362172185430464	-0.177271523178808	-0.90394701986755	9.24741721854305	24.2264900662252	-2.16026490066225				0.192529801324503	0.0154701986754967	-0.869721854304636	24.6029139072848	24.2635761589404	15.6243708609272				1.02802649006623	0.195496688741722	0.293933774834437	31.3117880794702	42.6119205298013	1.34251655629139				0.351788079470199	-0.462834437086093	-0.788238410596027	36.7003973509934	41.5976158940397	25.845298013245			
74	1660	-0.184158940397351	0.370754966887417	-0.999523178807947	-25.4466225165563	41.8553642384106	33.5350993377483				0.992953642384106	-0.0962119205298013	0.717139072847682	12.7539072847682	121.547814569536	12.2940397350993				-0.394172185430464	-0.209271523178808	-0.99994701986755	11.767417218543	36.5464900662252	2.03973509933775				0.320529801324503	-0.0805298013245033	-0.869721854304636	40.2829139072848	63.1835761589404	16.1843708609272				0.980026490066225	0.179496688741722	0.341933774834437	45.8717880794702	45.6919205298013	4.14251655629139				0.495788079470199	-0.430834437086093	-0.868238410596026	-2.21960264900662	65.3976158940397	26.405298013245			
75	1680	-0.200158940397351	0.338754966887417	-0.935523178807947	-22.0866225165563	42.9753642384106	32.1350993377484				1.00895364238411	0.0317880794701987	0.685139072847682	7.15390728476821	118.187814569536	-0.0259602649006601				-0.282172185430464	-0.257271523178808	-0.98394701986755	-5.03258278145695	40.1864900662252	-1.32026490066225				0.496529801324503	-0.160529801324503	-0.997721854304636	31.0429139072848	61.7835761589404	20.3843708609272				0.996026490066225	0.0994966887417219	0.421933774834437	46.9917880794702	56.6119205298013	1.06251655629139				0.607788079470199	-0.510834437086093	-0.836238410596026	10.9403973509934	42.7176158940397	21.085298013245			
76	1700	-0.120158940397351	0.338754966887417	-0.887523178807947	-20.1266225165563	51.3753642384106	27.0950993377483				1.07295364238411	0.207788079470199	0.637139072847682	-4.60609271523179	102.227814569536	-5.06596026490066				-0.234172185430464	-0.0972715231788079	-1.03194701986755	-0.832582781456954	45.5064900662252	-10.8402649006623				0.496529801324503	-0.256529801324503	-1.02972185430464	4.16291390728477	45.5435761589404	24.0243708609272				1.01202649006623	0.0674966887417219	0.549933774834437	37.4717880794702	62.4919205298013	-4.53748344370861				0.479788079470199	-0.510834437086093	-0.660238410596027	35.8603973509934	2.67761589403974	8.48529801324503			
77	1720	-0.136158940397351	0.354754966887417	-0.983523178807947	-26.5666225165563	55.8553642384106	24.0150993377483				1.21695364238411	0.0957880794701987	0.701139072847682	-21.9660927152318	77.3078145695364	1.93403973509934				-0.266172185430464	-0.0172715231788079	-1.01594701986755	6.16741721854305	51.1064900662252	-18.1202649006623				0.496529801324503	-0.176529801324503	-1.17372185430464	-32.7970860927152	28.1835761589404	13.6643708609272				1.09202649006623	0.0994966887417219	0.677933774834437	6.9517880794702	56.8919205298013	-18.2574834437086				0.527788079470199	-0.510834437086093	-0.660238410596027	16.8203973509934	18.3576158940397	-12.234701986755			
78	1740	-0.088158940397351	0.498754966887417	-1.04752317880795	-27.1266225165563	62.5753642384106	25.9750993377483				1.18495364238411	0.0637880794701987	0.829139072847682	-26.1660927152318	54.3478145695364	5.85403973509934				-0.346172185430464	-0.145271523178808	-1.03194701986755	4.20741721854305	56.4264900662252	-22.3202649006623				0.608529801324503	-0.112529801324503	-1.17372185430464	-34.4770860927152	29.0235761589404	8.06437086092715				1.12402649006623	0.179496688741722	0.677933774834437	-12.9282119205298	52.1319205298013	-23.5774834437086				0.703788079470199	-0.734834437086093	-0.836238410596026	29.1403973509934	15.5576158940397	-18.394701986755			
79	1760	-0.008158940397351	0.546754966887417	-0.999523178807947	3.67337748344371	69.2953642384106	27.0950993377483				1.00895364238411	0.143788079470199	0.877139072847682	0.713907284768212	37.8278145695364	1.09403973509934				-0.298172185430464	-0.0812715231788079	-1.04794701986755	-5.87258278145695	63.9864900662252	-23.7202649006623				0.592529801324503	-0.112529801324503	-1.10972185430464	-21.0370860927152	31.2635761589404	10.3043708609272				1.14002649006623	0.243496688741722	0.565933774834437	-16.5682119205298	40.3719205298013	-24.4174834437086				0.687788079470199	-0.782834437086093	-0.916238410596027	27.7403973509934	6.59761589403974	-16.154701986755			
80	1780	0.119841059602649	0.370754966887417	-0.919523178807947	12.3533774834437	76.2953642384106	24.2950993377483				1.13695364238411	0.175788079470199	0.637139072847682	9.39390728476821	18.7878145695364	-1.98596026490066				-0.0421721854304636	-0.0172715231788079	-1.03194701986755	1.12741721854305	70.4264900662252	-26.8002649006623				0.576529801324503	-0.0645298013245033	-0.997721854304636	-28.3170860927152	26.2235761589404	2.46437086092715				1.15602649006623	0.243496688741722	0.517933774834437	-9.2882119205298	44.0119205298013	-24.1374834437086				0.575788079470199	-0.606834437086093	-0.916238410596027	15.1403973509934	10.5176158940397	-16.434701986755			
81	1800	0.087841059602649	0.386754966887417	-1.07952317880795	4.23337748344371	79.9353642384106	24.8550993377483				1.26495364238411	0.127788079470199	0.685139072847682	-3.48609271523179	34.1878145695364	-1.42596026490066				-0.0421721854304636	-0.129271523178808	-1.09594701986755	8.40741721854305	74.9064900662252	-35.2002649006623				0.752529801324503	-0.000529801324503289	-1.02972185430464	-22.1570860927152	28.4635761589404	12.5443708609272				1.26802649006623	0.243496688741722	0.629933774834437	-8.4482119205298	54.9319205298013	-21.6174834437086				0.543788079470199	-0.526834437086093	-0.868238410596026	8.14039735099338	38.2376158940397	-13.634701986755			
82	1820	0.119841059602649	0.418754966887417	-1.06352317880795	0.313377483443709	90.8553642384106	29.3350993377483				1.21695364238411	0.0797880794701987	0.877139072847682	-16.9260927152318	30.8278145695364	1.37403973509934				-0.0261721854304636	-0.145271523178808	-1.07994701986755	4.48741721854305	83.5864900662252	-39.1202649006623				0.720529801324503	-0.0805298013245033	-1.07772185430464	-7.03708609271523	47.5035761589404	26.5443708609272				1.26802649006623	0.243496688741722	0.741933774834437	-9.2882119205298	42.8919205298013	-19.9374834437086				0.591788079470199	-0.558834437086093	-0.964238410596026	19.6203973509934	47.7576158940397	-11.674701986755			
83	1840	0.103841059602649	0.482754966887417	-1.06352317880795	1.71337748344371	101.775364238411	30.1750993377483				1.26495364238411	0.0797880794701987	0.829139072847682	4.35390728476821	15.1478145695364	3.33403973509934				-0.0101721854304636	-0.209271523178808	-1.09594701986755	7.56741721854305	95.3464900662252	-38.5602649006623				0.688529801324503	-0.144529801324503	-1.14172185430464	11.7229139072848	67.1035761589404	19.2643708609272				1.26802649006623	0.227496688741722	0.613933774834437	-22.1682119205298	29.7319205298013	-19.3774834437086				0.639788079470199	-0.590834437086093	-1.06023841059603	16.2603973509934	44.6776158940397	-12.514701986755			
84	1860	0.119841059602649	0.514754966887417	-1.01552317880795	19.3533774834437	112.415364238411	29.3350993377483				1.07295364238411	0.0477880794701987	0.829139072847682	-3.76609271523179	-1.37218543046358	-5.06596026490066				0.0378278145695364	-0.273271523178808	-1.07994701986755	-4.47258278145695	108.226490066225	-35.7602649006623				0.704529801324503	-0.144529801324503	-1.06172185430464	20.6829139072848	76.3435761589404	11.7043708609272				1.12402649006623	0.227496688741722	0.597933774834437	-13.7682119205298	29.4519205298013	-14.8974834437086				0.623788079470199	-0.622834437086093	-0.932238410596026	20.1803973509934	55.3176158940397	-8.31470198675497			
85	1880	0.263841059602649	0.418754966887417	-0.967523178807947	32.5133774834437	119.415364238411	29.8950993377483				1.02495364238411	0.0957880794701987	0.749139072847682	-4.88609271523179	3.94781456953642	-6.46596026490066				0.133827814569536	-0.241271523178808	-0.98394701986755	-25.472582781457	120.266490066225	-29.6002649006623				0.752529801324503	-0.112529801324503	-1.04572185430464	15.0829139072848	70.7435761589404	10.8643708609272				1.07602649006623	0.227496688741722	0.677933774834437	-16.8482119205298	33.9319205298013	-14.6174834437086				0.607788079470199	-0.574834437086093	-0.804238410596027	10.1003973509934	72.1176158940397	-5.51470198675497			
86	1900	0.359841059602649	0.306754966887417	-0.951523178807947	28.0333774834437	124.735364238411	30.1750993377483				1.26495364238411	0.0957880794701987	0.781139072847682	-16.9260927152318	28.3078145695364	-5.34596026490066				0.229827814569536	-0.161271523178808	-0.95194701986755	-25.192582781457	128.666490066225	-22.6002649006623				0.816529801324503	-0.112529801324503	-1.04572185430464	3.60291390728477	65.4235761589404	7.22437086092715				1.14002649006623	0.243496688741722	0.757933774834437	-19.6482119205298	34.4919205298013	-14.8974834437086				0.623788079470199	-0.590834437086093	-0.772238410596026	1.14039735099338	79.9576158940397	-2.99470198675497			
87	1920	0.375841059602649	0.290754966887417	-0.935523178807947	19.0733774834437	130.615364238411	32.4150993377484				1.26495364238411	0.0157880794701987	0.941139072847682	-23.0860927152318	17.9478145695364	-0.585960264900661				0.309827814569536	-0.161271523178808	-0.95194701986755	-12.592582781457	132.026490066225	-17.5602649006623				0.896529801324503	-0.160529801324503	-1.04572185430464	1.36291390728477	65.7035761589404	6.10437086092715				1.12402649006623	0.227496688741722	0.757933774834437	-19.9282119205298	28.6119205298013	-15.1774834437086				0.655788079470199	-0.606834437086093	-0.740238410596026	2.26039735099338	87.5176158940398	-1.59470198675497			
88	1940	0.407841059602649	0.242754966887417	-0.887523178807947	17.9533774834437	139.015364238411	31.0150993377483				1.12095364238411	0.143788079470199	0.813139072847682	-1.52609271523179	-20.9721854304636	-7.02596026490066				0.341827814569536	-0.193271523178808	-0.91994701986755	-10.632582781457	134.266490066225	-14.2002649006623				0.896529801324503	-0.192529801324503	-0.965721854304636	-4.23708609271523	69.6235761589404	5.54437086092715				1.14002649006623	0.227496688741722	0.629933774834437	-22.1682119205298	22.4519205298013	-14.3374834437086				0.703788079470199	-0.526834437086093	-0.660238410596027	0.580397350993377	104.03761589404	-2.71470198675497			
89	1960	0	0	0	0	0	0				0	0	0	0	0	0				0	0	0	0	0	0				0.768529801324503	-0.112529801324503	-0.821721854304636	-7.31708609271523	72.7035761589404	-0.615629139072848				1.07602649006623	0.243496688741722	0.565933774834437	-26.3682119205298	10.6919205298013	-13.7774834437086				0.719788079470199	-0.478834437086093	-0.612238410596026	13.1803973509934	118.03761589404	-5.51470198675497			
90	2080	0.439841059602649	0.162754966887417	-0.535523178807947	11.7933774834437	161.695364238411	33.5350993377483				0.672953642384106	0.0637880794701987	0.189139072847682	5.75390728476821	-71.0921854304636	-0.585960264900661				0.341827814569536	0.0627284768211921	-0.59994701986755	-15.112582781457	159.466490066225	-7.48026490066225				0.576529801324503	-0.176529801324503	-0.517721854304636	26.8429139072848	42.7435761589404	22.9043708609272				0.692026490066225	0.131496688741722	0.373933774834437	-27.2082119205298	-52.5880794701987	-0.337483443708608				0.687788079470199	-0.334834437086093	-0.404238410596026	-45.8996026490066	111.59761589404	-18.114701986755			
91	2100	0.487841059602649	0.162754966887417	-0.455523178807947	20.7533774834437	163.095364238411	29.0550993377483				0.640953642384106	0.143788079470199	0.269139072847682	-14.6860927152318	-59.6121854304636	1.93403973509934				0.421827814569536	0.0307284768211921	-0.51994701986755	-12.312582781457	156.666490066225	-6.08026490066225				0.576529801324503	-0.176529801324503	-0.485721854304636	30.2029139072848	48.9035761589404	23.4643708609272				0.644026490066225	0.131496688741722	0.325933774834437	-23.2882119205298	-59.0280794701987	1.90251655629139				0.719788079470199	-0.350834437086093	-0.388238410596026	-43.6596026490066	92.2776158940397	-20.354701986755			
92	2120	0.583841059602649	0.114754966887417	-0.455523178807947	17.9533774834437	167.575364238411	28.7750993377483				0.672953642384106	0.0477880794701987	0.301139072847682	-8.80609271523179	-63.5321854304636	1.37403973509934				0.517827814569536	0.0467284768211921	-0.55194701986755	-10.912582781457	158.626490066225	-8.60026490066225				0.576529801324503	-0.176529801324503	-0.469721854304636	36.9229139072848	37.7035761589404	24.3043708609272				0.676026490066225	0.0834966887417219	0.309933774834437	-7.0482119205298	-56.5080794701987	0.502516556291392				0.671788079470199	-0.334834437086093	-0.340238410596026	-48.1396026490066	68.7576158940397	-22.874701986755			
93	2140	0.711841059602649	0.0987549668874172	-0.471523178807947	21.0333774834437	162.255364238411	25.9750993377483				0.640953642384106	-0.000211920529801304	0.269139072847682	6.03390728476821	-76.1321854304636	5.01403973509934				0.533827814569536	0.0627284768211921	-0.51994701986755	-14.272582781457	153.026490066225	-13.9202649006623				0.592529801324503	-0.144529801324503	-0.389721854304636	25.4429139072848	8.5835761589404	27.1043708609272				0.660026490066225	0.0194966887417219	0.341933774834437	-10.4082119205298	-69.1080794701987	0.782516556291392				0.607788079470199	-0.334834437086093	-0.356238410596026	-53.7396026490066	51.1176158940397	-25.954701986755			
94	2160	0.695841059602649	0.0827549668874172	-0.439523178807947	9.27337748344371	157.495364238411	23.1750993377483				0.624953642384106	-0.000211920529801304	0.237139072847682	-4.32609271523179	-76.6921854304636	2.21403973509934				0.565827814569536	0.142728476821192	-0.43994701986755	-19.872582781457	146.026490066225	-17.5602649006623				0.528529801324503	-0.112529801324503	-0.341721854304636	12.5629139072848	-10.7364238410596	28.5043708609272				0.612026490066225	0.0194966887417219	0.357933774834437	-20.2082119205298	-88.9880794701987	4.42251655629139				0.575788079470199	-0.350834437086093	-0.404238410596026	-68.2996026490066	37.9576158940397	-23.714701986755			
95	2180	0.647841059602649	0.114754966887417	-0.407523178807947	1.71337748344371	151.055364238411	26.5350993377483				0.608953642384106	-0.000211920529801304	0.173139072847682	-12.1660927152318	-75.0121854304636	0.25403973509934				0.645827814569536	0.174728476821192	-0.45594701986755	-4.75258278145695	146.866490066225	-23.4402649006623				0.432529801324503	-0.128529801324503	-0.357721854304636	18.7229139072848	-22.4964238410596	35.2243708609272				0.516026490066225	0.115496688741722	0.309933774834437	-28.0482119205298	-99.0680794701987	6.66251655629139				0.559788079470199	-0.286834437086093	-0.452238410596026	-74.4596026490066	20.8776158940397	-11.114701986755			
96	2200	0.631841059602649	0.0987549668874172	-0.407523178807947	1.99337748344371	151.055364238411	25.9750993377483				0.480953642384106	0.111788079470199	0.253139072847682	-6.00609271523179	-62.9721854304636	-8.70596026490066				0.597827814569536	0.0787284768211921	-0.47194701986755	8.40741721854305	140.426490066225	-30.1602649006623				0.320529801324503	-0.240529801324503	-0.389721854304636	-2.27708609271523	-35.3764238410596	32.1443708609272				0.484026490066225	0.0674966887417219	0.213933774834437	-20.2082119205298	-91.5080794701987	11.4225165562914				0.559788079470199	-0.238834437086093	-0.452238410596026	-73.0596026490066	2.67761589403974	-0.194701986754968			
97	2220	0.743841059602649	0.0667549668874172	-0.327523178807947	9.83337748344371	148.535364238411	26.5350993377483				0.400953642384106	0.159788079470199	0.349139072847682	18.6339072847682	-72.7721854304636	-17.6659602649007				0.565827814569536	-0.00127152317880793	-0.39194701986755	5.32741721854305	143.786490066225	-30.7202649006623				0.288529801324503	-0.224529801324503	-0.485721854304636	-29.4370860927152	-41.8164238410596	29.3443708609272				0.484026490066225	0.0194966887417219	0.165933774834437	-18.8082119205298	-79.7480794701987	7.22251655629139				0.511788079470199	-0.142834437086093	-0.404238410596026	-69.4196026490066	-14.6823841059603	5.40529801324503			
98	2240	0.903841059602649	0.0827549668874172	-0.263523178807947	29.9933774834437	141.815364238411	28.2150993377483				0.544953642384106	0.0637880794701987	0.0771390728476822	45.5139072847682	-76.4121854304636	-5.62596026490066				0.581827814569536	0.0147284768211921	-0.29594701986755	-10.352582781457	142.666490066225	-26.5202649006623				0.304529801324503	-0.144529801324503	-0.437721854304636	-8.15708609271523	-35.0964238410596	40.8243708609272				0.500026490066225	0.0354966887417219	0.165933774834437	-26.0882119205298	-69.3880794701987	5.82251655629139				0.479788079470199	-0.110834437086093	-0.388238410596026	-64.6596026490066	-28.4023841059603	2.60529801324503			
99	2260	0.935841059602649	0.130754966887417	-0.295523178807947	6.19337748344371	126.695364238411	32.6950993377484				0.672953642384106	-0.000211920529801304	0.173139072847682	24.7939072847682	-62.4121854304636	-9.26596026490066				0.789827814569536	-0.00127152317880793	-0.32794701986755	-15.672582781457	130.066490066225	-15.6002649006622				0.304529801324503	-0.112529801324503	-0.389721854304636	-12.3570860927152	-38.1764238410596	38.8643708609272				0.532026490066225	0.0354966887417219	0.165933774834437	-27.7682119205298	-64.6280794701987	7.22251655629139				0.431788079470199	-0.110834437086093	-0.372238410596026	-57.3796026490066	-42.1223841059603	1.48529801324503			
100	2280	0.839841059602649	0.130754966887417	-0.231523178807947	9.27337748344371	116.895364238411	32.9750993377484				0.640953642384106	0.0157880794701987	0.253139072847682	9.95390728476821	-70.5321854304636	-16.5459602649007				0.901827814569536	-0.0972715231788079	-0.32794701986755	-7.55258278145695	117.746490066225	-8.32026490066225				0.384529801324503	-0.144529801324503	-0.437721854304636	-13.7570860927152	-37.8964238410596	36.0643708609272				0.548026490066225	0.0674966887417219	0.149933774834437	-26.3682119205298	-56.5080794701987	4.70251655629139				0.431788079470199	-0.110834437086093	-0.388238410596026	-59.6196026490066	-49.6823841059603	1.48529801324503			
101	2300	0.759841059602649	0.258754966887417	-0.167523178807947	13.1933774834437	113.815364238411	31.5750993377483				0.528953642384106	0.0477880794701987	0.269139072847682	8.83390728476821	-70.2521854304636	-18.5059602649007				0.917827814569536	-0.177271523178808	-0.24794701986755	-9.23258278145695	102.906490066225	-5.52026490066225				0.496529801324503	-0.208529801324503	-0.469721854304636	-8.99708609271523	-39.2964238410596	33.2643708609272				0.628026490066225	0.0994966887417219	0.101933774834437	-26.9282119205298	-59.3080794701987	1.62251655629139				0.463788079470199	-0.0788344370860927	-0.436238410596026	-60.7396026490066	-51.6423841059603	2.60529801324503			
102	2320	0.887841059602649	0.162754966887417	-0.119523178807947	31.3933774834437	109.055364238411	19.8150993377483				0.688953642384106	0.0317880794701987	0.237139072847682	5.19390728476821	-58.2121854304636	-8.70596026490066				0.917827814569536	-0.225271523178808	-0.23194701986755	-18.472582781457	83.0264900662252	-0.20026490066225				0.480529801324503	-0.288529801324503	-0.533721854304636	-2.27708609271523	-35.3764238410596	29.3443708609272				0.708026490066225	0.0674966887417219	0.0699337748344371	-23.2882119205298	-55.6680794701987	-0.0574834437086077				0.479788079470199	-0.0308344370860927	-0.452238410596026	-49.2596026490066	-54.4423841059603	1.48529801324503			
103	2340	0.967841059602649	0.146754966887417	-0.039523178807947	38.1133774834437	98.6953642384106	7.21509933774835				0.768953642384106	0.0477880794701987	0.189139072847682	-9.64609271523179	-33.8521854304636	-9.26596026490066				0.965827814569536	-0.193271523178808	-0.13594701986755	-28.832582781457	76.0264900662252	6.79973509933775				0.448529801324503	-0.272529801324503	-0.581721854304636	-2.55708609271523	-37.6164238410596	25.7043708609272				0.724026490066225	0.0514966887417219	0.133933774834437	-23.0082119205298	-48.9480794701987	-0.617483443708608				0.511788079470199	-0.0468344370860927	-0.516238410596026	-33.2996026490066	-55.2823841059603	-1.31470198675497			
104	2360	0.999841059602649	0.0987549668874172	0.00847682119205304	29.1533774834437	84.1353642384106	6.65509933774834				0.720953642384106	0.0797880794701987	0.221139072847682	-3.76609271523179	-23.2121854304636	-8.42596026490066				0.965827814569536	-0.177271523178808	-0.11994701986755	-28.832582781457	67.6264900662252	6.23973509933775				0.512529801324503	-0.240529801324503	-0.645721854304636	-11.2370860927152	-43.7764238410596	21.5043708609272				0.772026490066225	0.0834966887417219	0.149933774834437	-18.5282119205298	-41.9480794701987	-0.337483443708608				0.607788079470199	-0.158834437086093	-0.564238410596026	-22.0996026490066	-48.8423841059603	-0.754701986754968			
105	2380	0.967841059602649	-0.0132450331125828	0.040476821192053	29.7133774834437	67.0553642384106	7.49509933774834				0.800953642384106	-0.0162119205298013	0.285139072847682	-4.04609271523179	-19.5721854304636	-7.30596026490066				0.949827814569536	-0.0812715231788079	-0.10394701986755	-40.312582781457	56.4264900662252	7.35973509933775				0.608529801324503	-0.288529801324503	-0.645721854304636	-21.8770860927152	-53.5764238410596	17.5843708609272				0.820026490066225	0.0834966887417219	0.165933774834437	-13.2082119205298	-36.6280794701987	2.74251655629139				0.703788079470199	-0.222834437086093	-0.612238410596026	-17.0596026490066	-40.4423841059603	3.16529801324503			
106	2400	0.935841059602649	-0.0932450331125828	0.088476821192053	29.7133774834437	63.9753642384106	7.77509933774834				0.880953642384106	-0.0162119205298013	0.365139072847682	-16.3660927152318	-8.93218543046358	-8.98596026490066				0.949827814569536	-0.0172715231788079	-0.0559470198675496	-43.952582781457	49.7064900662252	7.63973509933775				0.608529801324503	-0.320529801324503	-0.677721854304636	-31.6770860927152	-67.5764238410596	17.8643708609272				0.868026490066225	0.0674966887417219	0.229933774834437	-12.0882119205298	-30.4680794701987	3.58251655629139				0.783788079470199	-0.270834437086093	-0.628238410596026	-0.259602649006623	-47.1623841059603	8.48529801324503			
107	2420	0.951841059602649	-0.141245033112583	0.136476821192053	14.5933774834437	60.6153642384106	7.77509933774834				0.992953642384106	0.111788079470199	0.365139072847682	-17.7660927152318	-8.93218543046358	-12.0659602649007				1.07782781456954	0.0307284768211921	-0.0399470198675496	-41.152582781457	45.5064900662252	5.67973509933775				0.416529801324503	-0.288529801324503	-0.725721854304636	-26.6370860927152	-60.0164238410596	16.1843708609272				0.932026490066225	0.0194966887417219	0.229933774834437	-15.7282119205298	-29.0680794701987	3.30251655629139				0.735788079470199	-0.334834437086093	-0.596238410596026	-2.77960264900662	-55.8423841059603	10.165298013245			
108	2440	0.935841059602649	-0.125245033112583	0.200476821192053	-6.40662251655629	67.8953642384106	5.53509933774834				1.00895364238411	0.0477880794701987	0.253139072847682	-10.4860927152318	-25.1721854304636	-12.0659602649007				1.10982781456954	0.0467284768211921	-0.0399470198675496	-27.712582781457	34.8664900662252	2.31973509933775				0.288529801324503	-0.272529801324503	-0.661721854304636	-8.71708609271523	-47.9764238410596	18.1443708609272				0.852026490066225	0.0514966887417219	0.181933774834437	-25.8082119205298	-25.9880794701987	4.14251655629139				0.671788079470199	-0.334834437086093	-0.580238410596026	-22.6596026490066	-57.8023841059603	16.885298013245			
109	2460	0.903841059602649	-0.0612450331125828	0.344476821192053	-23.2066225165563	75.4553642384106	7.49509933774834				0.960953642384106	-0.000211920529801304	0.269139072847682	-20.8460927152318	-19.2921854304636	-7.86596026490066				0.981827814569536	0.0307284768211921	-0.0399470198675496	-18.472582781457	32.0664900662252	1.19973509933775				0.352529801324503	-0.336529801324503	-0.709721854304636	-0.877086092715232	-29.4964238410596	26.5443708609272				0.836026490066225	0.0674966887417219	0.165933774834437	-32.5282119205298	-15.9080794701987	2.74251655629139				0.607788079470199	-0.318834437086093	-0.532238410596027	-37.2196026490066	-53.8823841059603	23.885298013245			
110	2480	0.951841059602649	0.0347549668874172	0.312476821192053	-19.0066225165563	75.7353642384106	4.41509933774834				0.816953642384106	0.0797880794701987	0.445139072847682	-39.0460927152318	-9.49218543046358	-6.18596026490066				0.917827814569536	-0.0652715231788079	0.0560529801324504	-30.792582781457	33.1864900662252	5.39973509933775				0.384529801324503	-0.336529801324503	-0.709721854304636	-21.0370860927152	-9.8964238410596	25.7043708609272				0.788026490066225	0.0834966887417219	0.149933774834437	-37.0082119205298	-6.94807947019868	1.34251655629139				0.575788079470199	-0.222834437086093	-0.564238410596026	-53.1796026490066	-54.7223841059603	23.045298013245			
111	2500	1.06384105960265	0.0507549668874172	0.264476821192053	-10.8866225165563	69.0153642384106	-1.18490066225166				0.816953642384106	0.111788079470199	0.301139072847682	-28.1260927152318	-18.1721854304636	-5.90596026490066				0.917827814569536	-0.145271523178808	0.00805298013245037	-35.832582781457	33.7464900662252	8.47973509933775				0.496529801324503	-0.176529801324503	-0.661721854304636	-35.0370860927152	-2.3364238410596	17.8643708609272				0.852026490066225	0.0994966887417219	0.165933774834437	-37.2882119205298	-0.508079470198675	-0.897483443708608				0.591788079470199	-0.110834437086093	-0.580238410596026	-43.0996026490066	-49.4023841059603	23.325298013245			
112	2520	1.01584105960265	0.0507549668874172	0.184476821192053	-13.1266225165563	56.4153642384106	-5.10490066225166				0.896953642384106	0.143788079470199	0.157139072847682	-21.9660927152318	-10.8921854304636	-3.10596026490066				0.933827814569536	-0.129271523178808	0.00805298013245037	-37.512582781457	30.6664900662252	9.59973509933775				0.560529801324503	-0.112529801324503	-0.629721854304636	-26.6370860927152	1.0235761589404	9.18437086092715				0.852026490066225	0.131496688741722	0.165933774834437	-33.9282119205298	-1.06807947019868	0.222516556291392				0.591788079470199	-0.0948344370860927	-0.580238410596026	-14.2596026490066	-39.0423841059603	21.645298013245			
113	2540	1.06384105960265	0.0347549668874172	0.232476821192053	-8.08662251655629	37.0953642384106	-3.98490066225166				0.832953642384106	0.111788079470199	0.253139072847682	-21.9660927152318	3.10781456953642	3.61403973509934				0.965827814569536	-0.0492715231788079	0.0560529801324504	-35.832582781457	27.0264900662252	8.19973509933775				0.528529801324503	-0.0965298013245033	-0.629721854304636	-12.9170860927152	1.3035761589404	-1.73562913907285				0.836026490066225	0.179496688741722	0.133933774834437	-28.8882119205298	0.611920529801325	2.46251655629139				0.543788079470199	-0.110834437086093	-0.564238410596026	11.2203973509934	-29.8023841059603	15.765298013245			
114	2560	1.06384105960265	0.0987549668874172	0.136476821192053	-8.64662251655629	9.9353642384106	0.495099337748344				0.864953642384106	0.127788079470199	0.349139072847682	-20.2860927152318	7.02781456953642	2.21403973509934				1.01382781456954	0.0307284768211921	0.10405298013245	-27.712582781457	21.9864900662252	3.15973509933775				0.480529801324503	-0.160529801324503	-0.645721854304636	6.12291390728477	5.5035761589404	-3.69562913907285				0.884026490066225	0.147496688741722	0.181933774834437	-19.6482119205298	11.2519205298013	3.30251655629139				0.527788079470199	-0.126834437086093	-0.612238410596026	18.2203973509934	-19.7223841059603	12.405298013245			
115	2580	1.01584105960265	0.0667549668874172	0.120476821192053	-4.72662251655629	-6.5846357615894	2.17509933774834				0.896953642384106	0.175788079470199	0.365139072847682	-11.6060927152318	8.14781456953643	-0.30596026490066				1.06182781456954	0.0627284768211921	0.13605298013245	-4.47258278145695	13.5864900662252	1.75973509933775				0.624529801324503	-0.240529801324503	-0.693721854304636	10.0429139072848	13.6235761589404	5.26437086092715				0.916026490066225	0.147496688741722	0.197933774834437	-16.2882119205298	13.7719205298013	3.02251655629139				0.559788079470199	-0.158834437086093	-0.676238410596026	20.7403973509934	-10.4823841059603	11.285298013245			
116	2600	0.983841059602649	0.00275496688741723	0.280476821192053	13.1933774834437	-11.3446357615894	4.97509933774835				1.00895364238411	0.0637880794701987	0.285139072847682	-0.126092715231788	13.4678145695364	4.45403973509934				1.06182781456954	0.0787284768211921	0.10405298013245	23.247417218543	1.26649006622517	0.35973509933775				0.672529801324503	-0.320529801324503	-0.741721854304636	4.44291390728477	22.5835761589404	14.5043708609272				0.932026490066225	0.131496688741722	0.197933774834437	-10.9682119205298	12.6519205298013	2.46251655629139				0.591788079470199	-0.190834437086093	-0.692238410596026	22.1403973509934	-2.08238410596027	11.005298013245			
117	2620	0.919841059602649	-0.0452450331125828	0.376476821192053	16.2733774834437	-11.3446357615894	5.25509933774834				0.992953642384106	0.0477880794701987	0.253139072847682	-8.24609271523179	12.3478145695364	9.77403973509934				1.01382781456954	0.0147284768211921	0.0560529801324504	28.8474172185431	-1.25350993377483	1.47973509933775				0.640529801324503	-0.368529801324503	-0.773721854304636	-4.79708609271523	22.5835761589404	18.9843708609272				0.932026490066225	0.0674966887417219	0.229933774834437	-5.6482119205298	17.6919205298013	3.58251655629139				0.607788079470199	-0.206834437086093	-0.692238410596026	16.2603973509934	3.23761589403974	7.08529801324503			
118	2640	0.871841059602649	-0.0452450331125828	0.488476821192053	13.4733774834437	-4.3446357615894	1.89509933774834				0.976953642384106	0.0477880794701987	0.333139072847682	-16.6460927152318	16.5478145695364	12.2940397350993				0.965827814569536	-0.0652715231788079	0.0400529801324504	18.767417218543	-4.61350993377483	2.31973509933775				0.608529801324503	-0.288529801324503	-0.773721854304636	-13.1970860927152	15.8635761589404	14.5043708609272				0.948026490066225	0.0674966887417219	0.229933774834437	-4.2482119205298	20.7719205298013	3.30251655629139				0.607788079470199	-0.222834437086093	-0.724238410596026	14.8603973509934	3.51761589403974	3.16529801324503			
119	2660	0.919841059602649	-0.0292450331125828	0.536476821192053	4.79337748344371	4.8953642384106	-1.74490066225166				0.944953642384106	0.0477880794701987	0.317139072847682	-11.8860927152318	11.2278145695364	10.6140397350993				0.965827814569536	-0.113271523178808	0.00805298013245037	12.887417218543	-1.25350993377483	1.75973509933775				0.576529801324503	-0.224529801324503	-0.741721854304636	-16.2770860927152	9.7035761589404	11.1443708609272				0.948026490066225	0.0674966887417219	0.229933774834437	-2.5682119205298	21.3319205298013	2.74251655629139				0.623788079470199	-0.302834437086093	-0.708238410596026	21.5803973509934	3.51761589403974	-1.59470198675497			
120	2680	0.951841059602649	0.0347549668874172	0.424476821192053	-8.64662251655629	3.2153642384106	-3.70490066225166				0.960953642384106	0.0317880794701987	0.173139072847682	-4.04609271523179	7.58781456953643	10.3340397350993				0.965827814569536	-0.113271523178808	0.00805298013245037	7.00741721854305	0.986490066225167	0.91973509933775				0.560529801324503	-0.224529801324503	-0.709721854304636	-10.9570860927152	8.5835761589404	11.1443708609272				0.980026490066225	0.0354966887417219	0.197933774834437	-2.5682119205298	18.2519205298013	4.14251655629139				0.607788079470199	-0.366834437086093	-0.692238410596026	19.3403973509934	2.67761589403974	-3.83470198675497			
121	2700	0.951841059602649	0.0507549668874172	0.312476821192053	-13.4066225165563	2.6553642384106	-4.54490066225166				0.944953642384106	0.0637880794701987	0.157139072847682	-11.8860927152318	13.7478145695364	11.7340397350993				0.981827814569536	-0.0652715231788079	0.0400529801324504	-0.832582781456954	1.26649006622517	0.63973509933775				0.512529801324503	-0.272529801324503	-0.693721854304636	-1.99708609271523	10.8235761589404	10.0243708609272				0.964026490066225	0.0194966887417219	0.213933774834437	-4.8082119205298	15.4519205298013	4.98251655629139				0.607788079470199	-0.366834437086093	-0.708238410596026	17.6603973509934	-6.28238410596027	0.0852980132450323			
122	2720	0.951841059602649	0.0347549668874172	0.248476821192053	-16.7666225165563	5.7353642384106	-2.86490066225166				0.960953642384106	0.0637880794701987	0.221139072847682	-21.4060927152318	20.7478145695364	13.6940397350993				0.997827814569536	-0.00127152317880793	0.0560529801324504	-0.832582781456954	1.54649006622517	0.35973509933775				0.528529801324503	-0.272529801324503	-0.693721854304636	-1.43708609271523	9.4235761589404	11.1443708609272				0.916026490066225	0.0354966887417219	0.197933774834437	-6.4882119205298	14.8919205298013	4.70251655629139				0.575788079470199	-0.318834437086093	-0.708238410596026	18.2203973509934	-14.1223841059603	5.68529801324503			
123	2740	0.999841059602649	0.0347549668874172	0.200476821192053	-10.0466225165563	6.8553642384106	-0.624900662251656				0.912953642384106	0.0797880794701987	0.317139072847682	-24.2060927152318	19.9078145695364	10.6140397350993				0.981827814569536	0.0147284768211921	0.0400529801324504	3.64741721854305	-1.53350993377483	-0.20026490066225				0.592529801324503	-0.288529801324503	-0.725721854304636	-2.55708609271523	11.3835761589404	15.6243708609272				0.932026490066225	0.0514966887417219	0.213933774834437	-5.6482119205298	15.4519205298013	5.26251655629139				0.543788079470199	-0.270834437086093	-0.692238410596026	20.7403973509934	-13.5623841059603	8.20529801324503			
124	2760	1.03184105960265	0.0347549668874172	0.216476821192053	-4.72662251655629	4.6153642384106	-1.74490066225166				0.992953642384106	0.0317880794701987	0.317139072847682	-13.2860927152318	21.8678145695364	10.3340397350993				0.965827814569536	0.0307284768211921	0.00805298013245037	14.847417218543	-4.33350993377483	-0.76026490066225				0.624529801324503	-0.288529801324503	-0.725721854304636	-7.03708609271523	10.2635761589404	14.5043708609272				0.948026490066225	0.0514966887417219	0.229933774834437	2.1917880794702	17.6919205298013	5.82251655629139				0.527788079470199	-0.270834437086093	-0.708238410596026	18.5003973509934	-6.28238410596027	10.445298013245			
125	2780	1.03184105960265	0.0187549668874172	0.200476821192053	-3.88662251655629	-0.704635761589404	-3.98490066225166				1.00895364238411	0.0477880794701987	0.253139072847682	-2.08609271523179	22.9878145695364	12.8540397350993				0.965827814569536	0.0627284768211921	0.00805298013245037	22.967417218543	-2.65350993377483	-0.76026490066225				0.624529801324503	-0.304529801324503	-0.757721854304636	-8.15708609271523	8.5835761589404	14.5043708609272				0.964026490066225	0.0514966887417219	0.213933774834437	5.8317880794702	17.9719205298013	5.82251655629139				0.559788079470199	-0.366834437086093	-0.708238410596026	20.4603973509934	-2.36238410596027	11.565298013245			
126	2800	0.999841059602649	0.0347549668874172	0.152476821192053	-5.84662251655629	-9.1046357615894	-5.10490066225166				0.944953642384106	0.0637880794701987	0.221139072847682	-3.48609271523179	14.8678145695364	10.8940397350993				0.981827814569536	0.0307284768211921	-0.00794701986754963	18.487417218543	0.986490066225167	-0.48026490066225				0.592529801324503	-0.336529801324503	-0.757721854304636	-10.6770860927152	4.1035761589404	11.4243708609272				0.948026490066225	0.0354966887417219	0.245933774834437	3.3117880794702	17.9719205298013	5.82251655629139				0.575788079470199	-0.366834437086093	-0.708238410596026	12.3403973509934	-2.92238410596027	12.405298013245			
127	2820	0.983841059602649	0.0187549668874172	0.120476821192053	-6.96662251655629	-14.7046357615894	-3.70490066225166				0.912953642384106	0.0317880794701987	0.205139072847682	-6.84609271523179	20.1878145695364	8.65403973509934				0.981827814569536	-0.0332715231788079	-0.0399470198675496	10.367417218543	3.22649006622517	-1.32026490066225				0.560529801324503	-0.288529801324503	-0.741721854304636	-12.3570860927152	-0.3764238410596	6.94437086092715				0.980026490066225	0.00349668874172187	0.245933774834437	4.9917880794702	17.4119205298013	4.14251655629139				0.575788079470199	-0.350834437086093	-0.724238410596026	10.3803973509934	-6.28238410596027	12.405298013245			
128	2840	0.967841059602649	0.00275496688741723	0.152476821192053	-5.28662251655629	-12.7446357615894	-2.58490066225166				0.992953642384106	0.0317880794701987	0.285139072847682	-7.96609271523179	26.9078145695364	8.09403973509934				0.997827814569536	-0.0492715231788079	-0.0559470198675496	10.927417218543	4.06649006622517	-0.48026490066225				0.544529801324503	-0.272529801324503	-0.709721854304636	-3.11708609271523	2.1435761589404	6.66437086092715				0.980026490066225	0.0354966887417219	0.229933774834437	4.4317880794702	12.9319205298013	3.58251655629139				0.543788079470199	-0.318834437086093	-0.692238410596026	10.9403973509934	-7.40238410596027	11.565298013245			
129	2860	0.983841059602649	0.00275496688741723	0.184476821192053	-1.36662251655629	-7.9846357615894	-3.14490066225166				1.04095364238411	0.0157880794701987	0.301139072847682	-9.36609271523179	20.1878145695364	9.21403973509934				0.997827814569536	-0.0652715231788079	-0.0559470198675496	10.087417218543	6.58649006622517	-1.32026490066225				0.512529801324503	-0.288529801324503	-0.709721854304636	3.60291390728477	4.6635761589404	10.3043708609272				0.948026490066225	0.00349668874172187	0.245933774834437	4.7117880794702	15.4519205298013	2.74251655629139				0.527788079470199	-0.334834437086093	-0.676238410596026	14.8603973509934	-5.16238410596027	7.64529801324503			
130	2880	0.951841059602649	-0.0132450331125828	0.184476821192053	-4.44662251655629	-5.1846357615894	-3.42490066225166				0.992953642384106	-0.000211920529801304	0.269139072847682	-8.80609271523179	13.7478145695364	8.65403973509934				0.965827814569536	-0.0652715231788079	-0.0719470198675496	4.20741721854305	7.98649006622517	-0.20026490066225				0.528529801324503	-0.304529801324503	-0.725721854304636	6.68291390728477	7.4635761589404	11.4243708609272				0.948026490066225	-0.0125033112582781	0.261933774834437	1.6317880794702	14.8919205298013	3.02251655629139				0.543788079470199	-0.334834437086093	-0.708238410596026	13.1803973509934	-3.76238410596027	6.52529801324503			
131	2900	0.935841059602649	-0.0132450331125828	0.168476821192053	-9.76662251655629	-2.3846357615894	-3.70490066225166				0.960953642384106	0.0317880794701987	0.237139072847682	-13.8460927152318	11.7878145695364	5.85403973509934				0.981827814569536	-0.0172715231788079	-0.0399470198675496	-7.55258278145695	11.3464900662252	0.63973509933775				0.576529801324503	-0.320529801324503	-0.741721854304636	-2.27708609271523	2.7035761589404	4.98437086092715				0.964026490066225	0.0194966887417219	0.261933774834437	-1.7282119205298	15.4519205298013	2.46251655629139				0.543788079470199	-0.350834437086093	-0.708238410596026	12.6203973509934	-4.04238410596027	4.84529801324503			
132	2920	0.967841059602649	0.0347549668874172	0.136476821192053	-10.8866225165563	1.5353642384106	-3.42490066225166				0.960953642384106	0.0477880794701987	0.269139072847682	-14.6860927152318	11.7878145695364	2.49403973509934				0.981827814569536	-0.0172715231788079	-0.0719470198675496	-11.752582781457	10.5064900662252	0.63973509933775				0.576529801324503	-0.288529801324503	-0.757721854304636	-5.35708609271523	-0.6564238410596	3.30437086092715				0.964026490066225	0.0514966887417219	0.229933774834437	-2.5682119205298	14.3319205298013	1.90251655629139				0.559788079470199	-0.382834437086093	-0.676238410596026	12.6203973509934	-2.36238410596027	2.32529801324503			
133	2940	0.983841059602649	0.0187549668874172	0.152476821192053	-10.6066225165563	2.3753642384106	-2.86490066225166				1.00895364238411	0.0317880794701987	0.253139072847682	-6.28609271523179	12.0678145695364	3.89403973509934				1.01382781456954	0.0147284768211921	-0.0399470198675496	-7.27258278145696	7.98649006622517	0.63973509933775				0.576529801324503	-0.304529801324503	-0.741721854304636	-3.11708609271523	2.1435761589404	2.46437086092715				0.996026490066225	0.0354966887417219	0.261933774834437	4.7117880794702	10.6919205298013	3.58251655629139				0.559788079470199	-0.398834437086093	-0.676238410596026	7.02039735099338	1.27761589403974	0.925298013245032			
134	2960	0.983841059602649	0.0347549668874172	0.168476821192053	-12.0066225165563	-0.424635761589404	-3.14490066225166				0.992953642384106	0.0637880794701987	0.269139072847682	-2.36609271523179	11.5078145695364	2.49403973509934				0.997827814569536	-0.00127152317880793	-0.0399470198675496	-6.15258278145695	6.58649006622517	0.0797350993377501				0.560529801324503	-0.304529801324503	-0.725721854304636	-1.15708609271523	1.3035761589404	-0.615629139072848				0	0	0	0	0	0				0	0	0	0	0	0			
135	2980	0.967841059602649	0.0667549668874172	0.168476821192053	-7.80662251655629	-2.9446357615894	-2.30490066225166				0.960953642384106	0.0637880794701987	0.269139072847682	-4.88609271523179	9.82781456953643	1.65403973509934				0.965827814569536	0.0147284768211921	-0.0399470198675496	-3.91258278145695	4.34649006622517	-0.20026490066225				0	0	0	0	0	0				0	0	0	0	0	0				0	0	0	0	0	0			
136	3080	0	0	0	0	0	0				0	0	0	0	0	0				0	0	0	0	0	0				0	0	0	0	0	0				0.964026490066225	0.0514966887417219	0.261933774834437	8.0717880794702	5.65192052980133	-3.41748344370861				0.559788079470199	-0.350834437086093	-0.708238410596026	1.70039735099338	-3.20238410596026	-8.87470198675497			
137	3100	0.999841059602649	0.0347549668874172	0.184476821192053	6.19337748344371	-1.2646357615894	-0.344900662251656				0.976953642384106	0.0477880794701987	0.301139072847682	12.4739072847682	5.06781456953642	-0.86596026490066				1.01382781456954	0.0147284768211921	-0.0719470198675496	6.16741721854305	0.986490066225167	-0.20026490066225				0.528529801324503	-0.272529801324503	-0.757721854304636	-0.877086092715232	1.8635761589404	-4.81562913907285				0.948026490066225	0.0514966887417219	0.261933774834437	10.3117880794702	4.81192052980133	-3.69748344370861				0.543788079470199	-0.350834437086093	-0.708238410596026	3.94039735099338	-5.44238410596027	-6.07470198675497			
138	3120	0.983841059602649	0.0187549668874172	0.184476821192053	5.35337748344371	-1.5446357615894	0.495099337748344				0.976953642384106	0.0637880794701987	0.301139072847682	13.0339072847682	0.307814569536424	-0.86596026490066				0.997827814569536	-0.00127152317880793	-0.0559470198675496	6.72741721854305	-0.973509933774833	0.63973509933775				0.512529801324503	-0.288529801324503	-0.757721854304636	0.522913907284768	1.3035761589404	-5.93562913907285				0.948026490066225	0.0354966887417219	0.245933774834437	9.1917880794702	1.45192052980132	-3.41748344370861				0.559788079470199	-0.382834437086093	-0.692238410596026	5.34039735099338	-5.44238410596027	-4.39470198675497			
139	3140	0.951841059602649	0.0347549668874172	0.184476821192053	5.35337748344371	-2.6646357615894	0.495099337748344				0.928953642384106	0.0637880794701987	0.269139072847682	13.8739072847682	-0.532185430463576	-0.585960264900661				0.981827814569536	-0.0172715231788079	-0.0559470198675496	7.00741721854305	-2.65350993377483	1.47973509933775				0.496529801324503	-0.288529801324503	-0.741721854304636	-1.15708609271523	0.1835761589404	-7.33562913907285				0.932026490066225	0.0354966887417219	0.245933774834437	7.7917880794702	2.57192052980133	-4.25748344370861				0.559788079470199	-0.398834437086093	-0.692238410596026	2.82039735099338	-6.00238410596027	-4.67470198675497			
140	3160	0.951841059602649	0.0187549668874172	0.168476821192053	5.63337748344371	-2.9446357615894	0.215099337748344				0.944953642384106	0.0317880794701987	0.301139072847682	14.4339072847682	3.38781456953642	-1.42596026490066				0.981827814569536	-0.00127152317880793	-0.0559470198675496	8.12741721854305	-4.61350993377483	0.0797350993377501				0.480529801324503	-0.272529801324503	-0.741721854304636	-0.597086092715232	2.1435761589404	-6.77562913907285				0.932026490066225	0.0354966887417219	0.229933774834437	3.0317880794702	3.97192052980133	-4.53748344370861				0.559788079470199	-0.350834437086093	-0.692238410596026	3.10039735099338	-7.12238410596027	-3.83470198675497			
141	3180	0.967841059602649	0.0347549668874172	0.168476821192053	4.79337748344371	-2.3846357615894	0.775099337748344				0.960953642384106	0.0317880794701987	0.317139072847682	13.3139072847682	4.50781456953642	-0.585960264900661				0.981827814569536	-0.00127152317880793	-0.0239470198675496	8.12741721854305	-4.33350993377483	-0.76026490066225				0.512529801324503	-0.272529801324503	-0.741721854304636	-0.597086092715232	1.5835761589404	-3.41562913907285				0.948026490066225	0.0354966887417219	0.245933774834437	6.1117880794702	3.97192052980133	-3.41748344370861				0.543788079470199	-0.334834437086093	-0.676238410596026	0.0203973509933773	-4.04238410596027	-3.55470198675497			
142	3200	0.999841059602649	0.0187549668874172	0.152476821192053	3.39337748344371	-2.6646357615894	-0.624900662251656				0.976953642384106	0.0317880794701987	0.285139072847682	11.9139072847682	1.42781456953642	-1.14596026490066				0.997827814569536	-0.0172715231788079	-0.00794701986754963	8.12741721854305	-5.45350993377483	-1.32026490066225				0.512529801324503	-0.288529801324503	-0.773721854304636	-0.877086092715232	1.0235761589404	-1.45562913907285				0.948026490066225	0.0514966887417219	0.261933774834437	1.0717880794702	1.45192052980132	-3.69748344370861				0.559788079470199	-0.334834437086093	-0.708238410596026	0.580397350993377	-1.80238410596026	-4.39470198675497			
143	3220	0.983841059602649	0.0187549668874172	0.152476821192053	0.873377483443709	-2.3846357615894	-0.624900662251656				0.992953642384106	0.0317880794701987	0.285139072847682	7.43390728476821	4.50781456953642	-1.14596026490066				0.997827814569536	-0.00127152317880793	-0.00794701986754963	7.56741721854305	-4.33350993377483	-0.20026490066225				0.512529801324503	-0.288529801324503	-0.773721854304636	-0.597086092715232	1.5835761589404	-1.17562913907285				0.948026490066225	0.0354966887417219	0.229933774834437	0.511788079470198	2.01192052980133	-3.41748344370861				0.559788079470199	-0.366834437086093	-0.692238410596026	3.66039735099338	-1.52238410596026	-6.35470198675497			
144	3240	0.967841059602649	0.0187549668874172	0.136476821192053	-0.806622516556291	-2.1046357615894	-1.18490066225166				0.976953642384106	0.0477880794701987	0.301139072847682	5.47390728476821	2.26781456953642	-1.70596026490066				0.981827814569536	-0.0332715231788079	0.00805298013245037	1.68741721854305	-4.05350993377483	0.0797350993377501				0.512529801324503	-0.272529801324503	-0.773721854304636	-4.23708609271523	1.0235761589404	-2.29562913907285				0.932026490066225	0.0514966887417219	0.245933774834437	1.0717880794702	1.45192052980132	-3.41748344370861				0.559788079470199	-0.350834437086093	-0.708238410596026	2.54039735099338	-1.80238410596026	-8.31470198675497			
145	3260	0.967841059602649	0.00275496688741723	0.152476821192053	-2.48662251655629	-2.1046357615894	-0.624900662251656				0.960953642384106	0.0317880794701987	0.317139072847682	3.79390728476821	1.14781456953642	-1.42596026490066				0.981827814569536	-0.0332715231788079	-0.00794701986754963	0.847417218543046	-5.73350993377484	0.0797350993377501				0.512529801324503	-0.272529801324503	-0.773721854304636	-4.79708609271523	-0.9364238410596	-2.01562913907285				0.948026490066225	0.0674966887417219	0.245933774834437	-1.1682119205298	1.17192052980133	-3.69748344370861				0.559788079470199	-0.318834437086093	-0.724238410596026	4.22039735099338	-0.962384105960265	-8.59470198675497			
146	3280	0.983841059602649	0.00275496688741723	0.136476821192053	-3.88662251655629	-2.1046357615894	-1.46490066225166				0.976953642384106	0.0317880794701987	0.285139072847682	0.713907284768212	2.26781456953642	-1.70596026490066				0.997827814569536	-0.0332715231788079	-0.0399470198675496	0.567417218543046	-10.2135099337748	0.63973509933775				0.496529801324503	-0.256529801324503	-0.757721854304636	-3.67708609271523	-2.3364238410596	-1.17562913907285				0.948026490066225	0.0514966887417219	0.229933774834437	-0.608211920529802	1.17192052980133	-2.01748344370861				0.543788079470199	-0.318834437086093	-0.708238410596026	5.06039735099338	-1.80238410596026	-7.47470198675497			
147	3300	0.983841059602649	0.00275496688741723	0.136476821192053	-7.80662251655629	-2.3846357615894	-2.30490066225166				0.976953642384106	0.0477880794701987	0.269139072847682	-1.80609271523179	2.82781456953642	-1.42596026490066				0.981827814569536	-0.0332715231788079	-0.0239470198675496	-1.39258278145695	-4.33350993377483	0.0797350993377501				0.480529801324503	-0.272529801324503	-0.773721854304636	-3.11708609271523	-0.6564238410596	-0.895629139072848				0.948026490066225	0.0514966887417219	0.261933774834437	-0.608211920529802	1.73192052980133	-1.45748344370861				0.543788079470199	-0.366834437086093	-0.724238410596026	5.34039735099338	-1.80238410596026	-6.63470198675497			
148	3320	0.951841059602649	0.0347549668874172	0.136476821192053	-8.64662251655629	-2.1046357615894	-1.46490066225166				0.944953642384106	0.0477880794701987	0.285139072847682	-5.16609271523179	1.42781456953642	-1.70596026490066				0.981827814569536	-0.0332715231788079	-0.0399470198675496	-5.59258278145695	-4.33350993377483	0.35973509933775				0.496529801324503	-0.272529801324503	-0.757721854304636	-1.99708609271523	0.4635761589404	-0.335629139072848				0.948026490066225	0.0354966887417219	0.245933774834437	-2.5682119205298	0.611920529801325	-2.01748344370861				0.559788079470199	-0.350834437086093	-0.724238410596026	2.26039735099338	-0.962384105960265	-6.35470198675497			
149	3340	0.967841059602649	0.0347549668874172	0.136476821192053	-7.24662251655629	-0.704635761589404	-1.18490066225166				0.960953642384106	0.0477880794701987	0.301139072847682	-6.56609271523179	3.10781456953642	-1.70596026490066				0.965827814569536	-0.00127152317880793	-0.0559470198675496	-5.31258278145695	-5.73350993377484	-0.20026490066225				0.544529801324503	-0.256529801324503	-0.757721854304636	-2.27708609271523	-1.4964238410596	1.34437086092715				0.948026490066225	0.0834966887417219	0.245933774834437	-3.1282119205298	0.891920529801325	-2.01748344370861				0.559788079470199	-0.318834437086093	-0.708238410596026	-1.65960264900662	-0.682384105960265	-5.23470198675497			
150	3360	0.983841059602649	0.0187549668874172	0.152476821192053	-6.40662251655629	0.135364238410596	-2.02490066225166				0.976953642384106	0.0477880794701987	0.301139072847682	-6.00609271523179	2.82781456953642	-1.42596026490066				0.981827814569536	0.0147284768211921	-0.0399470198675496	-5.03258278145695	-3.77350993377483	0.35973509933775				0.528529801324503	-0.256529801324503	-0.773721854304636	-5.91708609271523	-1.2164238410596	1.34437086092715				0.932026490066225	0.0674966887417219	0.213933774834437	-2.0082119205298	0.891920529801325	-1.73748344370861				0.527788079470199	-0.286834437086093	-0.724238410596026	-1.37960264900662	0.717615894039735	-4.11470198675497			
151	3380	0.983841059602649	0.0187549668874172	0.168476821192053	-7.80662251655629	0.135364238410596	-1.74490066225166				0.976953642384106	0.0477880794701987	0.269139072847682	-4.04609271523179	0.867814569536424	-0.86596026490066				0.981827814569536	-0.00127152317880793	-0.0559470198675496	-7.55258278145695	-2.37350993377483	-0.76026490066225				0.496529801324503	-0.256529801324503	-0.757721854304636	-4.51708609271523	-1.7764238410596	-0.335629139072848				0.948026490066225	0.0674966887417219	0.245933774834437	-0.888211920529802	2.57192052980133	-1.73748344370861				0.543788079470199	-0.334834437086093	-0.724238410596026	3.66039735099338	0.717615894039735	-4.67470198675497			
152	3400	0.967841059602649	0.0347549668874172	0.152476821192053	-7.24662251655629	0.135364238410596	-1.74490066225166				0.944953642384106	0.0797880794701987	0.285139072847682	-6.00609271523179	2.82781456953642	-0.86596026490066				0.981827814569536	-0.00127152317880793	-0.0559470198675496	-6.43258278145695	-1.53350993377483	-0.76026490066225				0.512529801324503	-0.256529801324503	-0.757721854304636	-1.71708609271523	-1.4964238410596	-1.73562913907285				0.948026490066225	0.0674966887417219	0.245933774834437	-2.0082119205298	2.29192052980133	-2.57748344370861				0.543788079470199	-0.318834437086093	-0.724238410596026	4.22039735099338	-1.52238410596026	-6.07470198675497			
153	3420	0.983841059602649	0.0347549668874172	0.152476821192053	-5.00662251655629	0.695364238410596	-1.18490066225166				0.960953642384106	0.0797880794701987	0.317139072847682	-4.60609271523179	4.78781456953642	-0.86596026490066				0.949827814569536	-0.00127152317880793	-0.0719470198675496	-4.47258278145695	-1.25350993377483	-0.48026490066225				0.528529801324503	-0.256529801324503	-0.741721854304636	-1.43708609271523	1.0235761589404	-1.45562913907285				0.948026490066225	0.0834966887417219	0.245933774834437	-0.328211920529802	2.57192052980133	-1.73748344370861				0.543788079470199	-0.302834437086093	-0.724238410596026	0.860397350993377	0.157615894039735	-5.23470198675497			
154	3440	0.983841059602649	0.0347549668874172	0.152476821192053	-3.04662251655629	-0.424635761589404	-1.18490066225166				0.960953642384106	0.0957880794701987	0.317139072847682	-2.92609271523179	3.66781456953642	-0.585960264900661				0.965827814569536	-0.00127152317880793	-0.0559470198675496	-1.11258278145695	-0.973509933774833	0.35973509933775				0.512529801324503	-0.272529801324503	-0.757721854304636	1.08291390728477	3.2635761589404	-0.0556291390728476				0.948026490066225	0.0834966887417219	0.229933774834437	1.3517880794702	3.97192052980133	-2.29748344370861				0.527788079470199	-0.302834437086093	-0.708238410596026	1.70039735099338	0.717615894039735	-6.07470198675497			
155	3460	0.983841059602649	0.0347549668874172	0.168476821192053	-1.92662251655629	-1.8246357615894	-1.46490066225166				0.960953642384106	0.0797880794701987	0.301139072847682	-0.126092715231788	1.70781456953642	0.53403973509934				0.981827814569536	-0.00127152317880793	-0.0719470198675496	-1.67258278145695	-0.973509933774833	0.0797350993377501				0.512529801324503	-0.256529801324503	-0.773721854304636	0.522913907284768	3.2635761589404	-0.615629139072848				0.948026490066225	0.0834966887417219	0.229933774834437	2.4717880794702	4.25192052980133	-1.73748344370861				0.543788079470199	-0.302834437086093	-0.708238410596026	3.66039735099338	-0.122384105960265	-6.07470198675497			
156	3480	0.967841059602649	0.0347549668874172	0.168476821192053	-1.36662251655629	-1.2646357615894	-0.904900662251656				0.944953642384106	0.0797880794701987	0.269139072847682	0.993907284768212	1.70781456953642	0.81403973509934				0.965827814569536	-0.00127152317880793	-0.0719470198675496	0.567417218543046	1.26649006622517	0.35973509933775				0.528529801324503	-0.256529801324503	-0.789721854304636	0.802913907284768	2.7035761589404	-2.85562913907285				0.932026490066225	0.0834966887417219	0.245933774834437	3.8717880794702	6.21192052980133	-2.29748344370861				0.543788079470199	-0.334834437086093	-0.724238410596026	5.06039735099338	-1.24238410596026	-6.35470198675497			
157	3500	0.951841059602649	0.0347549668874172	0.168476821192053	1.71337748344371	-1.5446357615894	-0.344900662251656				0.944953642384106	0.0637880794701987	0.301139072847682	0.993907284768212	6.18781456953642	0.53403973509934				0.965827814569536	-0.00127152317880793	-0.0559470198675496	1.12741721854305	0.986490066225167	0.0797350993377501				0.544529801324503	-0.240529801324503	-0.773721854304636	-1.71708609271523	0.1835761589404	-2.85562913907285				0.932026490066225	0.0834966887417219	0.245933774834437	2.7517880794702	6.49192052980132	-3.13748344370861				0.543788079470199	-0.318834437086093	-0.724238410596026	4.22039735099338	-2.08238410596027	-5.79470198675497			
158	3520	0.967841059602649	0.0187549668874172	0.184476821192053	1.71337748344371	-1.5446357615894	-0.0649006622516557				0.960953642384106	0.0637880794701987	0.333139072847682	4.35390728476821	3.38781456953642	1.37403973509934				0.981827814569536	-0.00127152317880793	-0.0559470198675496	3.92741721854305	-0.133509933774833	-0.48026490066225				0.528529801324503	-0.256529801324503	-0.773721854304636	-4.51708609271523	-1.7764238410596	-2.29562913907285				0.948026490066225	0.0674966887417219	0.245933774834437	4.7117880794702	3.69192052980133	-2.01748344370861				0.543788079470199	-0.318834437086093	-0.724238410596026	0.580397350993377	-1.80238410596026	-4.67470198675497			
159	3540	0.983841059602649	0.0187549668874172	0.168476821192053	2.27337748344371	-2.3846357615894	-1.18490066225166				0.960953642384106	0.0637880794701987	0.285139072847682	5.75390728476821	0.587814569536424	1.93403973509934				0.997827814569536	-0.00127152317880793	-0.0399470198675496	5.04741721854305	-1.81350993377483	-1.04026490066225				0.512529801324503	-0.240529801324503	-0.773721854304636	-4.79708609271523	-2.6164238410596	-2.57562913907285				0.948026490066225	0.0674966887417219	0.261933774834437	6.6717880794702	5.93192052980133	-2.01748344370861				0.559788079470199	-0.334834437086093	-0.724238410596026	2.82039735099338	-0.682384105960265	-2.99470198675497			
160	3560	0.967841059602649	0.0187549668874172	0.168476821192053	0.0333774834437086	-2.1046357615894	-1.18490066225166				0.960953642384106	0.0317880794701987	0.285139072847682	1.27390728476821	6.74781456953642	1.65403973509934				0.981827814569536	-0.0172715231788079	-0.0559470198675496	6.44741721854305	-2.37350993377483	-0.76026490066225				0.512529801324503	-0.240529801324503	-0.741721854304636	-2.27708609271523	-1.2164238410596	-2.57562913907285				0.948026490066225	0.0674966887417219	0.261933774834437	4.9917880794702	4.81192052980133	-1.45748344370861				0.559788079470199	-0.350834437086093	-0.708238410596026	3.66039735099338	-2.64238410596027	-1.31470198675497			
161	3580	0.967841059602649	0.0187549668874172	0.136476821192053	0.593377483443709	-1.2646357615894	-0.904900662251656				0.960953642384106	0.0477880794701987	0.333139072847682	2.95390728476821	7.30781456953642	1.65403973509934				0.965827814569536	-0.0172715231788079	-0.0559470198675496	7.00741721854305	-2.37350993377483	-1.04026490066225				0.576529801324503	-0.352529801324503	-0.677721854304636	-4.79708609271523	-0.3764238410596	8.62437086092715				0.916026490066225	0.0354966887417219	0.293933774834437	-3.6882119205298	2.29192052980133	-2.57748344370861				0.559788079470199	-0.334834437086093	-0.724238410596026	1.70039735099338	-2.64238410596027	-0.474701986754968			
162	3600	0.967841059602649	0.0187549668874172	0.136476821192053	1.43337748344371	-0.424635761589404	-1.74490066225166				0.944953642384106	0.0477880794701987	0.333139072847682	6.03390728476821	1.14781456953642	2.77403973509934				0.965827814569536	-0.0172715231788079	-0.0559470198675496	4.48741721854305	-1.81350993377483	-1.32026490066225				0.512529801324503	-0.256529801324503	-0.757721854304636	-0.0370860927152318	2.7035761589404	-1.73562913907285				0.916026490066225	0.0674966887417219	0.261933774834437	3.5917880794702	5.09192052980133	-0.337483443708608				0.559788079470199	-0.318834437086093	-0.708238410596026	3.10039735099338	-1.24238410596026	-1.59470198675497			
163	3620	0.967841059602649	0.0187549668874172	0.184476821192053	2.83337748344371	-0.144635761589404	-1.46490066225166				0.960953642384106	0.0477880794701987	0.285139072847682	5.19390728476821	3.94781456953642	2.21403973509934				0.981827814569536	-0.0172715231788079	-0.0559470198675496	4.20741721854305	-2.37350993377483	-0.20026490066225				0.528529801324503	-0.256529801324503	-0.773721854304636	-1.43708609271523	1.5835761589404	-1.17562913907285				0.932026490066225	0.0674966887417219	0.277933774834437	4.4317880794702	6.21192052980133	-0.0574834437086077				0.559788079470199	-0.334834437086093	-0.708238410596026	6.18039735099338	-1.24238410596026	-3.27470198675497			
164	3640	0.967841059602649	0.0187549668874172	0.152476821192053	1.71337748344371	-0.704635761589404	-1.74490066225166				0.976953642384106	0.0477880794701987	0.301139072847682	4.91390728476821	6.18781456953642	2.77403973509934				0.997827814569536	-0.0172715231788079	-0.0559470198675496	4.48741721854305	-2.09350993377483	-0.48026490066225				0.528529801324503	-0.240529801324503	-0.757721854304636	-3.11708609271523	-0.0964238410596001	0.224370860927152				0.932026490066225	0.0674966887417219	0.277933774834437	3.8717880794702	5.93192052980133	0.502516556291392				0.559788079470199	-0.334834437086093	-0.708238410596026	6.46039735099338	-1.24238410596026	-3.83470198675497			
165	3660	0.967841059602649	0.0187549668874172	0.136476821192053	0.313377483443709	-0.424635761589404	-2.02490066225166				0.960953642384106	0.0477880794701987	0.317139072847682	6.03390728476821	4.50781456953642	2.77403973509934				0.981827814569536	-0.0172715231788079	-0.0559470198675496	5.04741721854305	-0.413509933774833	-1.32026490066225				0.528529801324503	-0.256529801324503	-0.757721854304636	0.522913907284768	1.3035761589404	1.06437086092715				0.932026490066225	0.0674966887417219	0.277933774834437	3.5917880794702	3.97192052980133	0.222516556291392				0.559788079470199	-0.334834437086093	-0.708238410596026	5.06039735099338	-0.962384105960265	-2.43470198675497			
166	3680	0.967841059602649	0.0187549668874172	0.136476821192053	-0.246622516556291	-2.1046357615894	-2.02490066225166				0.944953642384106	0.0477880794701987	0.317139072847682	2.95390728476821	4.78781456953642	2.49403973509934				0.965827814569536	-0.0172715231788079	-0.0559470198675496	5.04741721854305	-2.37350993377483	-0.48026490066225				0.512529801324503	-0.240529801324503	-0.757721854304636	1.64291390728477	2.4235761589404	-0.0556291390728476				0.932026490066225	0.0674966887417219	0.277933774834437	3.8717880794702	5.09192052980133	0.782516556291392				0.543788079470199	-0.318834437086093	-0.708238410596026	4.22039735099338	1.27761589403974	-2.71470198675497			
167	3700	0.999841059602649	0.0187549668874172	0.136476821192053	1.43337748344371	-3.2246357615894	-1.46490066225166				0.960953642384106	0.0637880794701987	0.333139072847682	2.39390728476821	3.38781456953642	2.49403973509934				0.965827814569536	-0.0332715231788079	-0.0559470198675496	5.04741721854305	-1.53350993377483	-0.76026490066225				0.528529801324503	-0.256529801324503	-0.757721854304636	-2.55708609271523	1.0235761589404	-1.17562913907285				0.932026490066225	0.0674966887417219	0.261933774834437	5.8317880794702	5.65192052980133	1.62251655629139				0.559788079470199	-0.350834437086093	-0.708238410596026	7.30039735099338	-0.962384105960265	-3.55470198675497			
168	3720	0.967841059602649	0.0187549668874172	0.136476821192053	1.15337748344371	-3.2246357615894	-2.02490066225166				0.960953642384106	0.0317880794701987	0.301139072847682	2.11390728476821	4.50781456953642	3.89403973509934				0.965827814569536	-0.0172715231788079	-0.0559470198675496	4.20741721854305	-1.53350993377483	-0.20026490066225				0.528529801324503	-0.256529801324503	-0.741721854304636	-2.27708609271523	0.4635761589404	-0.0556291390728476				0.932026490066225	0.0674966887417219	0.293933774834437	6.1117880794702	6.77192052980133	1.34251655629139				0.559788079470199	-0.350834437086093	-0.708238410596026	5.90039735099338	-1.80238410596026	-2.15470198675497			
169	3740	0.967841059602649	0.0187549668874172	0.152476821192053	-1.08662251655629	-2.6646357615894	-2.86490066225166				0.960953642384106	0.0477880794701987	0.317139072847682	0.993907284768212	7.58781456953643	3.33403973509934				0.981827814569536	-0.00127152317880793	-0.0559470198675496	3.92741721854305	-1.25350993377483	-1.32026490066225				0.512529801324503	-0.240529801324503	-0.773721854304636	-0.597086092715232	2.1435761589404	2.74437086092715				0.932026490066225	0.0834966887417219	0.277933774834437	-0.328211920529802	4.53192052980133	1.34251655629139				0.543788079470199	-0.366834437086093	-0.724238410596026	5.34039735099338	-2.36238410596027	-1.31470198675497			
170	3760	0.951841059602649	0.0347549668874172	0.136476821192053	-0.526622516556291	-2.1046357615894	-2.86490066225166				0.944953642384106	0.0637880794701987	0.333139072847682	1.55390728476821	3.10781456953642	4.17403973509934				0.981827814569536	-0.0172715231788079	-0.0559470198675496	3.08741721854305	-0.413509933774833	-2.16026490066225				0.512529801324503	-0.240529801324503	-0.757721854304636	3.32291390728477	3.2635761589404	2.46437086092715				0.932026490066225	0.0674966887417219	0.277933774834437	2.7517880794702	5.93192052980133	2.74251655629139				0.543788079470199	-0.350834437086093	-0.708238410596026	2.54039735099338	-1.24238410596026	0.0852980132450323			
171	3780	0.967841059602649	0.0347549668874172	0.152476821192053	0.593377483443709	-3.2246357615894	-3.14490066225166				0.944953642384106	0.0157880794701987	0.317139072847682	2.67390728476821	3.38781456953642	3.61403973509934				0.981827814569536	-0.0172715231788079	-0.0559470198675496	3.36741721854305	-1.25350993377483	-1.88026490066225				0.512529801324503	-0.256529801324503	-0.757721854304636	3.32291390728477	2.9835761589404	2.18437086092715				0.932026490066225	0.0514966887417219	0.277933774834437	3.8717880794702	5.93192052980133	1.90251655629139				0.543788079470199	-0.334834437086093	-0.692238410596026	4.50039735099338	-2.08238410596027	2.04529801324503			
172	3800	0.967841059602649	0.0187549668874172	0.136476821192053	1.15337748344371	-3.2246357615894	-2.86490066225166				0.960953642384106	0.0317880794701987	0.333139072847682	-0.686092715231788	6.18781456953642	2.49403973509934				0.965827814569536	-0.0332715231788079	-0.0559470198675496	5.32741721854305	-0.973509933774833	-1.88026490066225				0.544529801324503	-0.256529801324503	-0.757721854304636	-0.597086092715232	2.1435761589404	2.74437086092715				0.916026490066225	0.0514966887417219	0.293933774834437	1.6317880794702	5.65192052980133	2.46251655629139				0.559788079470199	-0.366834437086093	-0.708238410596026	5.90039735099338	-3.48238410596027	1.48529801324503			
173	3820	0.967841059602649	0.0187549668874172	0.136476821192053	-1.08662251655629	-3.5046357615894	-3.70490066225166				0.928953642384106	0.0317880794701987	0.333139072847682	-2.64609271523179	4.78781456953642	2.77403973509934				0.965827814569536	-0.0332715231788079	-0.0559470198675496	3.36741721854305	-1.53350993377483	-1.32026490066225				0	0	0	0	0	0				0	0	0	0	0	0				0	0	0	0	0	0			
