No	Time	12-AccX	12-AccY	12-AccZ	12-GyroX	12-GyroY	12-GyroZ	13-AccX	13-AccY	13-AccZ	13-GyroX	13-GyroY	13-GyroZ	14-AccX	14-AccY	14-AccZ	14-GyroX	14-GyroY	14-GyroZ	15-AccX	15-AccY	15-AccZ	15-GyroX	15-GyroY	15-GyroZ	16-AccX	16-AccY	16-AccZ	16-GyroX	16-GyroY	16-GyroZ	17-AccX	17-AccY	17-AccZ	17-GyroX	17-GyroY	17-GyroZ
0	100	0	0	0	0	0	0				0	0	0	0	0	0				0	0	0	0	0	0				0.288529801324503	-0.000529801324503289	-0.933721854304636	-2.27708609271523	4.6635761589404	27.3843708609272				0.916026490066225	0.00349668874172187	0.373933774834437	-16.2882119205298	1.17192052980133	-3.13748344370861				0	0	0	0	0	0			
1	120	0	0	0	0	0	0				0	0	0	0	0	0				-0.234172185430464	-0.00127152317880793	-0.87194701986755	-6.99258278145695	0.986490066225167	7.63973509933775				0.288529801324503	-0.0325298013245033	-0.933721854304636	-1.15708609271523	4.6635761589404	29.3443708609272				0.868026490066225	0.00349668874172187	0.373933774834437	-15.1682119205298	0.0519205298013249	-3.69748344370861				0.175788079470199	-0.430834437086093	-0.820238410596026	-4.45960264900662	8.83761589403974	17.725298013245			
2	140	-0.248158940397351	0.0187549668874172	-0.935523178807947	-8.36662251655629	2.9353642384106	-0.904900662251656				0.992953642384106	0.0797880794701987	0.0931390728476822	-6.28609271523179	-5.85218543046358	1.65403973509934				-0.250172185430464	-0.00127152317880793	-0.85594701986755	-9.79258278145695	-0.693509933774834	8.19973509933775				0.272529801324503	-0.0485298013245033	-0.949721854304636	-4.51708609271523	2.7035761589404	29.6243708609272				0.868026490066225	-0.0125033112582781	0.389933774834437	-15.4482119205298	1.17192052980133	-3.41748344370861				0.175788079470199	-0.446834437086093	-0.820238410596026	-4.45960264900662	7.99761589403974	20.805298013245			
3	160	-0.248158940397351	0.0187549668874172	-0.919523178807947	-8.08662251655629	1.8153642384106	-0.624900662251656				1.00895364238411	0.0637880794701987	0.0931390728476822	-0.686092715231788	-11.1721854304636	1.09403973509934				-0.266172185430464	-0.00127152317880793	-0.87194701986755	-11.192582781457	-2.37350993377483	8.47973509933775				0.304529801324503	-0.0165298013245033	-0.917721854304636	-8.15708609271523	1.3035761589404	29.9043708609272				0.884026490066225	-0.0285033112582781	0.405933774834437	-17.1282119205298	4.81192052980133	-4.25748344370861				0.175788079470199	-0.446834437086093	-0.820238410596026	-6.13960264900662	7.71761589403974	22.485298013245			
4	180	-0.232158940397351	0.0187549668874172	-0.935523178807947	-5.56662251655629	0.695364238410596	-1.18490066225166				0.992953642384106	0.0477880794701987	0.125139072847682	-4.88609271523179	-12.0121854304636	0.25403973509934				-0.266172185430464	0.0467284768211921	-0.90394701986755	-11.192582781457	-2.37350993377483	6.51973509933775				0.352529801324503	-0.000529801324503289	-0.949721854304636	-8.99708609271523	-3.4564238410596	29.9043708609272				0.916026490066225	-0.0125033112582781	0.405933774834437	-20.2082119205298	5.37192052980133	-5.65748344370861				0.207788079470199	-0.430834437086093	-0.820238410596026	-8.65960264900662	9.39761589403974	22.765298013245			
5	200	-0.232158940397351	0.0347549668874172	-0.951523178807947	-6.40662251655629	1.2553642384106	-2.02490066225166				0.992953642384106	0.0317880794701987	0.109139072847682	-7.40609271523179	-5.85218543046358	1.09403973509934				-0.234172185430464	0.0947284768211921	-0.93594701986755	-8.11258278145695	0.986490066225167	5.67973509933775				0.384529801324503	-0.000529801324503289	-0.949721854304636	-6.75708609271523	-4.5764238410596	29.6243708609272				0.916026490066225	-0.0125033112582781	0.421933774834437	-17.4082119205298	1.73192052980133	-5.37748344370861				0.207788079470199	-0.414834437086093	-0.836238410596026	-8.37960264900662	10.2376158940397	22.765298013245			
6	220	-0.248158940397351	0.0347549668874172	-0.983523178807947	-6.96662251655629	1.2553642384106	-1.18490066225166				0.976953642384106	0.0477880794701987	0.109139072847682	-9.64609271523179	-2.49218543046358	0.81403973509934				-0.266172185430464	0.0787284768211921	-0.90394701986755	-6.43258278145695	1.82649006622517	2.59973509933775				0.384529801324503	0.0154701986754967	-0.949721854304636	-7.87708609271523	-9.3364238410596	29.3443708609272				0.900026490066225	-0.0125033112582781	0.437933774834437	-12.9282119205298	-0.228079470198675	-3.41748344370861				0.207788079470199	-0.414834437086093	-0.852238410596026	-7.53960264900662	9.39761589403974	21.645298013245			
7	240	-0.248158940397351	0.0347549668874172	-0.967523178807947	-6.68662251655629	2.9353642384106	-1.74490066225166				1.02495364238411	0.0797880794701987	0.0931390728476822	-9.08609271523179	-1.37218543046358	-0.0259602649006601				-0.250172185430464	0.0467284768211921	-0.88794701986755	-2.23258278145695	0.986490066225167	1.47973509933775				0.368529801324503	0.0154701986754967	-0.933721854304636	-9.27708609271523	-13.8164238410596	25.9843708609272				0.884026490066225	0.00349668874172187	0.437933774834437	-10.1282119205298	-3.02807947019868	-3.41748344370861				0.191788079470199	-0.414834437086093	-0.868238410596026	-7.53960264900662	7.71761589403974	19.405298013245			
8	260	-0.232158940397351	0.0347549668874172	-0.967523178807947	-5.84662251655629	5.7353642384106	-1.18490066225166				1.05695364238411	0.0957880794701987	0.0931390728476822	-4.32609271523179	-3.05218543046358	-0.30596026490066				-0.250172185430464	-0.00127152317880793	-0.91994701986755	0.287417218543046	0.986490066225167	1.47973509933775				0.368529801324503	0.0314701986754967	-0.933721854304636	-10.9570860927152	-16.6164238410596	21.2243708609272				0.900026490066225	0.0194966887417219	0.453933774834437	-8.7282119205298	-2.18807947019868	-2.57748344370861				0.207788079470199	-0.398834437086093	-0.900238410596026	-9.77960264900662	5.19761589403974	18.005298013245			
9	280	-0.200158940397351	0.0507549668874172	-0.967523178807947	-7.24662251655629	7.4153642384106	0.215099337748344				1.00895364238411	0.0477880794701987	0.157139072847682	-1.80609271523179	-2.49218543046358	-1.70596026490066				-0.234172185430464	-0.0332715231788079	-0.93594701986755	-4.19258278145695	2.66649006622517	4.27973509933775				0.368529801324503	0.0474701986754967	-0.949721854304636	-10.1170860927152	-16.0564238410596	16.7443708609272				0.932026490066225	0.0194966887417219	0.437933774834437	-7.3282119205298	-1.34807947019868	-1.17748344370861				0.207788079470199	-0.382834437086093	-0.916238410596027	-6.41960264900662	3.23761589403974	14.085298013245			
10	300	-0.184158940397351	0.0507549668874172	-0.951523178807947	-2.20662251655629	6.5753642384106	0.495099337748344				0.960953642384106	0.0637880794701987	0.157139072847682	-4.04609271523179	-1.09218543046358	-1.70596026490066				-0.202172185430464	-0.0972715231788079	-0.85594701986755	-7.27258278145696	4.06649006622517	6.79973509933775				0.336529801324503	0.0474701986754967	-0.933721854304636	-7.87708609271523	-11.8564238410596	11.9843708609272				0.932026490066225	0.0194966887417219	0.437933774834437	-3.9682119205298	-2.18807947019868	-0.617483443708608				0.207788079470199	-0.350834437086093	-0.916238410596027	-5.57960264900662	-0.402384105960265	8.76529801324503			
11	320	-0.184158940397351	0.0507549668874172	-0.935523178807947	-2.20662251655629	4.8953642384106	0.775099337748344				0.992953642384106	0.0797880794701987	0.125139072847682	-4.88609271523179	-1.09218543046358	-2.54596026490066				-0.202172185430464	-0.0812715231788079	-0.85594701986755	-10.912582781457	2.66649006622517	12.1197350993378				0.304529801324503	0.0474701986754967	-0.917721854304636	-4.23708609271523	-9.6164238410596	7.50437086092715				0.884026490066225	0.0194966887417219	0.421933774834437	2.4717880794702	-3.30807947019868	1.34251655629139				0.191788079470199	-0.350834437086093	-0.900238410596026	-2.49960264900662	-5.72238410596027	3.72529801324503			
12	340	-0.184158940397351	0.0347549668874172	-0.951523178807947	-3.04662251655629	4.8953642384106	0.495099337748344				0.992953642384106	0.0957880794701987	0.0771390728476822	-4.88609271523179	-3.33218543046358	-4.78596026490066				-0.202172185430464	-0.0492715231788079	-0.88794701986755	-16.792582781457	0.706490066225167	15.4797350993378				0.288529801324503	0.0314701986754967	-0.901721854304636	-0.317086092715232	-9.0564238410596	4.70437086092715				0.884026490066225	0.0194966887417219	0.405933774834437	6.3917880794702	0.0519205298013249	2.46251655629139				0.175788079470199	-0.366834437086093	-0.884238410596026	-0.819602649006623	-10.4823841059603	-1.31470198675497			
13	360	-0.168158940397351	0.0347549668874172	-0.935523178807947	-5.00662251655629	4.8953642384106	0.495099337748344				0.944953642384106	0.0797880794701987	0.0931390728476822	-6.00609271523179	-3.33218543046358	-2.82596026490066				-0.186172185430464	0.0467284768211921	-0.91994701986755	-17.912582781457	2.66649006622517	12.9597350993378				0.304529801324503	0.0154701986754967	-0.917721854304636	0.522913907284768	-8.7764238410596	1.62437086092715				0.884026490066225	0.00349668874172187	0.373933774834437	4.4317880794702	-2.46807947019868	2.18251655629139				0.159788079470199	-0.366834437086093	-0.868238410596026	-1.37960264900662	-14.1223841059603	-3.27470198675497			
14	380	-0.168158940397351	0.0347549668874172	-0.935523178807947	-5.28662251655629	4.8953642384106	-0.0649006622516557				0.928953642384106	0.0637880794701987	0.109139072847682	-6.56609271523179	2.54781456953642	-1.14596026490066				-0.202172185430464	0.110728476821192	-0.93594701986755	-20.432582781457	2.10649006622517	9.87973509933775				0.272529801324503	0.0154701986754967	-0.917721854304636	-0.0370860927152318	-5.6964238410596	-1.45562913907285				0.868026490066225	0.00349668874172187	0.389933774834437	3.0317880794702	-0.508079470198675	1.06251655629139				0.159788079470199	-0.366834437086093	-0.836238410596026	-3.61960264900662	-14.6823841059603	-4.95470198675497			
15	400	-0.152158940397351	0.0507549668874172	-0.935523178807947	-6.68662251655629	1.5353642384106	0.495099337748344				0.928953642384106	0.0797880794701987	0.141139072847682	-4.88609271523179	7.02781456953642	-1.70596026490066				-0.218172185430464	0.110728476821192	-0.87194701986755	-16.232582781457	0.146490066225167	5.95973509933775				0.240529801324503	0.0154701986754967	-0.901721854304636	-0.597086092715232	-4.2964238410596	-3.13562913907285				0.836026490066225	0.00349668874172187	0.373933774834437	6.3917880794702	0.891920529801325	1.90251655629139				0.143788079470199	-0.350834437086093	-0.804238410596027	-3.61960264900662	-16.0823841059603	-6.63470198675497			
16	420	-0.168158940397351	0.0667549668874172	-0.967523178807947	-5.56662251655629	-1.2646357615894	1.61509933774834				0.944953642384106	0.0957880794701987	0.109139072847682	-0.406092715231788	3.38781456953642	1.09403973509934				-0.234172185430464	0.158728476821192	-0.87194701986755	-12.592582781457	-0.413509933774833	1.75973509933775				0.240529801324503	0.0314701986754967	-0.885721854304636	-1.43708609271523	-4.5764238410596	-4.53562913907285				0.836026490066225	0.00349668874172187	0.357933774834437	9.7517880794702	0.611920529801325	2.46251655629139				0.127788079470199	-0.350834437086093	-0.788238410596027	3.10039735099338	-14.9623841059603	-8.31470198675497			
17	440	-0.168158940397351	0.0827549668874172	-0.967523178807947	-4.44662251655629	-0.984635761589404	1.61509933774834				0.944953642384106	0.0957880794701987	0.125139072847682	1.83390728476821	8.98781456953643	2.77403973509934				-0.218172185430464	0.190728476821192	-0.88794701986755	-4.47258278145695	-0.973509933774833	-1.60026490066225				0.256529801324503	0.0314701986754967	-0.837721854304636	-1.71708609271523	-2.6164238410596	-8.17562913907285				0.836026490066225	0.00349668874172187	0.389933774834437	10.0317880794702	1.45192052980132	3.30251655629139				0.143788079470199	-0.350834437086093	-0.788238410596027	8.98039735099338	-11.3223841059603	-9.99470198675497			
18	460	-0.168158940397351	0.0987549668874172	-0.951523178807947	-3.32662251655629	0.415364238410596	2.17509933774834				0.944953642384106	0.0797880794701987	0.173139072847682	3.79390728476821	15.4278145695364	3.33403973509934				-0.218172185430464	0.174728476821192	-0.88794701986755	-0.832582781456954	-1.25350993377483	-6.36026490066225				0.272529801324503	0.0474701986754967	-0.885721854304636	-1.15708609271523	1.3035761589404	-11.8156291390728				0.852026490066225	0.00349668874172187	0.389933774834437	8.9117880794702	4.81192052980133	2.46251655629139				0.127788079470199	-0.350834437086093	-0.788238410596027	10.3803973509934	-8.24238410596027	-13.914701986755			
19	480	-0.168158940397351	0.0987549668874172	-0.935523178807947	-2.48662251655629	-0.704635761589404	3.29509933774834				0.928953642384106	0.0957880794701987	0.173139072847682	8.27390728476821	18.2278145695364	2.21403973509934				-0.218172185430464	0.174728476821192	-0.90394701986755	2.80741721854305	-3.21350993377483	-9.72026490066225				0.256529801324503	0.0314701986754967	-0.853721854304636	0.522913907284768	7.1835761589404	-15.1756291390728				0.836026490066225	0.0354966887417219	0.389933774834437	10.5917880794702	6.49192052980132	1.62251655629139				0.127788079470199	-0.318834437086093	-0.788238410596027	10.9403973509934	-5.16238410596027	-18.114701986755			
20	500	-0.152158940397351	0.0987549668874172	-0.919523178807947	-3.32662251655629	-2.3846357615894	3.57509933774835				0.928953642384106	0.111788079470199	0.157139072847682	9.67390728476821	21.8678145695364	0.81403973509934				-0.202172185430464	0.126728476821192	-0.90394701986755	7.00741721854305	-3.21350993377483	-12.8002649006623				0.240529801324503	0.0474701986754967	-0.853721854304636	1.36291390728477	13.0635761589404	-17.6956291390729				0.820026490066225	0.0354966887417219	0.405933774834437	12.8317880794702	8.73192052980133	2.18251655629139				0.143788079470199	-0.318834437086093	-0.788238410596027	12.0603973509934	-3.48238410596027	-21.754701986755			
21	520	-0.200158940397351	0.114754966887417	-0.935523178807947	-1.64662251655629	-4.9046357615894	3.01509933774834				0.960953642384106	0.111788079470199	0.157139072847682	6.87390728476821	22.9878145695364	-1.14596026490066				-0.234172185430464	0.0947284768211921	-0.88794701986755	7.00741721854305	-4.33350993377483	-13.9202649006623				0.304529801324503	0.0794701986754967	-0.869721854304636	5.56291390728477	17.8235761589404	-21.0556291390728				0.852026490066225	0.0354966887417219	0.405933774834437	14.5117880794702	11.8119205298013	1.90251655629139				0.159788079470199	-0.334834437086093	-0.788238410596027	11.7803973509934	-2.92238410596027	-27.074701986755			
22	540	-0.248158940397351	0.114754966887417	-0.951523178807947	-0.526622516556291	-6.5846357615894	2.73509933774834				0.976953642384106	0.111788079470199	0.141139072847682	5.47390728476821	18.5078145695364	-3.10596026490066				-0.266172185430464	0.110728476821192	-0.90394701986755	11.487417218543	-5.17350993377483	-14.7602649006622				0.384529801324503	0.0954701986754967	-0.901721854304636	8.64291390728477	17.2635761589404	-23.0156291390729				0.868026490066225	0.0194966887417219	0.421933774834437	16.1917880794702	9.85192052980133	-0.0574834437086077				0.175788079470199	-0.398834437086093	-0.756238410596026	11.7803973509934	-1.52238410596026	-32.394701986755			
23	560	-0.280158940397351	0.114754966887417	-0.935523178807947	1.43337748344371	-3.5046357615894	1.33509933774834				0.976953642384106	0.127788079470199	0.141139072847682	1.27390728476821	21.5878145695364	-4.78596026490066				-0.298172185430464	0.0787284768211921	-0.93594701986755	13.167417218543	-4.33350993377483	-13.3602649006623				0.416529801324503	0.0954701986754967	-0.965721854304636	8.64291390728477	11.9435761589404	-27.2156291390728				0.884026490066225	0.0514966887417219	0.453933774834437	18.7117880794702	6.49192052980132	0.782516556291392				0.239788079470199	-0.462834437086093	-0.756238410596026	7.58039735099338	3.23761589403974	-32.674701986755			
24	580	-0.280158940397351	0.114754966887417	-0.951523178807947	5.35337748344371	-0.144635761589404	0.495099337748344				1.00895364238411	0.127788079470199	0.173139072847682	0.713907284768212	30.8278145695364	-3.94596026490066				-0.314172185430464	0.0467284768211921	-0.93594701986755	10.087417218543	-1.81350993377483	-10.8402649006623				0.432529801324503	0.0314701986754967	-1.01372185430464	6.40291390728477	3.8235761589404	-31.6956291390729				0.900026490066225	0.0514966887417219	0.485933774834437	22.9117880794702	0.331920529801325	0.222516556291392				0.287788079470199	-0.526834437086093	-0.788238410596027	-1.09960264900662	4.63761589403974	-26.794701986755			
25	600	-0.232158940397351	0.114754966887417	-0.935523178807947	4.23337748344371	0.415364238410596	0.215099337748344				1.04095364238411	0.111788079470199	0.205139072847682	2.67390728476821	29.9878145695364	-4.78596026490066				-0.282172185430464	0.0147284768211921	-0.88794701986755	13.727417218543	0.426490066225167	-9.16026490066225				0.432529801324503	-0.0325298013245033	-1.06172185430464	-1.99708609271523	-5.1364238410596	-30.8556291390729				0.916026490066225	0.0354966887417219	0.517933774834437	21.2317880794702	-1.06807947019868	-2.29748344370861				0.319788079470199	-0.526834437086093	-0.836238410596026	-11.4596026490066	2.67761589403974	-16.994701986755			
26	620	-0.168158940397351	0.0827549668874172	-0.935523178807947	1.43337748344371	0.415364238410596	0.495099337748344				1.04095364238411	0.111788079470199	0.253139072847682	2.39390728476821	15.4278145695364	-5.34596026490066				-0.218172185430464	-0.0172715231788079	-0.85594701986755	19.0474172185431	-1.81350993377483	-9.16026490066225				0.384529801324503	-0.0325298013245033	-1.04572185430464	-12.6370860927152	-8.4964238410596	-24.4156291390728				0.948026490066225	0.0194966887417219	0.517933774834437	20.9517880794702	-3.58807947019868	-3.69748344370861				0.335788079470199	-0.462834437086093	-0.916238410596027	-10.3396026490066	-0.962384105960265	-13.914701986755			
27	640	-0.168158940397351	0.0667549668874172	-0.951523178807947	1.15337748344371	-0.704635761589404	-0.624900662251656				1.04095364238411	0.127788079470199	0.221139072847682	3.79390728476821	-4.45218543046358	-2.82596026490066				-0.202172185430464	-0.0172715231788079	-0.88794701986755	14.567417218543	-2.93350993377483	-7.76026490066225				0.320529801324503	-0.0165298013245033	-0.997721854304636	-18.2370860927152	-11.0164238410596	-17.1356291390729				0.932026490066225	0.0514966887417219	0.469933774834437	18.4317880794702	-4.70807947019868	-5.93748344370861				0.335788079470199	-0.414834437086093	-0.932238410596026	-2.49960264900662	-5.44238410596027	-13.074701986755			
28	660	-0.184158940397351	0.0507549668874172	-0.951523178807947	1.15337748344371	-2.3846357615894	-1.18490066225166				1.00895364238411	0.0797880794701987	0.221139072847682	3.79390728476821	-15.3721854304636	0.81403973509934				-0.218172185430464	-0.0492715231788079	-0.88794701986755	11.207417218543	-1.53350993377483	-7.20026490066225				0.272529801324503	0.0314701986754967	-0.949721854304636	-12.9170860927152	-11.8564238410596	-10.1356291390728				0.932026490066225	0.0354966887417219	0.453933774834437	17.0317880794702	-6.10807947019868	-5.65748344370861				0.287788079470199	-0.414834437086093	-0.948238410596026	3.10039735099338	-9.64238410596027	-11.394701986755			
29	680	-0.200158940397351	0.0347549668874172	-0.983523178807947	-1.36662251655629	-2.3846357615894	-2.02490066225166				0.992953642384106	0.0477880794701987	0.189139072847682	0.993907284768212	-15.6521854304636	-0.0259602649006601				-0.234172185430464	-0.0492715231788079	-0.90394701986755	9.24741721854305	-1.25350993377483	-6.08026490066225				0.240529801324503	0.0794701986754967	-0.901721854304636	-5.07708609271523	-9.0564238410596	-5.65562913907285				0.916026490066225	0.0354966887417219	0.437933774834437	16.4717880794702	-6.38807947019868	-1.73748344370861				0.239788079470199	-0.398834437086093	-0.916238410596027	-2.21960264900662	-11.0423841059603	-11.954701986755			
30	700	-0.216158940397351	0.0507549668874172	-0.983523178807947	0.593377483443709	-1.8246357615894	-2.86490066225166				0.976953642384106	0.0477880794701987	0.205139072847682	-0.966092715231788	-10.3321854304636	-1.70596026490066				-0.234172185430464	-0.0332715231788079	-0.88794701986755	5.04741721854305	0.146490066225167	-4.40026490066225				0.240529801324503	0.111470198675497	-0.869721854304636	0.802913907284768	-5.4164238410596	-4.25562913907285				0.884026490066225	0.0514966887417219	0.421933774834437	11.9917880794702	-5.54807947019868	-0.337483443708608				0.223788079470199	-0.382834437086093	-0.900238410596026	-6.69960264900662	-11.6023841059603	-11.674701986755			
31	720	-0.216158940397351	0.0507549668874172	-0.967523178807947	1.99337748344371	-0.424635761589404	-1.46490066225166				0.944953642384106	0.0637880794701987	0.205139072847682	-1.24609271523179	-3.89218543046358	-1.70596026490066				-0.234172185430464	-0.0332715231788079	-0.87194701986755	1.96741721854305	0.986490066225167	-2.44026490066225				0.256529801324503	0.127470198675497	-0.869721854304636	0.522913907284768	-3.7364238410596	-6.49562913907285				0.868026490066225	0.0514966887417219	0.405933774834437	10.3117880794702	-5.82807947019868	1.62251655629139				0.223788079470199	-0.382834437086093	-0.852238410596026	-6.41960264900662	-10.4823841059603	-10.834701986755			
32	740	-0.232158940397351	0.0507549668874172	-0.935523178807947	3.67337748344371	0.695364238410596	-0.624900662251656				0.944953642384106	0.0477880794701987	0.205139072847682	0.433907284768212	0.587814569536424	0.53403973509934				-0.250172185430464	-0.0332715231788079	-0.87194701986755	0.287417218543046	0.426490066225167	-1.32026490066225				0.256529801324503	0.111470198675497	-0.853721854304636	-0.597086092715232	-4.0164238410596	-8.17562913907285				0.836026490066225	0.0674966887417219	0.405933774834437	6.9517880794702	-4.98807947019868	3.58251655629139				0.207788079470199	-0.366834437086093	-0.820238410596026	-3.89960264900662	-7.96238410596027	-8.87470198675497			
33	760	-0.248158940397351	0.0507549668874172	-0.935523178807947	3.95337748344371	0.415364238410596	-2.02490066225166				0.944953642384106	0.0637880794701987	0.173139072847682	1.83390728476821	3.38781456953642	1.65403973509934				-0.250172185430464	-0.0332715231788079	-0.88794701986755	-1.67258278145695	-0.133509933774833	1.19973509933775				0.240529801324503	0.0954701986754967	-0.869721854304636	1.64291390728477	-2.6164238410596	-9.85562913907285				0.836026490066225	0.0354966887417219	0.405933774834437	4.9917880794702	-2.74807947019868	4.42251655629139				0.223788079470199	-0.382834437086093	-0.804238410596027	2.54039735099338	-6.84238410596027	-6.63470198675497			
34	780	-0.216158940397351	0.0507549668874172	-0.903523178807947	2.27337748344371	-0.144635761589404	-1.46490066225166				0.944953642384106	0.0797880794701987	0.157139072847682	2.67390728476821	6.46781456953642	1.93403973509934				-0.234172185430464	-0.00127152317880793	-0.88794701986755	-0.832582781456954	0.146490066225167	1.75973509933775				0.256529801324503	0.0634701986754967	-0.885721854304636	5.00291390728477	-1.7764238410596	-10.1356291390728				0.852026490066225	0.0194966887417219	0.437933774834437	2.4717880794702	-3.02807947019868	3.86251655629139				0.223788079470199	-0.398834437086093	-0.804238410596027	7.02039735099338	-5.44238410596027	-7.19470198675497			
35	800	-0.232158940397351	0.0507549668874172	-0.935523178807947	1.43337748344371	-2.1046357615894	-0.624900662251656				0.976953642384106	0.111788079470199	0.173139072847682	3.79390728476821	5.62781456953642	1.65403973509934				-0.250172185430464	0.0147284768211921	-0.88794701986755	-1.11258278145695	0.426490066225167	2.87973509933775				0.272529801324503	0.0314701986754967	-0.917721854304636	6.96291390728477	-0.0964238410596001	-8.45562913907285				0.868026490066225	0.0354966887417219	0.421933774834437	2.7517880794702	-4.14807947019868	4.42251655629139				0.223788079470199	-0.398834437086093	-0.804238410596027	6.18039735099338	-3.20238410596026	-7.19470198675497			
36	820	-0.232158940397351	0.0507549668874172	-0.951523178807947	-0.806622516556291	-1.8246357615894	-1.18490066225166				0.976953642384106	0.111788079470199	0.189139072847682	1.55390728476821	3.10781456953642	1.65403973509934				-0.266172185430464	0.0147284768211921	-0.87194701986755	-1.67258278145695	-0.693509933774834	3.15973509933775				0.272529801324503	0.0154701986754967	-0.917721854304636	6.96291390728477	1.5835761589404	-5.09562913907285				0.868026490066225	0.0354966887417219	0.421933774834437	2.4717880794702	-4.98807947019868	3.86251655629139				0.207788079470199	-0.398834437086093	-0.820238410596026	2.54039735099338	-4.60238410596027	-6.07470198675497			
37	840	-0.232158940397351	0.0667549668874172	-0.967523178807947	0.313377483443709	-1.2646357615894	-0.904900662251656				0.992953642384106	0.0957880794701987	0.189139072847682	0.433907284768212	0.587814569536424	1.93403973509934				-0.266172185430464	0.0307284768211921	-0.88794701986755	-0.272582781456954	-0.693509933774834	3.43973509933775				0.272529801324503	0.0474701986754967	-0.917721854304636	6.68291390728477	2.4235761589404	-2.85562913907285				0.868026490066225	0.0514966887417219	0.405933774834437	1.6317880794702	-4.42807947019868	3.02251655629139				0.207788079470199	-0.382834437086093	-0.852238410596026	-1.37960264900662	-4.32238410596027	-6.63470198675497			
38	860	-0.216158940397351	0.0667549668874172	-0.935523178807947	2.27337748344371	0.975364238410596	-0.624900662251656				1.02495364238411	0.0957880794701987	0.205139072847682	0.993907284768212	-2.77218543046358	3.05403973509934				-0.250172185430464	0.0307284768211921	-0.91994701986755	-0.272582781456954	-0.693509933774834	3.15973509933775				0.288529801324503	0.0634701986754967	-0.933721854304636	7.80291390728477	1.8635761589404	-1.45562913907285				0.884026490066225	0.0514966887417219	0.421933774834437	0.231788079470198	-2.18807947019868	3.02251655629139				0.207788079470199	-0.366834437086093	-0.852238410596026	0.0203973509933773	-4.32238410596027	-8.59470198675497			
39	880	-0.216158940397351	0.0667549668874172	-0.935523178807947	0.873377483443709	-0.144635761589404	-0.344900662251656				0.992953642384106	0.111788079470199	0.189139072847682	2.11390728476821	-9.49218543046358	0.25403973509934				-0.250172185430464	0.0467284768211921	-0.88794701986755	-1.11258278145695	0.986490066225167	2.03973509933775				0.288529801324503	0.0634701986754967	-0.949721854304636	7.80291390728477	2.4235761589404	-0.615629139072848				0.916026490066225	0.0514966887417219	0.421933774834437	-0.328211920529802	-1.06807947019868	3.86251655629139				0.207788079470199	-0.382834437086093	-0.852238410596026	0.580397350993377	-3.20238410596026	-12.794701986755			
40	900	-0.200158940397351	0.0827549668874172	-0.935523178807947	-0.806622516556291	-1.2646357615894	-0.0649006622516557				0.976953642384106	0.127788079470199	0.157139072847682	2.39390728476821	-12.5721854304636	-1.14596026490066				-0.234172185430464	0.0627284768211921	-0.87194701986755	0.847417218543046	-1.25350993377483	2.03973509933775				0.304529801324503	0.0634701986754967	-0.949721854304636	9.20291390728477	4.1035761589404	-2.01562913907285				0.916026490066225	0.0514966887417219	0.389933774834437	0.791788079470198	-2.18807947019868	3.02251655629139				0.191788079470199	-0.382834437086093	-0.852238410596026	2.26039735099338	-2.36238410596027	-13.354701986755			
41	920	-0.200158940397351	0.0827549668874172	-0.935523178807947	-0.246622516556291	-0.424635761589404	-0.0649006622516557				0.992953642384106	0.111788079470199	0.141139072847682	2.39390728476821	-12.5721854304636	-0.0259602649006601				-0.250172185430464	0.0467284768211921	-0.90394701986755	3.64741721854305	-0.413509933774833	0.63973509933775				0.304529801324503	0.0634701986754967	-0.949721854304636	6.96291390728477	2.9835761589404	-3.41562913907285				0	0	0	0	0	0				0.175788079470199	-0.398834437086093	-0.852238410596026	-0.819602649006623	-2.64238410596027	-11.394701986755			
42	940	-0.216158940397351	0.0667549668874172	-0.967523178807947	1.71337748344371	-1.8246357615894	-0.624900662251656				0.976953642384106	0.0957880794701987	0.157139072847682	2.11390728476821	-10.0521854304636	2.77403973509934				0	0	0	0	0	0				0	0	0	0	0	0				0	0	0	0	0	0				0	0	0	0	0	0			
43	1040	0	0	0	0	0	0				0	0	0	0	0	0				0	0	0	0	0	0				0.256529801324503	0.0314701986754967	-0.917721854304636	1.64291390728477	-2.3364238410596	-3.97562913907285				0.900026490066225	0.0354966887417219	0.389933774834437	4.9917880794702	-1.90807947019868	2.74251655629139				0	0	0	0	0	0			
44	1060	0	0	0	0	0	0				0	0	0	0	0	0				0	0	0	0	0	0				0.272529801324503	0.0314701986754967	-0.933721854304636	-0.317086092715232	-0.9364238410596	-2.29562913907285				0.900026490066225	0.0354966887417219	0.389933774834437	5.5517880794702	-2.46807947019868	2.46251655629139				0.207788079470199	-0.366834437086093	-0.852238410596026	0.300397350993377	-1.24238410596026	0.0852980132450323			
45	1080	-0.232158940397351	0.0667549668874172	-0.951523178807947	3.39337748344371	-1.8246357615894	-3.70490066225166				0.976953642384106	0.0797880794701987	0.141139072847682	1.83390728476821	-3.33218543046358	4.17403973509934				-0.250172185430464	-0.00127152317880793	-0.90394701986755	3.08741721854305	-0.133509933774833	-3.28026490066225				0.256529801324503	0.0314701986754967	-0.917721854304636	-0.597086092715232	-2.3364238410596	-1.45562913907285				0.884026490066225	0.0354966887417219	0.373933774834437	3.8717880794702	-2.46807947019868	2.74251655629139				0.191788079470199	-0.366834437086093	-0.836238410596026	2.26039735099338	-0.402384105960265	-0.754701986754968			
46	1100	-0.232158940397351	0.0667549668874172	-0.967523178807947	3.67337748344371	-0.704635761589404	-3.98490066225166				0.992953642384106	0.0797880794701987	0.141139072847682	0.433907284768212	-0.812185430463576	5.01403973509934				-0.266172185430464	-0.00127152317880793	-0.91994701986755	4.76741721854305	0.426490066225167	-3.00026490066225				0.256529801324503	0.0314701986754967	-0.933721854304636	0.242913907284768	-3.1764238410596	-0.895629139072848				0.884026490066225	0.0194966887417219	0.389933774834437	4.7117880794702	-1.34807947019868	2.74251655629139				0.191788079470199	-0.382834437086093	-0.852238410596026	1.42039735099338	-0.682384105960265	0.365298013245032			
47	1120	-0.232158940397351	0.0507549668874172	-0.935523178807947	3.95337748344371	0.975364238410596	-3.98490066225166				0.992953642384106	0.0637880794701987	0.157139072847682	-0.686092715231788	0.307814569536424	6.97403973509934				-0.250172185430464	0.0147284768211921	-0.91994701986755	7.00741721854305	1.26649006622517	-2.44026490066225				0.240529801324503	0.0314701986754967	-0.949721854304636	-0.0370860927152318	-3.1764238410596	-0.0556291390728476				0.884026490066225	0.0194966887417219	0.405933774834437	4.4317880794702	-0.788079470198675	1.90251655629139				0.207788079470199	-0.398834437086093	-0.852238410596026	-0.259602649006623	-0.962384105960265	0.925298013245032			
48	1140	-0.216158940397351	0.0347549668874172	-0.903523178807947	3.95337748344371	0.415364238410596	-4.54490066225166				0.992953642384106	0.0637880794701987	0.157139072847682	0.713907284768212	-3.05218543046358	4.45403973509934				-0.234172185430464	0.0147284768211921	-0.85594701986755	4.48741721854305	1.82649006622517	-2.16026490066225				0.256529801324503	0.0154701986754967	-0.933721854304636	-0.597086092715232	-2.6164238410596	1.90437086092715				0.900026490066225	0.0194966887417219	0.405933774834437	2.4717880794702	0.331920529801325	2.18251655629139				0.191788079470199	-0.414834437086093	-0.836238410596026	-1.09960264900662	-0.122384105960265	0.925298013245032			
49	1160	-0.232158940397351	0.0667549668874172	-0.935523178807947	3.67337748344371	0.135364238410596	-3.42490066225166				0.976953642384106	0.0797880794701987	0.141139072847682	2.67390728476821	-5.85218543046358	2.77403973509934				-0.250172185430464	-0.00127152317880793	-0.85594701986755	3.36741721854305	0.706490066225167	-1.32026490066225				0.272529801324503	0.0154701986754967	-0.949721854304636	-1.71708609271523	-2.8964238410596	3.02437086092715				0.916026490066225	0.00349668874172187	0.389933774834437	1.0717880794702	0.331920529801325	2.46251655629139				0.207788079470199	-0.398834437086093	-0.852238410596026	-1.09960264900662	0.717615894039735	-0.194701986754968			
50	1180	-0.232158940397351	0.0347549668874172	-0.935523178807947	2.27337748344371	-0.704635761589404	-3.14490066225166				0.976953642384106	0.0797880794701987	0.125139072847682	1.55390728476821	-3.05218543046358	2.49403973509934				-0.250172185430464	-0.0172715231788079	-0.88794701986755	4.76741721854305	-0.133509933774833	-1.32026490066225				0.256529801324503	0.0154701986754967	-0.949721854304636	-1.71708609271523	-4.2964238410596	3.86437086092715				0.900026490066225	0.0194966887417219	0.389933774834437	0.791788079470198	-0.508079470198675	0.502516556291392				0.191788079470199	-0.398834437086093	-0.852238410596026	-0.539602649006623	0.997615894039735	-0.194701986754968			
51	1200	-0.232158940397351	0.0347549668874172	-0.951523178807947	1.71337748344371	-0.424635761589404	-3.70490066225166				0.992953642384106	0.0797880794701987	0.125139072847682	-1.52609271523179	-1.09218543046358	2.77403973509934				-0.250172185430464	-0.00127152317880793	-0.90394701986755	3.64741721854305	-0.133509933774833	-0.48026490066225				0.256529801324503	0.0154701986754967	-0.949721854304636	-0.877086092715232	-4.5764238410596	4.98437086092715				0.900026490066225	0.0194966887417219	0.389933774834437	-0.888211920529802	-2.18807947019868	0.782516556291392				0.191788079470199	-0.398834437086093	-0.852238410596026	-1.09960264900662	-0.122384105960265	0.645298013245032			
52	1220	-0.248158940397351	0.0187549668874172	-0.951523178807947	1.71337748344371	-0.984635761589404	-3.70490066225166				1.00895364238411	0.0797880794701987	0.141139072847682	-1.52609271523179	-3.89218543046358	2.77403973509934				-0.266172185430464	-0.00127152317880793	-0.88794701986755	1.68741721854305	-0.133509933774833	0.35973509933775				0.256529801324503	0.0154701986754967	-0.949721854304636	-0.597086092715232	-4.2964238410596	6.10437086092715				0.900026490066225	0.0194966887417219	0.389933774834437	-1.1682119205298	-0.788079470198675	0.502516556291392				0.191788079470199	-0.398834437086093	-0.868238410596026	-1.09960264900662	0.717615894039735	0.645298013245032			
53	1240	-0.232158940397351	0.0347549668874172	-0.951523178807947	1.71337748344371	-0.424635761589404	-3.42490066225166				0.992953642384106	0.0637880794701987	0.109139072847682	-0.406092715231788	-5.85218543046358	2.77403973509934				-0.266172185430464	-0.00127152317880793	-0.88794701986755	0.00741721854304636	0.146490066225167	0.0797350993377501				0.256529801324503	0.0154701986754967	-0.949721854304636	-3.11708609271523	-4.0164238410596	5.26437086092715				0.916026490066225	0.0194966887417219	0.389933774834437	-1.1682119205298	-1.34807947019868	-0.0574834437086077				0.191788079470199	-0.398834437086093	-0.852238410596026	0.0203973509933773	1.55761589403974	0.645298013245032			
54	1260	-0.232158940397351	0.0187549668874172	-0.935523178807947	0.593377483443709	-0.424635761589404	-3.70490066225166				0.992953642384106	0.0637880794701987	0.109139072847682	0.713907284768212	-3.89218543046358	3.05403973509934				-0.266172185430464	-0.00127152317880793	-0.88794701986755	1.96741721854305	0.986490066225167	-1.04026490066225				0.256529801324503	0.0314701986754967	-0.949721854304636	-3.11708609271523	-3.4564238410596	3.86437086092715				0.916026490066225	0.0194966887417219	0.389933774834437	-4.8082119205298	0.611920529801325	-0.897483443708608				0.175788079470199	-0.398834437086093	-0.868238410596026	1.14039735099338	1.55761589403974	1.48529801324503			
55	1280	-0.248158940397351	0.00275496688741723	-0.951523178807947	1.99337748344371	0.695364238410596	-3.70490066225166				0.992953642384106	0.0637880794701987	0.125139072847682	0.433907284768212	-5.85218543046358	3.33403973509934				-0.266172185430464	-0.00127152317880793	-0.88794701986755	1.12741721854305	1.26649006622517	-0.48026490066225				0.256529801324503	0.0474701986754967	-0.933721854304636	-1.43708609271523	-0.6564238410596	3.30437086092715				0.916026490066225	0.0194966887417219	0.389933774834437	-2.8482119205298	-1.06807947019868	0.222516556291392				0.175788079470199	-0.398834437086093	-0.868238410596026	-1.09960264900662	1.83761589403974	0.925298013245032			
56	1300	-0.232158940397351	0.0187549668874172	-0.951523178807947	0.313377483443709	0.135364238410596	-2.30490066225166				0.992953642384106	0.0637880794701987	0.0931390728476822	1.55390728476821	-6.97218543046358	3.33403973509934				-0.234172185430464	-0.00127152317880793	-0.87194701986755	0.567417218543046	0.706490066225167	-0.48026490066225				0.256529801324503	0.0314701986754967	-0.917721854304636	1.08291390728477	1.0235761589404	3.86437086092715				0.916026490066225	0.00349668874172187	0.389933774834437	-3.1282119205298	-0.228079470198675	1.06251655629139				0.191788079470199	-0.398834437086093	-0.868238410596026	-1.93960264900662	2.67761589403974	0.925298013245032			
57	1320	-0.232158940397351	0.0187549668874172	-0.935523178807947	-0.526622516556291	1.2553642384106	-1.18490066225166				0.992953642384106	0.0637880794701987	0.0931390728476822	0.713907284768212	-7.25218543046358	2.77403973509934				-0.234172185430464	-0.0172715231788079	-0.88794701986755	0.00741721854304636	0.986490066225167	-0.76026490066225				0.256529801324503	0.0314701986754967	-0.933721854304636	2.76291390728477	1.0235761589404	4.42437086092715				0.916026490066225	0.0194966887417219	0.389933774834437	-5.0882119205298	-1.62807947019868	1.06251655629139				0.175788079470199	-0.382834437086093	-0.884238410596026	1.14039735099338	1.55761589403974	-0.754701986754968			
58	1340	-0.232158940397351	0.0187549668874172	-0.951523178807947	0.313377483443709	1.5353642384106	-1.18490066225166				0.976953642384106	0.0637880794701987	0.0931390728476822	-0.686092715231788	-5.01218543046358	3.33403973509934				-0.250172185430464	-0.0172715231788079	-0.90394701986755	-0.272582781456954	1.26649006622517	0.0797350993377501				0.256529801324503	0.0314701986754967	-0.965721854304636	3.60291390728477	2.9835761589404	3.86437086092715				0.916026490066225	0.0194966887417219	0.373933774834437	-2.8482119205298	-2.18807947019868	1.90251655629139				0.175788079470199	-0.398834437086093	-0.868238410596026	2.54039735099338	1.55761589403974	-0.474701986754968			
59	1360	-0.232158940397351	0.0347549668874172	-0.951523178807947	2.83337748344371	2.3753642384106	-0.624900662251656				0.976953642384106	0.0477880794701987	0.109139072847682	-1.24609271523179	-1.09218543046358	2.21403973509934				-0.234172185430464	-0.00127152317880793	-0.88794701986755	-0.272582781456954	1.54649006622517	-0.48026490066225				0.272529801324503	0.0314701986754967	-0.949721854304636	2.20291390728477	2.1435761589404	4.42437086092715				0.900026490066225	0.0194966887417219	0.373933774834437	-1.4482119205298	-2.18807947019868	2.18251655629139				0.175788079470199	-0.398834437086093	-0.868238410596026	1.42039735099338	0.157615894039735	0.645298013245032			
60	1380	-0.216158940397351	0.0507549668874172	-0.935523178807947	-0.806622516556291	1.5353642384106	-0.0649006622516557				0.976953642384106	0.0637880794701987	0.141139072847682	-0.966092715231788	-0.532185430463576	1.65403973509934				-0.250172185430464	0.0147284768211921	-0.88794701986755	0.567417218543046	0.706490066225167	0.0797350993377501				0.256529801324503	0.0314701986754967	-0.933721854304636	3.32291390728477	0.7435761589404	3.02437086092715				0.900026490066225	0.00349668874172187	0.389933774834437	-1.1682119205298	-2.18807947019868	2.74251655629139				0.175788079470199	-0.398834437086093	-0.852238410596026	-0.539602649006623	-0.122384105960265	2.60529801324503			
61	1400	-0.216158940397351	0.0507549668874172	-0.919523178807947	-1.08662251655629	1.8153642384106	-0.0649006622516557				0.976953642384106	0.0797880794701987	0.125139072847682	-0.406092715231788	1.98781456953642	0.81403973509934				-0.250172185430464	-0.00127152317880793	-0.88794701986755	-0.832582781456954	0.986490066225167	0.63973509933775				0.256529801324503	0.0154701986754967	-0.949721854304636	1.92291390728477	0.4635761589404	1.62437086092715				0.884026490066225	0.0194966887417219	0.389933774834437	-0.608211920529802	-1.62807947019868	2.46251655629139				0.175788079470199	-0.382834437086093	-0.836238410596026	-0.259602649006623	-0.682384105960265	3.16529801324503			
62	1420	-0.232158940397351	0.0507549668874172	-0.967523178807947	1.43337748344371	1.5353642384106	-0.0649006622516557				0.976953642384106	0.0637880794701987	0.141139072847682	-0.406092715231788	2.82781456953642	0.81403973509934				-0.250172185430464	-0.0172715231788079	-0.88794701986755	0.00741721854304636	1.54649006622517	0.35973509933775				0.256529801324503	0.0154701986754967	-0.933721854304636	0.802913907284768	-0.6564238410596	0.224370860927152				0.884026490066225	0.0194966887417219	0.373933774834437	0.791788079470198	-0.788079470198675	2.18251655629139				0.175788079470199	-0.398834437086093	-0.836238410596026	-0.259602649006623	-0.122384105960265	2.60529801324503			
63	1440	-0.200158940397351	0.0507549668874172	-0.951523178807947	0.0333774834437086	1.2553642384106	-1.18490066225166				0.960953642384106	0.0637880794701987	0.125139072847682	-1.52609271523179	3.66781456953642	1.37403973509934				-0.234172185430464	-0.0172715231788079	-0.87194701986755	0.00741721854304636	0.986490066225167	0.0797350993377501				0.272529801324503	0.0314701986754967	-0.949721854304636	0.242913907284768	0.4635761589404	-0.615629139072848				0.884026490066225	0.00349668874172187	0.389933774834437	0.511788079470198	0.891920529801325	1.90251655629139				0.175788079470199	-0.382834437086093	-0.820238410596026	-2.21960264900662	1.55761589403974	2.60529801324503			
64	1460	-0.216158940397351	0.0347549668874172	-0.919523178807947	-2.48662251655629	0.415364238410596	-1.18490066225166				0.960953642384106	0.0637880794701987	0.141139072847682	-1.24609271523179	1.98781456953642	1.93403973509934				-0.234172185430464	0.0147284768211921	-0.88794701986755	-0.552582781456954	0.146490066225167	0.35973509933775				0.272529801324503	0.0314701986754967	-0.949721854304636	-0.317086092715232	0.7435761589404	-1.17562913907285				0.884026490066225	0.00349668874172187	0.389933774834437	2.1917880794702	0.611920529801325	1.06251655629139				0.191788079470199	-0.382834437086093	-0.836238410596026	-1.37960264900662	2.67761589403974	1.48529801324503			
65	1480	-0.216158940397351	0.0347549668874172	-0.951523178807947	-0.246622516556291	0.135364238410596	-1.18490066225166				0.976953642384106	0.0637880794701987	0.141139072847682	-0.686092715231788	3.10781456953642	1.65403973509934				-0.250172185430464	-0.00127152317880793	-0.88794701986755	-2.51258278145695	-0.133509933774833	1.19973509933775				0.288529801324503	0.0314701986754967	-0.933721854304636	-0.0370860927152318	0.4635761589404	-1.45562913907285				0.868026490066225	0.0194966887417219	0.389933774834437	2.1917880794702	0.331920529801325	1.06251655629139				0.191788079470199	-0.366834437086093	-0.836238410596026	-1.09960264900662	2.11761589403974	-0.754701986754968			
66	1500	-0.216158940397351	0.0507549668874172	-0.951523178807947	0.0333774834437086	0.695364238410596	-1.46490066225166				0.992953642384106	0.0637880794701987	0.141139072847682	0.433907284768212	2.82781456953642	1.37403973509934				-0.250172185430464	-0.00127152317880793	-0.88794701986755	1.12741721854305	0.986490066225167	0.63973509933775				0.272529801324503	0.0314701986754967	-0.933721854304636	-1.15708609271523	-2.0564238410596	-1.73562913907285				0.868026490066225	0.0194966887417219	0.389933774834437	2.1917880794702	0.891920529801325	0.502516556291392				0.191788079470199	-0.382834437086093	-0.820238410596026	0.580397350993377	2.39761589403974	-0.754701986754968			
67	1520	-0.216158940397351	0.0507549668874172	-0.935523178807947	-2.48662251655629	0.695364238410596	-0.344900662251656				0.976953642384106	0.0637880794701987	0.157139072847682	-1.52609271523179	4.50781456953642	1.65403973509934				-0.234172185430464	-0.00127152317880793	-0.88794701986755	0.287417218543046	-0.413509933774833	0.35973509933775				0.272529801324503	0.0314701986754967	-0.917721854304636	-3.39708609271523	-2.3364238410596	-2.29562913907285				0.884026490066225	0.0194966887417219	0.405933774834437	2.1917880794702	1.73192052980133	-0.337483443708608				0.191788079470199	-0.398834437086093	-0.836238410596026	0.0203973509933773	2.11761589403974	-0.194701986754968			
68	1540	-0.200158940397351	0.0347549668874172	-0.935523178807947	-0.526622516556291	0.975364238410596	-1.18490066225166				0.976953642384106	0.0477880794701987	0.157139072847682	-1.24609271523179	4.50781456953642	1.37403973509934				-0.218172185430464	-0.00127152317880793	-0.87194701986755	-1.95258278145695	0.146490066225167	0.63973509933775				0.272529801324503	0.0314701986754967	-0.917721854304636	-3.67708609271523	-1.2164238410596	-2.29562913907285				0.884026490066225	0.0194966887417219	0.405933774834437	2.1917880794702	1.17192052980133	-1.17748344370861				0.223788079470199	-0.398834437086093	-0.836238410596026	-1.09960264900662	2.67761589403974	0.0852980132450323			
69	1560	-0.216158940397351	0.0347549668874172	-0.951523178807947	1.43337748344371	-0.144635761589404	-0.0649006622516557				0.976953642384106	0.0637880794701987	0.157139072847682	-0.406092715231788	2.54781456953642	0.53403973509934				-0.234172185430464	0.0147284768211921	-0.87194701986755	-1.39258278145695	-0.973509933774833	0.0797350993377501				0.272529801324503	0.0474701986754967	-0.933721854304636	-2.83708609271523	0.4635761589404	-2.29562913907285				0.868026490066225	0.0194966887417219	0.421933774834437	3.3117880794702	2.29192052980133	0.222516556291392				0.223788079470199	-0.398834437086093	-0.836238410596026	0.580397350993377	2.11761589403974	-0.194701986754968			
70	1580	-0.232158940397351	0.0507549668874172	-0.935523178807947	0.0333774834437086	-0.984635761589404	-2.02490066225166				0.992953642384106	0.0637880794701987	0.141139072847682	0.713907284768212	-0.252185430463576	-0.585960264900661				-0.250172185430464	0.0147284768211921	-0.88794701986755	-0.272582781456954	-1.25350993377483	-0.48026490066225				0.288529801324503	0.0474701986754967	-0.917721854304636	-1.71708609271523	0.1835761589404	-2.01562913907285				0.900026490066225	0.0194966887417219	0.389933774834437	0.791788079470198	1.45192052980132	-0.617483443708608				0.207788079470199	-0.414834437086093	-0.852238410596026	1.70039735099338	0.437615894039735	-0.474701986754968			
71	1600	-0.232158940397351	0.0347549668874172	-0.951523178807947	-1.08662251655629	0.135364238410596	-0.344900662251656				0.992953642384106	0.0797880794701987	0.141139072847682	-1.24609271523179	1.70781456953642	0.81403973509934				-0.250172185430464	-0.00127152317880793	-0.90394701986755	-1.11258278145695	-0.413509933774833	-0.48026490066225				0.272529801324503	0.0314701986754967	-0.917721854304636	-0.877086092715232	-0.0964238410596001	-1.45562913907285				0.884026490066225	0.0194966887417219	0.405933774834437	3.3117880794702	0.331920529801325	-1.17748344370861				0.223788079470199	-0.414834437086093	-0.836238410596026	0.0203973509933773	1.27761589403974	0.925298013245032			
72	1620	-0.216158940397351	0.0347549668874172	-0.935523178807947	-0.526622516556291	0.135364238410596	-1.18490066225166				0.976953642384106	0.0637880794701987	0.141139072847682	-4.04609271523179	2.26781456953642	0.25403973509934				-0.250172185430464	-0.00127152317880793	-0.90394701986755	0.287417218543046	0.706490066225167	-0.20026490066225				0.256529801324503	0.0314701986754967	-0.933721854304636	-0.877086092715232	0.7435761589404	-2.01562913907285				0.868026490066225	0.0194966887417219	0.421933774834437	-0.0482119205298018	1.17192052980133	-1.17748344370861				0.223788079470199	-0.398834437086093	-0.836238410596026	0.580397350993377	1.27761589403974	0.365298013245032			
73	1640	-0.216158940397351	0.0507549668874172	-0.935523178807947	-0.526622516556291	0.415364238410596	-1.18490066225166				0.992953642384106	0.0637880794701987	0.173139072847682	-1.52609271523179	0.587814569536424	0.25403973509934				-0.234172185430464	0.0147284768211921	-0.87194701986755	0.847417218543046	0.986490066225167	-0.48026490066225				0.256529801324503	0.0474701986754967	-0.933721854304636	-1.15708609271523	1.5835761589404	-2.01562913907285				0.884026490066225	0.0354966887417219	0.389933774834437	-2.5682119205298	3.13192052980133	-2.01748344370861				0.223788079470199	-0.398834437086093	-0.852238410596026	0.300397350993377	2.11761589403974	2.04529801324503			
74	1660	-0.216158940397351	0.0507549668874172	-0.935523178807947	0.313377483443709	-0.704635761589404	-1.18490066225166				0.992953642384106	0.0637880794701987	0.157139072847682	2.39390728476821	-3.61218543046358	0.81403973509934				-0.234172185430464	-0.00127152317880793	-0.87194701986755	0.287417218543046	-0.413509933774833	-0.48026490066225				0.272529801324503	0.0474701986754967	-0.933721854304636	-0.877086092715232	2.4235761589404	0.224370860927152				0.900026490066225	0.0194966887417219	0.421933774834437	-0.888211920529802	2.29192052980133	-1.45748344370861				0.223788079470199	-0.398834437086093	-0.852238410596026	1.42039735099338	1.55761589403974	1.48529801324503			
75	1680	-0.216158940397351	0.0507549668874172	-0.967523178807947	-0.246622516556291	-0.424635761589404	-0.624900662251656				0.992953642384106	0.0637880794701987	0.141139072847682	1.55390728476821	-3.89218543046358	-0.30596026490066				-0.250172185430464	0.0147284768211921	-0.90394701986755	0.567417218543046	-0.693509933774834	-0.76026490066225				0.288529801324503	0.0314701986754967	-0.949721854304636	0.242913907284768	2.1435761589404	1.34437086092715				0.916026490066225	0.0194966887417219	0.405933774834437	-2.2882119205298	2.01192052980133	-0.0574834437086077				0.223788079470199	-0.398834437086093	-0.852238410596026	2.26039735099338	2.11761589403974	1.76529801324503			
76	1700	-0.232158940397351	0.0347549668874172	-0.951523178807947	0.593377483443709	0.415364238410596	-0.904900662251656				0.992953642384106	0.0797880794701987	0.141139072847682	-0.686092715231788	-1.65218543046358	-0.0259602649006601				-0.250172185430464	-0.00127152317880793	-0.90394701986755	-0.832582781456954	0.146490066225167	0.0797350993377501				0.288529801324503	0.0474701986754967	-0.917721854304636	-0.597086092715232	1.3035761589404	1.34437086092715				0.900026490066225	0.0194966887417219	0.405933774834437	-2.2882119205298	0.611920529801325	-1.45748344370861				0.207788079470199	-0.414834437086093	-0.852238410596026	0.860397350993377	1.83761589403974	2.04529801324503			
77	1720	-0.216158940397351	0.0347549668874172	-0.951523178807947	1.15337748344371	1.2553642384106	-0.624900662251656				0.992953642384106	0.0797880794701987	0.141139072847682	-1.52609271523179	-2.49218543046358	0.53403973509934				-0.234172185430464	0.0147284768211921	-0.90394701986755	-0.552582781456954	0.986490066225167	-0.48026490066225				0.272529801324503	0.0474701986754967	-0.949721854304636	0.522913907284768	3.5435761589404	1.34437086092715				0.884026490066225	0.0354966887417219	0.405933774834437	-2.8482119205298	0.0519205298013249	-1.45748344370861				0.207788079470199	-0.398834437086093	-0.836238410596026	0.860397350993377	2.39761589403974	2.88529801324503			
78	1740	-0.216158940397351	0.0507549668874172	-0.935523178807947	-0.526622516556291	0.695364238410596	-0.344900662251656				0.992953642384106	0.0637880794701987	0.141139072847682	0.153907284768212	-5.01218543046358	0.25403973509934				-0.234172185430464	0.0147284768211921	-0.87194701986755	1.12741721854305	-0.133509933774833	-0.20026490066225				0.288529801324503	0.0314701986754967	-0.933721854304636	1.36291390728477	4.6635761589404	2.74437086092715				0.884026490066225	0.0354966887417219	0.421933774834437	-1.1682119205298	1.45192052980132	-0.337483443708608				0.207788079470199	-0.398834437086093	-0.836238410596026	0.0203973509933773	3.23761589403974	4.84529801324503			
79	1760	-0.216158940397351	0.0347549668874172	-0.935523178807947	-2.20662251655629	0.415364238410596	-0.624900662251656				0.976953642384106	0.0797880794701987	0.141139072847682	-0.126092715231788	-7.81218543046358	-0.86596026490066				-0.234172185430464	-0.00127152317880793	-0.88794701986755	0.847417218543046	-0.133509933774833	-0.48026490066225				0.288529801324503	0.0474701986754967	-0.949721854304636	0.242913907284768	4.1035761589404	1.90437086092715				0.900026490066225	0.0194966887417219	0.405933774834437	-0.888211920529802	1.17192052980133	-0.617483443708608				0.223788079470199	-0.398834437086093	-0.836238410596026	0.580397350993377	3.79761589403974	5.96529801324503			
80	1780	-0.216158940397351	0.0347549668874172	-0.935523178807947	-1.92662251655629	-0.424635761589404	-0.904900662251656				0.976953642384106	0.0797880794701987	0.125139072847682	0.153907284768212	-8.37218543046358	-1.14596026490066				-0.250172185430464	-0.00127152317880793	-0.87194701986755	0.847417218543046	0.706490066225167	-0.48026490066225				0.288529801324503	0.0314701986754967	-0.933721854304636	1.08291390728477	3.8235761589404	1.90437086092715				0.900026490066225	0.0194966887417219	0.405933774834437	-1.1682119205298	0.331920529801325	-1.17748344370861				0.223788079470199	-0.398834437086093	-0.820238410596026	-0.539602649006623	3.23761589403974	5.40529801324503			
81	1800	-0.216158940397351	0.0507549668874172	-0.951523178807947	-1.36662251655629	-0.424635761589404	-0.344900662251656				0.976953642384106	0.0797880794701987	0.109139072847682	1.27390728476821	-8.65218543046358	-0.86596026490066				-0.234172185430464	0.0147284768211921	-0.88794701986755	1.40741721854305	0.146490066225167	-0.48026490066225				0.288529801324503	0.0314701986754967	-0.917721854304636	0.242913907284768	1.3035761589404	2.74437086092715				0.884026490066225	0.0354966887417219	0.389933774834437	-1.4482119205298	0.331920529801325	-0.897483443708608				0.223788079470199	-0.398834437086093	-0.836238410596026	-1.93960264900662	2.39761589403974	5.96529801324503			
82	1820	-0.216158940397351	0.0507549668874172	-0.951523178807947	-1.36662251655629	0.695364238410596	-0.344900662251656				0.992953642384106	0.0797880794701987	0.0931390728476822	-0.406092715231788	-10.0521854304636	-2.82596026490066				-0.250172185430464	0.0147284768211921	-0.88794701986755	2.52741721854305	-0.133509933774833	-0.20026490066225				0.272529801324503	0.0154701986754967	-0.949721854304636	-0.0370860927152318	0.7435761589404	3.86437086092715				0.884026490066225	0.0194966887417219	0.405933774834437	-2.2882119205298	0.331920529801325	-0.617483443708608				0.223788079470199	-0.414834437086093	-0.836238410596026	-2.49960264900662	1.55761589403974	7.92529801324503			
83	1840	-0.216158940397351	0.0507549668874172	-0.935523178807947	-0.806622516556291	0.975364238410596	-0.0649006622516557				1.00895364238411	0.0637880794701987	0.109139072847682	-5.72609271523179	-13.4121854304636	-4.50596026490066				-0.250172185430464	0.0147284768211921	-0.88794701986755	2.80741721854305	0.146490066225167	-0.20026490066225				0.256529801324503	0.0314701986754967	-0.949721854304636	0.802913907284768	1.0235761589404	4.14437086092715				0.900026490066225	0.0194966887417219	0.405933774834437	-4.8082119205298	0.0519205298013249	-1.45748344370861				0.223788079470199	-0.414834437086093	-0.852238410596026	-2.49960264900662	1.27761589403974	8.20529801324503			
84	1860	-0.216158940397351	0.0347549668874172	-0.935523178807947	-3.32662251655629	0.135364238410596	0.215099337748344				1.02495364238411	0.111788079470199	0.109139072847682	-2.64609271523179	-17.6121854304636	-5.62596026490066				-0.250172185430464	0.0147284768211921	-0.88794701986755	3.08741721854305	0.146490066225167	-0.48026490066225				0.256529801324503	0.0314701986754967	-0.949721854304636	1.08291390728477	2.4235761589404	5.26437086092715				0.900026490066225	0.0194966887417219	0.405933774834437	-6.4882119205298	-0.788079470198675	-2.85748344370861				0.223788079470199	-0.446834437086093	-0.852238410596026	-1.09960264900662	-1.24238410596026	10.445298013245			
85	1880	-0.216158940397351	0.0507549668874172	-0.935523178807947	-5.84662251655629	-0.704635761589404	1.05509933774834				1.00895364238411	0.0797880794701987	0.109139072847682	3.23390728476821	-23.7721854304636	-5.62596026490066				-0.266172185430464	0.0147284768211921	-0.88794701986755	3.92741721854305	-0.413509933774833	-0.48026490066225				0.272529801324503	0.0314701986754967	-0.949721854304636	1.64291390728477	1.8635761589404	6.94437086092715				0.900026490066225	0.0354966887417219	0.405933774834437	-9.8482119205298	1.45192052980132	-4.53748344370861				0.223788079470199	-0.430834437086093	-0.884238410596026	-0.539602649006623	-4.88238410596027	14.365298013245			
86	1900	-0.248158940397351	0.0507549668874172	-0.951523178807947	-6.12662251655629	-0.984635761589404	1.33509933774834				1.02495364238411	0.0637880794701987	0.0771390728476822	-1.80609271523179	-30.7721854304636	-5.90596026490066				-0.266172185430464	0.0147284768211921	-0.88794701986755	2.80741721854305	0.426490066225167	-0.48026490066225				0.304529801324503	0.0314701986754967	-0.981721854304636	4.16291390728477	-0.3764238410596	7.50437086092715				0.916026490066225	0.0354966887417219	0.421933774834437	-7.8882119205298	-0.508079470198675	-2.29748344370861				0.223788079470199	-0.414834437086093	-0.900238410596026	-1.09960264900662	-4.32238410596027	18.005298013245			
87	1920	-0.264158940397351	0.0347549668874172	-0.951523178807947	-4.72662251655629	1.2553642384106	1.33509933774834				1.05695364238411	0.0637880794701987	0.0771390728476822	-3.48609271523179	-31.0521854304636	-5.90596026490066				-0.250172185430464	-0.00127152317880793	-0.87194701986755	4.20741721854305	1.54649006622517	-1.32026490066225				0.320529801324503	0.0154701986754967	-0.997721854304636	4.72291390728477	-6.2564238410596	11.7043708609272				0.948026490066225	0.0194966887417219	0.421933774834437	-5.3682119205298	-0.788079470198675	-0.897483443708608				0.191788079470199	-0.366834437086093	-0.900238410596026	-0.819602649006623	-2.64238410596027	16.885298013245			
88	1940	-0.248158940397351	0.0347549668874172	-0.951523178807947	-5.00662251655629	3.2153642384106	0.215099337748344				1.05695364238411	0.0637880794701987	0.0451390728476822	-2.64609271523179	-29.3721854304636	-5.06596026490066				-0.266172185430464	-0.00127152317880793	-0.88794701986755	2.80741721854305	0.986490066225167	-2.44026490066225				0.304529801324503	-0.000529801324503289	-1.01372185430464	3.32291390728477	-8.4964238410596	14.7843708609272				0.980026490066225	0.0194966887417219	0.405933774834437	-5.9282119205298	-0.788079470198675	-1.45748344370861				0.159788079470199	-0.382834437086093	-0.900238410596026	4.22039735099338	-2.36238410596027	15.485298013245			
89	2060	0	0	0	0	0	0				0	0	0	0	0	0				0	0	0	0	0	0				0	0	0	0	0	0				1.06002649006623	-0.0125033112582781	0.293933774834437	-9.0082119205298	-5.82807947019868	-4.53748344370861				0	0	0	0	0	0			
90	2080	0	0	0	0	0	0				1.02495364238411	0.0157880794701987	-0.290860927152318	-5.44609271523179	-39.7321854304636	5.57403973509934				-0.218172185430464	-0.0332715231788079	-0.96794701986755	-10.912582781457	1.54649006622517	25.8397350993378				0.0805298013245033	-0.0325298013245033	-1.09372185430464	-0.0370860927152318	-15.4964238410596	25.7043708609272				1.09202649006623	-0.0285033112582781	0.245933774834437	-8.7282119205298	-8.62807947019868	-0.897483443708608				0.0157880794701987	-0.446834437086093	-0.996238410596026	-19.0196026490066	-16.3623841059603	5.40529801324503			
91	2100	-0.312158940397351	0.130754966887417	-1.12752317880795	-44.2066225165563	9.0953642384106	8.89509933774834				0.896953642384106	0.0477880794701987	-0.258860927152318	-24.4860927152318	-17.6121854304636	5.57403973509934				-0.234172185430464	0.0467284768211921	-0.98394701986755	1.40741721854305	-0.413509933774833	21.9197350993378				0.0805298013245033	-0.0645298013245033	-1.10972185430464	-3.39708609271523	-16.3364238410596	28.2243708609272				1.10802649006623	-0.0925033112582781	0.229933774834437	-7.6082119205298	-14.2280794701987	0.782516556291392				-0.0322119205298013	-0.382834437086093	-1.02823841059603	-29.9396026490066	-9.64238410596027	12.125298013245			
92	2120	-0.264158940397351	0.162754966887417	-0.967523178807947	-40.8466225165563	23.3753642384106	6.65509933774834				0.960953642384106	0.0637880794701987	-0.306860927152318	-26.4460927152318	0.0278145695364242	6.41403973509934				-0.314172185430464	0.0627284768211921	-1.03194701986755	2.24741721854305	9.10649006622517	15.7597350993378				0.0645298013245033	-0.0485298013245033	-1.09372185430464	-8.99708609271523	-20.2564238410596	32.9843708609272				1.09202649006623	-0.0925033112582781	0.245933774834437	-8.4482119205298	-17.5880794701987	0.502516556291392				-0.0482119205298013	-0.318834437086093	-1.06023841059603	-35.5396026490066	-8.24238410596027	11.005298013245			
93	2140	-0.280158940397351	0.178754966887417	-1.09552317880795	-15.3666225165563	25.6153642384106	6.93509933774835				1.08895364238411	0.0317880794701987	-0.146860927152318	-9.64609271523179	24.1078145695364	16.2140397350993				-0.378172185430464	0.174728476821192	-1.09594701986755	-10.352582781457	10.2264900662252	10.7197350993378				0.0485298013245033	-0.0485298013245033	-1.07772185430464	10.3229139072848	-9.8964238410596	38.5843708609272				1.07602649006623	-0.0765033112582781	0.277933774834437	-2.8482119205298	-15.3480794701987	5.54251655629139				-0.0802119205298013	-0.350834437086093	-1.10823841059603	-28.5396026490066	-11.0423841059603	10.725298013245			
94	2160	-0.312158940397351	0.0827549668874172	-1.07952317880795	-35.8066225165563	33.4553642384106	9.73509933774834				1.20095364238411	0.175788079470199	0.0611390728476822	-0.406092715231788	29.9878145695364	13.6940397350993				-0.426172185430464	0.110728476821192	-1.04794701986755	-23.792582781457	14.7064900662252	1.47973509933775				0.0485298013245033	-0.0325298013245033	-1.12572185430464	23.7629139072848	-0.9364238410596	40.2643708609272				1.14002649006623	-0.0765033112582781	0.341933774834437	5.5517880794702	-8.62807947019868	8.90251655629139				-0.112211920529801	-0.446834437086093	-1.04423841059603	-18.1796026490066	-3.48238410596027	12.965298013245			
95	2180	-0.328158940397351	0.114754966887417	-1.07952317880795	-29.3666225165563	33.1753642384106	8.33509933774834				1.16895364238411	0.271788079470199	0.0131390728476822	6.59390728476821	19.6278145695364	1.93403973509934				-0.554172185430464	0.110728476821192	-0.99994701986755	-19.032582781457	27.8664900662252	-6.08026490066225				0.0805298013245033	0.0794701986754967	-1.15772185430464	34.6829139072848	15.3035761589404	27.9443708609272				1.22002649006623	-0.0125033112582781	0.309933774834437	-1.4482119205298	2.01192052980133	3.30251655629139				-0.0482119205298013	-0.366834437086093	-1.06023841059603	-33.2996026490066	20.8776158940397	8.20529801324503			
96	2200	-0.424158940397351	0.0987549668874172	-1.07952317880795	-27.9666225165563	42.6953642384106	6.65509933774834				1.10495364238411	-0.0322119205298013	-0.194860927152318	2.39390728476821	31.1078145695364	-7.58596026490066				-0.506172185430464	0.0787284768211921	-1.07994701986755	-23.232582781457	38.5064900662252	-6.64026490066225				0.240529801324503	0.0154701986754967	-1.17372185430464	47.0029139072848	27.6235761589404	14.7843708609272				1.15602649006623	0.00349668874172187	0.229933774834437	0.511788079470198	4.53192052980133	-3.13748344370861				-0.0162119205298013	-0.238834437086093	-0.996238410596026	-29.9396026490066	35.1576158940397	0.365298013245032			
97	2220	-0.280158940397351	0.178754966887417	-1.04752317880795	-31.8866225165563	53.0553642384106	9.73509933774834				1.42495364238411	0.0317880794701987	0.0131390728476822	-23.6460927152318	84.8678145695364	-1.98596026490066				-0.298172185430464	-0.0172715231788079	-1.06394701986755	-16.232582781457	51.3864900662252	-1.04026490066225				0.480529801324503	-0.0965298013245033	-1.17372185430464	41.6829139072848	26.2235761589404	13.1043708609272				1.01202649006623	0.00349668874172187	0.453933774834437	29.3517880794702	2.85192052980133	-8.17748344370861				-0.0162119205298013	-0.222834437086093	-1.02823841059603	-13.4196026490066	30.6776158940397	-11.394701986755			
98	2240	-0.216158940397351	0.258754966887417	-1.03152317880795	-31.3266225165563	61.1753642384106	10.0150993377483				1.36095364238411	0.287788079470199	0.253139072847682	-30.9260927152318	66.3878145695364	-1.14596026490066				-0.250172185430464	-0.0812715231788079	-0.93594701986755	-31.912582781457	56.4264900662252	4.55973509933775				0.496529801324503	-0.144529801324503	-1.25372185430464	29.0829139072848	17.5435761589404	5.82437086092715				1.09202649006623	0.0514966887417219	0.613933774834437	34.3917880794702	1.17192052980133	-10.6974834437086				0.0797880794701987	-0.334834437086093	-1.09223841059603	-1.09960264900662	19.4776158940397	-28.754701986755			
99	2260	-0.136158940397351	0.242754966887417	-1.07952317880795	-27.4066225165563	68.4553642384106	13.3750993377483				1.18495364238411	0.271788079470199	0.141139072847682	7.43390728476821	21.8678145695364	-6.46596026490066				-0.234172185430464	0.270728476821192	-0.99994701986755	2.52741721854305	65.3864900662252	2.87973509933775				0.432529801324503	-0.128529801324503	-1.31772185430464	8.92291390728477	15.8635761589404	-4.53562913907285				1.18802649006623	0.243496688741722	0.501933774834437	8.9117880794702	7.33192052980133	-16.0174834437086				0.335788079470199	-0.430834437086093	-1.10823841059603	-6.69960264900662	25.9176158940397	-23.714701986755			
100	2280	-0.040158940397351	0.178754966887417	-1.07952317880795	-27.9666225165563	75.4553642384106	16.4550993377483				1.21695364238411	0.111788079470199	0.0451390728476822	15.8339072847682	36.4278145695364	-1.42596026490066				-0.138172185430464	0.318728476821192	-1.04794701986755	24.927417218543	68.7464900662252	1.75973509933775				0.368529801324503	-0.0645298013245033	-1.22172185430464	-5.63708609271523	20.3435761589404	-4.25562913907285				1.18802649006623	0.227496688741722	0.421933774834437	27.3917880794702	10.4119205298013	-16.2974834437086				0.367788079470199	-0.574834437086093	-0.996238410596026	-25.1796026490066	24.5176158940397	-1.31470198675497			
101	2300	-0.008158940397351	0.242754966887417	-1.04752317880795	-25.4466225165563	77.6953642384106	19.5350993377483				1.28095364238411	0.0157880794701987	0.141139072847682	-20.5660927152318	55.4678145695364	11.4540397350993				-0.138172185430464	0.142728476821192	-1.07994701986755	43.967417218543	71.8264900662252	-0.48026490066225				0.304529801324503	-0.0485298013245033	-1.09372185430464	2.48291390728477	28.7435761589404	-0.895629139072848				1.15602649006623	-0.0125033112582781	0.565933774834437	42.2317880794702	5.09192052980133	-13.7774834437086				0.335788079470199	-0.494834437086093	-1.04423841059603	-62.4196026490066	40.4776158940397	7.08529801324503			
102	2320	0.167841059602649	0.274754966887417	-1.06352317880795	-13.1266225165563	79.0953642384106	22.6150993377483				1.12095364238411	0.111788079470199	0.253139072847682	-27.0060927152318	38.9478145695364	6.41403973509934				-0.0901721854304636	-0.0332715231788079	-1.01594701986755	40.8874172185431	80.5064900662252	-6.08026490066225				0.240529801324503	-0.000529801324503289	-1.02972185430464	0.242913907284768	29.8635761589404	1.06437086092715				0.964026490066225	-0.0125033112582781	0.597933774834437	27.1117880794702	-4.14807947019868	-13.2174834437086				0.479788079470199	-0.334834437086093	-1.07623841059603	-59.3396026490066	40.4776158940397	7.08529801324503			
103	2340	0.151841059602649	0.274754966887417	-1.07952317880795	6.75337748344371	85.2553642384106	24.0150993377483				1.23295364238411	0.127788079470199	0.285139072847682	-3.76609271523179	33.9078145695364	-0.0259602649006601				0.0218278145695364	-0.0652715231788079	-1.03194701986755	0.567417218543046	87.7864900662252	-6.92026490066225				0.320529801324503	0.0154701986754967	-1.02972185430464	1.08291390728477	24.8235761589404	4.98437086092715				0.932026490066225	0.147496688741722	0.549933774834437	-0.888211920529802	9.01192052980133	-17.9774834437086				0.527788079470199	-0.270834437086093	-1.12423841059603	-21.2596026490066	26.1976158940397	8.76529801324503			
104	2360	0.183841059602649	0.226754966887417	-1.01552317880795	20.7533774834437	90.8553642384106	26.8150993377483				1.29695364238411	-0.000211920529801304	0.317139072847682	2.11390728476821	38.9478145695364	-4.22596026490066				0.133827814569536	0.126728476821192	-1.06394701986755	-7.83258278145695	96.1864900662252	-11.9602649006623				0.464529801324503	0.0154701986754967	-1.07772185430464	7.24291390728477	25.3835761589404	10.3043708609272				1.07602649006623	0.147496688741722	0.549933774834437	-4.5282119205298	19.0919205298013	-16.2974834437086				0.415788079470199	-0.366834437086093	-1.01223841059603	17.3803973509934	25.3576158940397	15.485298013245			
105	2380	0.231841059602649	0.178754966887417	-1.03152317880795	16.8333774834437	94.7753642384106	30.1750993377483				1.23295364238411	-0.0322119205298013	0.285139072847682	-21.6860927152318	50.7078145695364	-1.14596026490066				0.117827814569536	0.190728476821192	-0.99994701986755	-2.23258278145695	100.666490066225	-17.2802649006623				0.480529801324503	-0.0325298013245033	-1.07772185430464	11.4429139072848	31.5435761589404	11.1443708609272				1.09202649006623	0.115496688741722	0.645933774834437	-1.4482119205298	13.2119205298013	-13.7774834437086				0.367788079470199	-0.382834437086093	-0.948238410596026	8.14039735099338	37.6776158940397	23.885298013245			
106	2400	0.311841059602649	0.226754966887417	-1.03152317880795	14.0333774834437	99.5353642384106	29.0550993377483				1.00895364238411	0.111788079470199	0.253139072847682	-6.56609271523179	39.7878145695364	-9.26596026490066				0.133827814569536	0.0947284768211921	-0.91994701986755	19.607417218543	105.426490066225	-16.7202649006623				0.528529801324503	0.0154701986754967	-0.997721854304636	1.36291390728477	39.1035761589404	3.86437086092715				0.996026490066225	0.147496688741722	0.597933774834437	-7.8882119205298	8.17192052980133	-9.57748344370861				0.415788079470199	-0.318834437086093	-0.948238410596026	-10.3396026490066	48.0376158940397	17.165298013245			
107	2420	0.455841059602649	0.178754966887417	-0.935523178807947	21.0333774834437	103.735364238411	29.0550993377483				1.15295364238411	-0.0322119205298013	0.461139072847682	1.27390728476821	63.0278145695364	-2.82596026490066				0.229827814569536	-0.177271523178808	-0.90394701986755	15.407417218543	109.066490066225	-12.8002649006623				0.656529801324503	0.0154701986754967	-0.949721854304636	3.32291390728477	36.0235761589404	6.10437086092715				0.916026490066225	0.243496688741722	0.565933774834437	-8.7282119205298	11.8119205298013	-6.77748344370861				0.415788079470199	-0.254834437086093	-0.916238410596027	-11.7396026490066	60.3576158940397	5.12529801324503			
108	2440	0.423841059602649	0.130754966887417	-0.919523178807947	10.6733774834437	110.455364238411	29.6150993377483				1.34495364238411	0.143788079470199	0.413139072847682	12.4739072847682	77.0278145695364	-3.10596026490066				0.373827814569536	-0.225271523178808	-0.87194701986755	-12.872582781457	116.066490066225	-8.32026490066225				0.736529801324503	-0.112529801324503	-0.965721854304636	11.7229139072848	31.8235761589404	12.5443708609272				0.932026490066225	0.179496688741722	0.613933774834437	3.5917880794702	13.7719205298013	-5.09748344370861				0.383788079470199	-0.286834437086093	-0.836238410596026	2.26039735099338	65.1176158940397	0.925298013245032			
109	2460	0.423841059602649	0.178754966887417	-0.871523178807947	-3.60662251655629	113.535364238411	28.7750993377483				1.05695364238411	0.191788079470199	0.333139072847682	23.1139072847682	17.6678145695364	-3.38596026490066				0.453827814569536	-0.0492715231788079	-0.82394701986755	-14.552582781457	117.466490066225	-2.72026490066225				0.496529801324503	-0.176529801324503	-0.965721854304636	-3.11708609271523	36.5835761589404	4.98437086092715				0.996026490066225	0.115496688741722	0.629933774834437	5.5517880794702	10.4119205298013	-9.29748344370861				0.415788079470199	-0.382834437086093	-0.852238410596026	-12.5796026490066	57.5576158940397	0.925298013245032			
110	2480	0.439841059602649	0.242754966887417	-0.823523178807947	-8.08662251655629	115.495364238411	26.5350993377483				0.800953642384106	0.0957880794701987	0.0451390728476822	14.1539072847682	-44.4921854304636	-9.82596026490066				0.357827814569536	0.0307284768211921	-0.77594701986755	-1.39258278145695	116.906490066225	-0.76026490066225				0.320529801324503	-0.0165298013245033	-0.885721854304636	-17.6770860927152	52.5435761589404	-7.89562913907285				0.900026490066225	0.115496688741722	0.501933774834437	-5.3682119205298	7.61192052980133	-10.6974834437086				0.447788079470199	-0.414834437086093	-0.788238410596027	-24.6196026490066	63.7176158940397	0.365298013245032			
111	2500	0.375841059602649	0.258754966887417	-0.775523178807947	-2.76662251655629	113.535364238411	21.7750993377483				0.864953642384106	-0.144211920529801	0.365139072847682	-33.1660927152318	12.6278145695364	-10.3859602649007				0.341827814569536	-0.00127152317880793	-0.72794701986755	7.28741721854305	114.666490066225	-1.60026490066225				0.352529801324503	0.0954701986754967	-0.741721854304636	3.04291390728477	62.9035761589404	-5.09562913907285				0.820026490066225	0.0514966887417219	0.373933774834437	1.3517880794702	7.89192052980133	-8.17748344370861				0.495788079470199	-0.318834437086093	-0.740238410596026	-43.3796026490066	76.0376158940397	-4.67470198675497			
112	2520	0.359841059602649	0.258754966887417	-0.759523178807947	2.83337748344371	111.295364238411	17.2950993377483				1.02495364238411	0.0797880794701987	0.349139072847682	6.31390728476821	46.7878145695364	-6.46596026490066				0.325827814569536	0.0147284768211921	-0.71194701986755	16.5274172185431	116.906490066225	-5.24026490066225				0.448529801324503	0.0314701986754967	-0.677721854304636	32.4429139072848	54.5035761589404	1.62437086092715				0.756026490066225	0.00349668874172187	0.453933774834437	12.5517880794702	9.01192052980133	-6.49748344370861				0.431788079470199	-0.142834437086093	-0.772238410596026	-33.5796026490066	63.7176158940397	-17.834701986755			
113	2540	0.471841059602649	0.226754966887417	-0.711523178807947	12.0733774834437	109.615364238411	11.9750993377483				0.848953642384106	0.399788079470199	0.0451390728476822	48.5939072847682	25.5078145695364	-8.42596026490066				0.357827814569536	0.0467284768211921	-0.67994701986755	11.487417218543	118.026490066225	0.63973509933775				0.480529801324503	-0.160529801324503	-0.709721854304636	35.2429139072848	43.0235761589404	1.90437086092715				0.740026490066225	0.0834966887417219	0.405933774834437	-0.0482119205298018	0.331920529801325	-8.45748344370861				0.383788079470199	-0.142834437086093	-0.724238410596026	-20.6996026490066	48.8776158940397	-20.634701986755			
114	2560	0.567841059602649	0.162754966887417	-0.663523178807947	10.1133774834437	109.335364238411	9.17509933774834				0.672953642384106	-0.000211920529801304	0.0611390728476822	6.03390728476821	-22.3721854304636	-1.14596026490066				0.405827814569536	0.0947284768211921	-0.72794701986755	9.52741721854305	119.146490066225	1.47973509933775				0.416529801324503	-0.128529801324503	-0.725721854304636	10.8829139072848	36.3035761589404	-5.09562913907285				0.692026490066225	0.179496688741722	0.325933774834437	-7.0482119205298	-1.06807947019868	-11.2574834437086				0.431788079470199	-0.158834437086093	-0.708238410596026	-20.1396026490066	34.8776158940397	-18.394701986755			
115	2580	0.535841059602649	0.0987549668874172	-0.679523178807947	-0.246622516556291	108.215364238411	10.2950993377483				0.784953642384106	-0.160211920529801	0.317139072847682	-30.3660927152318	-10.0521854304636	-5.90596026490066				0.437827814569536	0.0467284768211921	-0.69594701986755	5.88741721854305	119.426490066225	-5.52026490066225				0.528529801324503	0.0794701986754967	-0.597721854304636	1.36291390728477	33.7835761589404	-11.8156291390728				0.628026490066225	0.131496688741722	0.469933774834437	3.3117880794702	2.57192052980133	-9.29748344370861				0.463788079470199	-0.158834437086093	-0.692238410596026	-27.1396026490066	31.2376158940397	-22.034701986755			
116	2600	0.439841059602649	0.0507549668874172	-0.663523178807947	-16.2066225165563	102.055364238411	13.3750993377483				0.880953642384106	0.127788079470199	0.381139072847682	19.7539072847682	6.74781456953642	-8.42596026490066				0.437827814569536	0.0627284768211921	-0.58394701986755	2.80741721854305	119.146490066225	-11.9602649006623				0.528529801324503	0.127470198675497	-0.533721854304636	33.2829139072848	32.3835761589404	-9.85562913907285				0.708026490066225	0.0994966887417219	0.501933774834437	17.5917880794702	5.93192052980133	-2.85748344370861				0.399788079470199	-0.158834437086093	-0.692238410596026	-18.7396026490066	28.7176158940397	-27.074701986755			
117	2620	0.439841059602649	0.130754966887417	-0.663523178807947	-13.9666225165563	102.615364238411	8.33509933774834				0.784953642384106	0.367788079470199	0.157139072847682	46.9139072847682	-31.6121854304636	-0.86596026490066				0.421827814569536	0.206728476821192	-0.63194701986755	0.287417218543046	117.466490066225	-17.2802649006623				0.448529801324503	-0.0325298013245033	-0.549721854304636	49.5229139072848	29.0235761589404	-9.57562913907285				0.724026490066225	0.147496688741722	0.293933774834437	3.3117880794702	-11.9880794701987	0.502516556291392				0.351788079470199	-0.126834437086093	-0.660238410596027	-12.8596026490066	20.3176158940397	-27.354701986755			
118	2640	0.519841059602649	0.194754966887417	-0.647523178807947	-10.6066225165563	102.615364238411	-3.14490066225166				0.640953642384106	0.0637880794701987	-0.0508609271523178	41.3139072847682	-57.3721854304636	1.93403973509934				0.453827814569536	0.206728476821192	-0.63194701986755	7.00741721854305	118.306490066225	-18.4002649006623				0.464529801324503	-0.0965298013245033	-0.613721854304636	28.5229139072848	15.8635761589404	-11.5356291390728				0.580026490066225	0.243496688741722	0.181933774834437	-2.0082119205298	-8.34807947019868	-0.897483443708608				0.447788079470199	-0.0628344370860927	-0.660238410596027	-20.1396026490066	5.75761589403974	-26.514701986755			
119	2660	0.535841059602649	0.178754966887417	-0.567523178807947	-1.92662251655629	102.335364238411	0.215099337748344				0.720953642384106	0.0317880794701987	-0.146860927152318	38.2339072847682	-44.7721854304636	-7.02596026490066				0.453827814569536	0.0467284768211921	-0.64794701986755	24.087417218543	109.906490066225	-20.9202649006623				0.448529801324503	-0.0965298013245033	-0.597721854304636	12.5629139072848	4.1035761589404	-7.89562913907285				0.564026490066225	0.115496688741722	0.325933774834437	21.5117880794702	3.13192052980133	4.70251655629139				0.479788079470199	-0.0948344370860927	-0.644238410596026	-14.8196026490066	3.51761589403974	-22.874701986755			
120	2680	0.439841059602649	0.210754966887417	-0.615523178807947	10.6733774834437	97.8553642384106	2.73509933774834				0.736953642384106	0.191788079470199	0.349139072847682	49.4339072847682	-37.2121854304636	0.53403973509934				0.421827814569536	-0.00127152317880793	-0.66394701986755	36.6874172185431	100.106490066225	-23.4402649006623				0.384529801324503	-0.0965298013245033	-0.565721854304636	20.1229139072848	5.2235761589404	-0.895629139072848				0.708026490066225	0.0514966887417219	0.469933774834437	20.9517880794702	1.45192052980132	10.0225165562914				0.399788079470199	-0.206834437086093	-0.580238410596026	-0.539602649006623	-2.36238410596027	-16.154701986755			
121	2700	0.391841059602649	0.242754966887417	-0.679523178807947	8.71337748344371	92.8153642384106	-1.46490066225166				0.624953642384106	0.0477880794701987	0.189139072847682	63.1539072847682	-44.2121854304636	12.0140397350993				0.405827814569536	-0.0492715231788079	-0.66394701986755	22.967417218543	96.4664900662252	-24.2802649006623				0.336529801324503	-0.0965298013245033	-0.629721854304636	28.8029139072848	2.1435761589404	2.46437086092715				0.708026490066225	0.0834966887417219	0.261933774834437	3.8717880794702	-11.1480794701987	8.62251655629139				0.319788079470199	-0.158834437086093	-0.596238410596026	-2.49960264900662	-14.9623841059603	-15.874701986755			
122	2720	0.439841059602649	0.242754966887417	-0.631523178807947	6.47337748344371	86.6553642384106	-8.74490066225166				0.560953642384106	-0.0322119205298013	-0.00286092715231785	46.6339072847682	-43.6521854304636	3.33403973509934				0.453827814569536	-0.0812715231788079	-0.63194701986755	19.327417218543	96.4664900662252	-23.7202649006623				0.304529801324503	-0.0965298013245033	-0.629721854304636	26.5629139072848	-5.9764238410596	3.02437086092715				0.628026490066225	0.0514966887417219	0.197933774834437	17.3117880794702	-19.5480794701987	11.9825165562914				0.287788079470199	-0.110834437086093	-0.564238410596026	-11.4596026490066	-11.3223841059603	-13.914701986755			
123	2740	0.519841059602649	0.194754966887417	-0.679523178807947	20.4733774834437	74.8953642384106	-9.58490066225166				0.688953642384106	0.0957880794701987	-0.0668609271523178	27.0339072847682	-35.5321854304636	-10.1059602649007				0.565827814569536	-0.129271523178808	-0.69594701986755	12.047417218543	90.3064900662252	-22.3202649006623				0.304529801324503	-0.112529801324503	-0.597721854304636	24.3229139072848	-12.1364238410596	3.30437086092715				0.564026490066225	0.0194966887417219	0.325933774834437	20.1117880794702	-23.1880794701987	13.9425165562914				0.335788079470199	-0.0628344370860927	-0.644238410596026	-13.9796026490066	-11.8823841059603	-13.914701986755			
124	2760	0.567841059602649	0.0987549668874172	-0.727523178807947	24.6733774834437	69.0153642384106	-9.02490066225166				0.784953642384106	0.127788079470199	0.157139072847682	9.67390728476821	-32.1721854304636	-5.90596026490066				0.661827814569536	-0.129271523178808	-0.69594701986755	0.847417218543046	72.1064900662252	-17.5602649006623				0.336529801324503	-0.128529801324503	-0.565721854304636	22.6429139072848	-16.3364238410596	3.02437086092715				0.660026490066225	0.0514966887417219	0.357933774834437	12.8317880794702	-22.9080794701987	10.3025165562914				0.367788079470199	-0.0628344370860927	-0.676238410596026	2.82039735099338	-19.7223841059603	-15.594701986755			
125	2780	0.487841059602649	0.130754966887417	-0.711523178807947	19.3533774834437	58.3753642384106	-4.82490066225166				0.848953642384106	0.0157880794701987	0.0611390728476822	13.0339072847682	-24.8921854304636	9.49403973509934				0.629827814569536	-0.129271523178808	-0.64794701986755	-5.59258278145695	53.3464900662252	-17.0002649006623				0.384529801324503	-0.128529801324503	-0.613721854304636	25.1629139072848	-16.6164238410596	4.70437086092715				0.708026490066225	0.0674966887417219	0.261933774834437	8.3517880794702	-24.5880794701987	8.06251655629139				0.351788079470199	-0.142834437086093	-0.564238410596026	9.82039735099338	-27.0023841059603	-16.714701986755			
126	2800	0.519841059602649	0.0827549668874172	-0.711523178807947	11.2333774834437	53.0553642384106	-1.74490066225166				0.784953642384106	0.0957880794701987	-0.0988609271523179	42.7139072847682	-46.4521854304636	5.01403973509934				0.549827814569536	-0.0652715231788079	-0.56794701986755	-8.95258278145695	44.9464900662252	-15.8802649006623				0.368529801324503	-0.0805298013245033	-0.693721854304636	20.9629139072848	-19.6964238410596	3.30437086092715				0.724026490066225	0.0834966887417219	0.341933774834437	10.8717880794702	-22.3480794701987	12.2625165562914				0.319788079470199	-0.206834437086093	-0.532238410596027	-6.97960264900662	-19.7223841059603	-10.274701986755			
127	2820	0.679841059602649	0.0347549668874172	-0.775523178807947	-1.92662251655629	42.9753642384106	0.495099337748344				0.688953642384106	0.303788079470199	-0.00286092715231785	39.9139072847682	-49.5321854304636	-5.62596026490066				0.597827814569536	0.0627284768211921	-0.58394701986755	-13.992582781457	35.1464900662252	-10.5602649006623				0.320529801324503	-0.144529801324503	-0.677721854304636	27.6829139072848	-14.9364238410596	8.06437086092715				0.772026490066225	0.0834966887417219	0.309933774834437	2.7517880794702	-27.6680794701987	12.2625165562914				0.351788079470199	-0.126834437086093	-0.724238410596026	-30.7796026490066	-11.6023841059603	-9.43470198675497			
128	2840	0.759841059602649	0.0667549668874172	-0.727523178807947	3.11337748344371	37.0953642384106	-1.46490066225166				0.768953642384106	0.143788079470199	0.0451390728476822	30.3939072847682	-41.1321854304636	1.09403973509934				0.789827814569536	0.142728476821192	-0.69594701986755	2.24741721854305	30.3864900662252	-9.44026490066225				0.256529801324503	-0.224529801324503	-0.677721854304636	24.6029139072848	-9.8964238410596	7.22437086092715				0.740026490066225	0.0994966887417219	0.133933774834437	3.3117880794702	-34.9480794701987	13.1025165562914				0.319788079470199	-0.0148344370860927	-0.724238410596026	-13.9796026490066	-12.4423841059603	-16.714701986755			
129	2860	0.727841059602649	0.130754966887417	-0.631523178807947	4.23337748344371	29.5353642384106	1.89509933774834				0.976953642384106	-0.112211920529801	0.109139072847682	6.03390728476821	-19.5721854304636	4.73403973509934				0.837827814569536	0.0787284768211921	-0.69594701986755	14.287417218543	24.7864900662252	-13.0802649006623				0.320529801324503	-0.160529801324503	-0.757721854304636	19.5629139072848	-11.0164238410596	4.98437086092715				0.724026490066225	0.0514966887417219	0.277933774834437	5.8317880794702	-19.5480794701987	9.74251655629139				0.319788079470199	0.0331655629139073	-0.724238410596026	-7.53960264900662	-13.8423841059603	-17.554701986755			
130	2880	0.631841059602649	0.0667549668874172	-0.519523178807947	7.87337748344371	21.9753642384106	6.65509933774834				1.04095364238411	0.0637880794701987	0.189139072847682	14.4339072847682	-36.3721854304636	-12.0659602649007				0.789827814569536	-0.00127152317880793	-0.59994701986755	10.647417218543	21.9864900662252	-17.0002649006623				0.384529801324503	-0.112529801324503	-0.805721854304636	32.1629139072848	-8.2164238410596	7.22437086092715				0.820026490066225	0.0514966887417219	0.533933774834437	11.7117880794702	-14.7880794701987	6.66251655629139				0.351788079470199	-0.0948344370860927	-0.820238410596026	1.42039735099338	-17.2023841059603	-12.794701986755			
131	2900	0.711841059602649	0.0347549668874172	-0.599523178807947	5.63337748344371	20.2953642384106	5.53509933774834				0.928953642384106	0.271788079470199	0.0451390728476822	19.1939072847682	-61.8521854304636	-14.5859602649007				0.789827814569536	0.0467284768211921	-0.55194701986755	4.20741721854305	16.9464900662252	-12.2402649006623				0.416529801324503	-0.240529801324503	-0.821721854304636	33.0029139072848	-0.0964238410596001	4.14437086092715				0.964026490066225	0.131496688741722	0.309933774834437	-12.9282119205298	-18.4280794701987	4.42251655629139				0.383788079470199	-0.142834437086093	-0.820238410596026	2.82039735099338	-12.4423841059603	-10.554701986755			
132	2920	0.807841059602649	0.0347549668874172	-0.599523178807947	-4.72662251655629	21.1353642384106	1.33509933774834				0.800953642384106	0.191788079470199	-0.210860927152318	-0.126092715231788	-36.3721854304636	-5.90596026490066				0.757827814569536	-0.00127152317880793	-0.51994701986755	12.047417218543	10.7864900662252	-8.60026490066225				0.368529801324503	-0.336529801324503	-0.869721854304636	9.20291390728477	2.1435761589404	-3.13562913907285				0.916026490066225	0.0994966887417219	0.0379337748344371	-24.6882119205298	-20.9480794701987	4.42251655629139				0.383788079470199	-0.0468344370860927	-0.788238410596027	-17.6196026490066	-6.56238410596027	-18.114701986755			
133	2940	0.759841059602649	0.162754966887417	-0.535523178807947	-8.08662251655629	21.9753642384106	-0.344900662251656				0.864953642384106	0.0317880794701987	-0.0988609271523179	-11.6060927152318	-8.37218543046358	1.09403973509934				0.741827814569536	-0.0332715231788079	-0.43994701986755	15.127417218543	13.0264900662252	-7.48026490066225				0.304529801324503	-0.208529801324503	-0.885721854304636	1.64291390728477	-5.9764238410596	1.90437086092715				0.836026490066225	0.0674966887417219	0.181933774834437	8.6317880794702	-16.4680794701987	4.70251655629139				0.303788079470199	0.0491655629139073	-0.884238410596026	-6.13960264900662	-7.40238410596027	-22.874701986755			
134	2960	0.759841059602649	0.242754966887417	-0.519523178807947	-5.28662251655629	17.7753642384106	0.775099337748344				0	0	0	0	0	0				0	0	0	0	0	0				0.352529801324503	-0.128529801324503	-0.885721854304636	19.2829139072848	-4.0164238410596	4.98437086092715				0.900026490066225	0.0994966887417219	0.453933774834437	9.1917880794702	-18.9880794701987	5.82251655629139				0.287788079470199	-0.110834437086093	-0.852238410596026	18.5003973509934	-10.4823841059603	-8.31470198675497			
135	3080	0	0	0	0	0	0				0.992953642384106	0.0317880794701987	-0.0188609271523178	-3.76609271523179	22.9878145695364	7.81403973509934				0.821827814569536	0.0627284768211921	-0.42394701986755	15.687417218543	0.146490066225167	-9.16026490066225				0	0	0	0	0	0				0	0	0	0	0	0				0	0	0	0	0	0			
136	3100	0.823841059602649	0.178754966887417	-0.487523178807947	4.23337748344371	3.2153642384106	-3.98490066225166				0.960953642384106	0.0477880794701987	-0.00286092715231785	5.47390728476821	19.3478145695364	1.93403973509934				0.789827814569536	0.0467284768211921	-0.40794701986755	4.76741721854305	2.10649006622517	-10.8402649006623				0.512529801324503	-0.160529801324503	-0.869721854304636	18.4429139072848	13.3435761589404	3.30437086092715				0.884026490066225	0.0514966887417219	0.389933774834437	9.4717880794702	6.49192052980132	6.66251655629139				0.351788079470199	-0.0948344370860927	-0.868238410596026	-13.4196026490066	13.3176158940397	1.20529801324503			
137	3120	0.823841059602649	0.146754966887417	-0.407523178807947	12.6333774834437	4.6153642384106	-4.54490066225166				1.05695364238411	0.207788079470199	-0.00286092715231785	13.0339072847682	10.1078145695364	0.81403973509934				0.885827814569536	0.0787284768211921	-0.45594701986755	0.847417218543046	4.06649006622517	-8.32026490066225				0.528529801324503	-0.304529801324503	-0.805721854304636	3.32291390728477	6.0635761589404	-7.61562913907285				0.852026490066225	0.0194966887417219	0.437933774834437	9.7517880794702	3.69192052980133	3.86251655629139				0.367788079470199	0.0171655629139073	-0.916238410596027	5.62039735099338	6.59761589403974	-2.99470198675497			
138	3140	0.839841059602649	0.114754966887417	-0.407523178807947	12.3533774834437	3.7753642384106	-3.70490066225166				0.992953642384106	0.159788079470199	-0.0348609271523178	8.83390728476821	-1.09218543046358	4.73403973509934				0.853827814569536	0.0307284768211921	-0.47194701986755	14.847417218543	2.38649006622517	-4.68026490066225				0.496529801324503	-0.256529801324503	-0.773721854304636	-7.59708609271523	5.2235761589404	-12.9356291390728				0.932026490066225	0.147496688741722	0.245933774834437	-10.4082119205298	14.3319205298013	-0.897483443708608				0.447788079470199	-0.0628344370860927	-0.900238410596026	24.1003973509934	-3.20238410596026	-4.11470198675497			
139	3160	0.807841059602649	0.0827549668874172	-0.487523178807947	3.95337748344371	2.6553642384106	-2.02490066225166				0.944953642384106	0.0797880794701987	-0.0348609271523178	3.51390728476821	4.78781456953642	3.05403973509934				0.789827814569536	-0.0172715231788079	-0.47194701986755	21.567417218543	2.66649006622517	-4.40026490066225				0.576529801324503	-0.176529801324503	-0.821721854304636	10.6029139072848	11.6635761589404	-5.09562913907285				1.04402649006623	0.131496688741722	0.389933774834437	18.7117880794702	6.49192052980132	5.26251655629139				0.479788079470199	-0.158834437086093	-0.836238410596026	8.14039735099338	-2.36238410596027	0.925298013245032			
140	3180	0.791841059602649	0.114754966887417	-0.551523178807947	-3.04662251655629	4.6153642384106	-2.30490066225166				1.04095364238411	0.143788079470199	-0.00286092715231785	-3.48609271523179	15.1478145695364	-2.82596026490066				0.773827814569536	-0.0492715231788079	-0.48794701986755	6.72741721854305	6.86649006622517	-4.96026490066225				0.576529801324503	-0.288529801324503	-0.837721854304636	13.4029139072848	23.1435761589404	-0.0556291390728476				0.964026490066225	0.0674966887417219	0.421933774834437	14.7917880794702	-7.78807947019868	7.22251655629139				0.447788079470199	-0.110834437086093	-0.772238410596026	0.0203973509933773	11.0776158940397	3.16529801324503			
141	3200	0.807841059602649	0.162754966887417	-0.567523178807947	0.593377483443709	8.8153642384106	-4.26490066225166				1.04095364238411	0.223788079470199	-0.0188609271523178	-3.48609271523179	7.86781456953642	-4.50596026490066				0.837827814569536	0.0307284768211921	-0.48794701986755	-2.23258278145695	7.14649006622517	-3.56026490066225				0.464529801324503	-0.320529801324503	-0.757721854304636	5.84291390728477	16.4235761589404	-10.4156291390728				0.852026490066225	0.0674966887417219	0.293933774834437	15.3517880794702	-6.94807947019868	6.38251655629139				0.431788079470199	-0.110834437086093	-0.740238410596026	1.70039735099338	21.7176158940397	4.00529801324503			
142	3220	0.791841059602649	0.162754966887417	-0.535523178807947	11.2333774834437	11.6153642384106	-3.98490066225166				1.00895364238411	0.191788079470199	0.0451390728476822	8.83390728476821	8.42781456953642	-2.54596026490066				0.853827814569536	0.0787284768211921	-0.50394701986755	5.04741721854305	10.5064900662252	-1.04026490066225				0.448529801324503	-0.192529801324503	-0.821721854304636	-3.39708609271523	7.4635761589404	-7.89562913907285				0.852026490066225	0.0834966887417219	0.277933774834437	1.9117880794702	8.45192052980133	-0.617483443708608				0.447788079470199	-0.110834437086093	-0.836238410596026	2.54039735099338	14.4376158940397	1.76529801324503			
143	3240	0.791841059602649	0.130754966887417	-0.519523178807947	13.4733774834437	9.6553642384106	-2.86490066225166				0.944953642384106	0.0157880794701987	0.0611390728476822	20.3139072847682	-13.9721854304636	5.01403973509934				0.757827814569536	0.0307284768211921	-0.48794701986755	8.96741721854305	10.7864900662252	0.35973509933775				0.576529801324503	-0.224529801324503	-0.789721854304636	-3.67708609271523	6.6235761589404	0.784370860927152				0.948026490066225	0.147496688741722	0.437933774834437	4.9917880794702	5.93192052980133	-2.01748344370861				0.495788079470199	-0.0788344370860927	-0.852238410596026	1.42039735099338	4.07761589403974	0.365298013245032			
144	3260	0.743841059602649	0.0827549668874172	-0.503523178807947	3.95337748344371	2.3753642384106	-1.46490066225166				0.928953642384106	0.0317880794701987	-0.0988609271523179	2.95390728476821	-13.1321854304636	4.17403973509934				0.741827814569536	-0.00127152317880793	-0.51994701986755	0.00741721854304636	9.10649006622517	-1.60026490066225				0.512529801324503	-0.256529801324503	-0.789721854304636	-1.99708609271523	13.6235761589404	2.18437086092715				0.980026490066225	0.0834966887417219	0.325933774834437	5.8317880794702	-7.50807947019868	4.98251655629139				0.511788079470199	0.00116556291390731	-0.916238410596027	2.26039735099338	11.0776158940397	-1.87470198675497			
145	3280	0.743841059602649	0.0827549668874172	-0.567523178807947	-2.20662251655629	-0.424635761589404	-0.344900662251656				0.992953642384106	0.239788079470199	-0.0348609271523178	-9.92609271523179	17.6678145695364	0.81403973509934				0.805827814569536	0.0147284768211921	-0.51994701986755	-4.19258278145695	7.14649006622517	-3.28026490066225				0.512529801324503	-0.192529801324503	-0.789721854304636	11.4429139072848	13.0635761589404	2.74437086092715				0.948026490066225	0.0674966887417219	0.245933774834437	4.1517880794702	-3.86807947019868	3.86251655629139				0.479788079470199	-0.0948344370860927	-0.836238410596026	10.1003973509934	15.5576158940397	-0.194701986754968			
146	3300	0.711841059602649	0.114754966887417	-0.375523178807947	-5.84662251655629	-32.9046357615894	0.495099337748344				0.768953642384106	0.0477880794701987	-0.0828609271523179	-37.3660927152318	11.5078145695364	3.61403973509934				0.789827814569536	-0.0812715231788079	-0.40794701986755	-11.472582781457	-34.8535099337748	-0.48026490066225				0.576529801324503	-0.208529801324503	-0.725721854304636	-46.7970860927152	-33.6964238410596	20.1043708609272				0.756026490066225	0.0994966887417219	0.00593377483443711	-8.1682119205298	6.21192052980133	-5.65748344370861				0.479788079470199	0.0171655629139073	-0.516238410596026	-1.93960264900662	-28.4023841059603	28.925298013245			
