No	Time	12-AccX	12-AccY	12-AccZ	12-GyroX	12-GyroY	12-GyroZ	13-AccX	13-AccY	13-AccZ	13-GyroX	13-GyroY	13-GyroZ	14-AccX	14-AccY	14-AccZ	14-GyroX	14-GyroY	14-GyroZ	15-AccX	15-AccY	15-AccZ	15-GyroX	15-GyroY	15-GyroZ	16-AccX	16-AccY	16-AccZ	16-GyroX	16-GyroY	16-GyroZ	17-AccX	17-AccY	17-AccZ	17-GyroX	17-GyroY	17-GyroZ
0	100	0	0	0	0	0	0				0	0	0	0	0	0				0	0	0	0	0	0				0	0	0	0	0	0				0	0	0	0	0	0				0.367788079470199	-0.206834437086093	-0.868238410596026	-2.77960264900662	-0.402384105960265	2.04529801324503			
1	120	-0.216158940397351	0.130754966887417	-0.935523178807947	0.0333774834437086	0.135364238410596	-2.02490066225166				0.960953642384106	0.0797880794701987	0.253139072847682	-0.686092715231788	3.66781456953642	2.21403973509934				-0.234172185430464	-0.0332715231788079	-0.88794701986755	0.847417218543046	0.146490066225167	-1.04026490066225				0.304529801324503	-0.144529801324503	-0.901721854304636	3.88291390728477	3.2635761589404	2.18437086092715				0.948026490066225	0.0994966887417219	0.165933774834437	-0.608211920529802	-4.14807947019868	1.06251655629139				0.383788079470199	-0.190834437086093	-0.868238410596026	0.300397350993377	0.157615894039735	2.60529801324503			
2	140	-0.216158940397351	0.146754966887417	-0.935523178807947	-0.526622516556291	0.415364238410596	-1.74490066225166				0.960953642384106	0.0797880794701987	0.253139072847682	-0.126092715231788	5.06781456953642	2.21403973509934				-0.266172185430464	-0.0332715231788079	-0.87194701986755	1.12741721854305	0.146490066225167	-0.48026490066225				0.304529801324503	-0.144529801324503	-0.917721854304636	4.16291390728477	2.7035761589404	2.74437086092715				0.948026490066225	0.0834966887417219	0.181933774834437	-0.328211920529802	-1.06807947019868	-0.337483443708608				0.367788079470199	-0.222834437086093	-0.852238410596026	3.38039735099338	-0.402384105960265	1.48529801324503			
3	160	-0.216158940397351	0.130754966887417	-0.951523178807947	-0.526622516556291	-0.144635761589404	-1.18490066225166				0.976953642384106	0.0797880794701987	0.269139072847682	-2.92609271523179	7.02781456953642	1.37403973509934				-0.250172185430464	-0.0332715231788079	-0.88794701986755	0.567417218543046	-0.133509933774833	-0.76026490066225				0.304529801324503	-0.144529801324503	-0.917721854304636	3.04291390728477	1.8635761589404	1.62437086092715				0.948026490066225	0.0994966887417219	0.197933774834437	-1.1682119205298	-0.508079470198675	1.06251655629139				0.367788079470199	-0.222834437086093	-0.836238410596026	0.0203973509933773	-1.52238410596026	3.16529801324503			
4	180	-0.216158940397351	0.130754966887417	-0.935523178807947	0.593377483443709	0.415364238410596	-1.18490066225166				0.992953642384106	0.0957880794701987	0.301139072847682	-1.52609271523179	3.38781456953642	-0.0259602649006601				-0.266172185430464	-0.0332715231788079	-0.88794701986755	-0.832582781456954	0.426490066225167	0.91973509933775				0.304529801324503	-0.144529801324503	-0.917721854304636	1.64291390728477	2.4235761589404	1.06437086092715				0.964026490066225	0.0834966887417219	0.181933774834437	-0.0482119205298018	-3.58807947019868	1.62251655629139				0.367788079470199	-0.222834437086093	-0.852238410596026	-1.65960264900662	0.437615894039735	0.925298013245032			
5	200	-0.216158940397351	0.130754966887417	-0.935523178807947	0.0333774834437086	0.695364238410596	-1.18490066225166				0.976953642384106	0.0957880794701987	0.253139072847682	0.713907284768212	2.26781456953642	-0.30596026490066				-0.266172185430464	-0.0332715231788079	-0.88794701986755	-0.552582781456954	0.426490066225167	0.35973509933775				0.336529801324503	-0.144529801324503	-0.917721854304636	1.08291390728477	1.5835761589404	1.06437086092715				0.964026490066225	0.0994966887417219	0.165933774834437	-0.0482119205298018	-2.74807947019868	1.62251655629139				0.383788079470199	-0.222834437086093	-0.868238410596026	-1.37960264900662	1.83761589403974	1.48529801324503			
6	220	-0.216158940397351	0.130754966887417	-0.903523178807947	-0.806622516556291	1.2553642384106	-1.74490066225166				0.960953642384106	0.0797880794701987	0.253139072847682	0.993907284768212	3.10781456953642	0.53403973509934				-0.266172185430464	-0.0172715231788079	-0.88794701986755	0.287417218543046	1.26649006622517	0.0797350993377501				0.304529801324503	-0.144529801324503	-0.917721854304636	1.08291390728477	1.8635761589404	0.784370860927152				0.964026490066225	0.0994966887417219	0.165933774834437	-0.608211920529802	-3.58807947019868	1.62251655629139				0.383788079470199	-0.222834437086093	-0.868238410596026	1.14039735099338	2.67761589403974	0.925298013245032			
7	240	-0.216158940397351	0.130754966887417	-0.935523178807947	0.313377483443709	0.695364238410596	-0.904900662251656				0.960953642384106	0.0957880794701987	0.269139072847682	-0.406092715231788	3.38781456953642	0.53403973509934				-0.266172185430464	-0.0172715231788079	-0.88794701986755	0.00741721854304636	0.706490066225167	0.35973509933775				0.288529801324503	-0.160529801324503	-0.917721854304636	2.76291390728477	3.2635761589404	1.62437086092715				0.964026490066225	0.0994966887417219	0.165933774834437	-2.2882119205298	-3.58807947019868	1.90251655629139				0.383788079470199	-0.222834437086093	-0.868238410596026	1.98039735099338	2.95761589403974	0.645298013245032			
8	260	-0.200158940397351	0.130754966887417	-0.951523178807947	0.593377483443709	0.415364238410596	-2.02490066225166				0.944953642384106	0.0957880794701987	0.285139072847682	-0.686092715231788	3.66781456953642	0.25403973509934				-0.250172185430464	-0.0172715231788079	-0.88794701986755	0.00741721854304636	0.986490066225167	0.63973509933775				0.288529801324503	-0.160529801324503	-0.901721854304636	4.72291390728477	4.9435761589404	1.34437086092715				0.948026490066225	0.0994966887417219	0.165933774834437	-0.328211920529802	-1.90807947019868	1.62251655629139				0.367788079470199	-0.222834437086093	-0.868238410596026	1.42039735099338	1.27761589403974	1.20529801324503			
9	280	-0.216158940397351	0.130754966887417	-0.935523178807947	-0.526622516556291	0.695364238410596	-1.74490066225166				0.960953642384106	0.0797880794701987	0.285139072847682	-0.406092715231788	1.98781456953642	0.53403973509934				-0.250172185430464	-0.0172715231788079	-0.88794701986755	-0.272582781456954	0.986490066225167	0.35973509933775				0.304529801324503	-0.160529801324503	-0.901721854304636	4.44291390728477	4.9435761589404	0.784370860927152				0.932026490066225	0.0834966887417219	0.149933774834437	-1.7282119205298	-0.228079470198675	0.782516556291392				0.367788079470199	-0.222834437086093	-0.852238410596026	0.860397350993377	-0.122384105960265	1.48529801324503			
10	300	-0.216158940397351	0.146754966887417	-0.935523178807947	-0.806622516556291	0.695364238410596	-1.18490066225166				0.960953642384106	0.0797880794701987	0.253139072847682	-0.126092715231788	4.22781456953642	0.25403973509934				-0.250172185430464	-0.0172715231788079	-0.88794701986755	-0.272582781456954	0.426490066225167	-0.20026490066225				0.304529801324503	-0.160529801324503	-0.901721854304636	2.20291390728477	3.8235761589404	0.784370860927152				0.948026490066225	0.0834966887417219	0.165933774834437	-3.1282119205298	0.331920529801325	1.34251655629139				0.367788079470199	-0.222834437086093	-0.836238410596026	1.42039735099338	-0.122384105960265	2.04529801324503			
11	320	-0.216158940397351	0.130754966887417	-0.951523178807947	0.593377483443709	0.695364238410596	-2.02490066225166				0.944953642384106	0.0797880794701987	0.269139072847682	-1.80609271523179	7.30781456953642	-0.585960264900661				-0.250172185430464	-0.0172715231788079	-0.90394701986755	-0.832582781456954	0.706490066225167	-0.20026490066225				0.304529801324503	-0.160529801324503	-0.901721854304636	3.32291390728477	3.8235761589404	1.62437086092715				0.948026490066225	0.0994966887417219	0.165933774834437	-3.9682119205298	0.0519205298013249	1.62251655629139				0.351788079470199	-0.222834437086093	-0.836238410596026	0.860397350993377	1.27761589403974	2.88529801324503			
12	340	-0.216158940397351	0.130754966887417	-0.935523178807947	0.593377483443709	0.415364238410596	-1.74490066225166				0.960953642384106	0.0957880794701987	0.285139072847682	-2.92609271523179	8.98781456953643	-0.30596026490066				-0.250172185430464	-0.0172715231788079	-0.88794701986755	-1.39258278145695	0.706490066225167	0.0797350993377501				0.288529801324503	-0.144529801324503	-0.901721854304636	3.88291390728477	7.1835761589404	1.62437086092715				0.948026490066225	0.0994966887417219	0.181933774834437	-2.2882119205298	1.17192052980133	1.06251655629139				0.351788079470199	-0.222834437086093	-0.820238410596026	1.42039735099338	2.67761589403974	3.72529801324503			
13	360	-0.200158940397351	0.130754966887417	-0.935523178807947	0.313377483443709	1.2553642384106	-1.46490066225166				0.960953642384106	0.111788079470199	0.285139072847682	-1.52609271523179	7.58781456953643	0.53403973509934				-0.250172185430464	-0.00127152317880793	-0.88794701986755	0.00741721854304636	0.426490066225167	0.0797350993377501				0.304529801324503	-0.160529801324503	-0.901721854304636	5.00291390728477	9.4235761589404	-0.0556291390728476				0.948026490066225	0.0994966887417219	0.165933774834437	-3.1282119205298	-0.508079470198675	0.502516556291392				0.351788079470199	-0.222834437086093	-0.836238410596026	0.300397350993377	4.07761589403974	4.00529801324503			
14	380	-0.200158940397351	0.130754966887417	-0.935523178807947	0.313377483443709	0.415364238410596	-1.46490066225166				0.960953642384106	0.111788079470199	0.285139072847682	0.993907284768212	6.74781456953642	1.09403973509934				-0.250172185430464	-0.0172715231788079	-0.88794701986755	1.12741721854305	0.426490066225167	0.0797350993377501				0.320529801324503	-0.144529801324503	-0.885721854304636	5.28291390728477	10.2635761589404	-1.45562913907285				0.932026490066225	0.0994966887417219	0.149933774834437	-4.5282119205298	1.73192052980133	-0.337483443708608				0.367788079470199	-0.206834437086093	-0.836238410596026	0.860397350993377	4.35761589403974	2.32529801324503			
15	400	-0.216158940397351	0.130754966887417	-0.951523178807947	-0.246622516556291	0.135364238410596	-1.74490066225166				0.960953642384106	0.111788079470199	0.285139072847682	1.55390728476821	3.10781456953642	1.37403973509934				-0.250172185430464	-0.0172715231788079	-0.88794701986755	1.68741721854305	0.146490066225167	-0.48026490066225				0.320529801324503	-0.160529801324503	-0.901721854304636	4.72291390728477	10.8235761589404	-2.01562913907285				0.932026490066225	0.0834966887417219	0.165933774834437	-4.2482119205298	1.73192052980133	-0.897483443708608				0.367788079470199	-0.206834437086093	-0.836238410596026	1.14039735099338	6.03761589403974	1.20529801324503			
16	420	-0.216158940397351	0.130754966887417	-0.935523178807947	0.313377483443709	-0.424635761589404	-0.904900662251656				0.960953642384106	0.0957880794701987	0.285139072847682	1.27390728476821	2.82781456953642	1.37403973509934				-0.250172185430464	-0.00127152317880793	-0.88794701986755	1.12741721854305	-0.413509933774833	-0.20026490066225				0.336529801324503	-0.160529801324503	-0.901721854304636	4.44291390728477	11.1035761589404	-1.73562913907285				0.948026490066225	0.0994966887417219	0.165933774834437	-4.5282119205298	1.45192052980132	-0.337483443708608				0.367788079470199	-0.206834437086093	-0.852238410596026	0.860397350993377	7.15761589403974	0.0852980132450323			
17	440	-0.216158940397351	0.130754966887417	-0.935523178807947	0.873377483443709	0.415364238410596	0.215099337748344				0.944953642384106	0.0797880794701987	0.269139072847682	0.153907284768212	1.14781456953642	0.53403973509934				-0.266172185430464	-0.00127152317880793	-0.88794701986755	2.24741721854305	0.146490066225167	-0.20026490066225				0.336529801324503	-0.160529801324503	-0.917721854304636	5.84291390728477	10.5435761589404	-1.17562913907285				0.948026490066225	0.0994966887417219	0.149933774834437	-4.2482119205298	2.01192052980133	-0.897483443708608				0.367788079470199	-0.206834437086093	-0.852238410596026	0.860397350993377	6.87761589403974	0.0852980132450323			
18	460	-0.232158940397351	0.130754966887417	-0.951523178807947	0.873377483443709	0.135364238410596	-0.344900662251656				0.976953642384106	0.0797880794701987	0.285139072847682	-1.80609271523179	6.46781456953642	0.25403973509934				-0.266172185430464	-0.0172715231788079	-0.88794701986755	2.52741721854305	-0.133509933774833	0.35973509933775				0.336529801324503	-0.160529801324503	-0.917721854304636	3.60291390728477	9.4235761589404	-0.895629139072848				0.948026490066225	0.0994966887417219	0.165933774834437	-2.2882119205298	2.01192052980133	-1.73748344370861				0.367788079470199	-0.206834437086093	-0.852238410596026	-1.09960264900662	5.19761589403974	-1.03470198675497			
19	480	-0.216158940397351	0.130754966887417	-0.951523178807947	0.873377483443709	0.135364238410596	-0.624900662251656				0.960953642384106	0.0957880794701987	0.301139072847682	-2.92609271523179	7.86781456953642	0.25403973509934				-0.250172185430464	-0.0332715231788079	-0.88794701986755	2.52741721854305	0.146490066225167	-0.20026490066225				0.352529801324503	-0.176529801324503	-0.917721854304636	3.04291390728477	8.5835761589404	-1.73562913907285				0.948026490066225	0.0834966887417219	0.165933774834437	-2.2882119205298	0.0519205298013249	-1.45748344370861				0.367788079470199	-0.206834437086093	-0.852238410596026	-1.37960264900662	5.75761589403974	-1.87470198675497			
20	500	-0.200158940397351	0.114754966887417	-0.951523178807947	1.71337748344371	-0.144635761589404	-0.344900662251656				0.944953642384106	0.0957880794701987	0.317139072847682	-3.48609271523179	8.14781456953643	0.25403973509934				-0.250172185430464	-0.0332715231788079	-0.90394701986755	2.24741721854305	0.426490066225167	-0.20026490066225				0.352529801324503	-0.176529801324503	-0.933721854304636	0.522913907284768	7.1835761589404	-0.895629139072848				0.948026490066225	0.0994966887417219	0.165933774834437	-1.4482119205298	-0.228079470198675	-0.337483443708608				0.383788079470199	-0.222834437086093	-0.836238410596026	1.42039735099338	5.47761589403974	-2.43470198675497			
21	520	-0.216158940397351	0.114754966887417	-0.951523178807947	-0.806622516556291	0.415364238410596	-1.46490066225166				0.960953642384106	0.0797880794701987	0.301139072847682	-4.32609271523179	8.14781456953643	1.37403973509934				-0.250172185430464	-0.0332715231788079	-0.88794701986755	0.847417218543046	0.986490066225167	-0.20026490066225				0.336529801324503	-0.176529801324503	-0.917721854304636	-2.55708609271523	4.9435761589404	-0.615629139072848				0.948026490066225	0.0994966887417219	0.165933774834437	-2.0082119205298	0.891920529801325	-1.17748344370861				0.383788079470199	-0.222834437086093	-0.852238410596026	1.14039735099338	4.91761589403974	-1.03470198675497			
22	540	-0.216158940397351	0.130754966887417	-0.935523178807947	0.0333774834437086	-0.424635761589404	-0.904900662251656				0.960953642384106	0.0797880794701987	0.301139072847682	-4.88609271523179	10.1078145695364	3.33403973509934				-0.250172185430464	-0.0332715231788079	-0.90394701986755	1.40741721854305	-0.133509933774833	-1.32026490066225				0.320529801324503	-0.176529801324503	-0.917721854304636	-3.11708609271523	2.9835761589404	1.34437086092715				0.948026490066225	0.0994966887417219	0.165933774834437	-1.4482119205298	2.57192052980133	-0.617483443708608				0.383788079470199	-0.222834437086093	-0.868238410596026	-0.259602649006623	3.79761589403974	-0.754701986754968			
23	560	-0.216158940397351	0.130754966887417	-0.935523178807947	1.15337748344371	0.415364238410596	-0.904900662251656				0.960953642384106	0.0957880794701987	0.301139072847682	-4.04609271523179	9.26781456953642	2.77403973509934				-0.266172185430464	-0.0172715231788079	-0.88794701986755	1.12741721854305	0.426490066225167	-0.76026490066225				0.336529801324503	-0.160529801324503	-0.901721854304636	-3.39708609271523	2.4235761589404	2.46437086092715				0.964026490066225	0.0994966887417219	0.165933774834437	-1.4482119205298	2.85192052980133	-0.617483443708608				0.399788079470199	-0.206834437086093	-0.852238410596026	1.14039735099338	2.67761589403974	-0.754701986754968			
24	580	-0.232158940397351	0.146754966887417	-0.919523178807947	0.873377483443709	0.695364238410596	-0.624900662251656				0.976953642384106	0.0957880794701987	0.285139072847682	-2.08609271523179	8.14781456953643	2.77403973509934				-0.266172185430464	-0.00127152317880793	-0.87194701986755	0.287417218543046	0.706490066225167	-0.76026490066225				0.336529801324503	-0.160529801324503	-0.901721854304636	-3.67708609271523	2.4235761589404	2.74437086092715				0.948026490066225	0.0994966887417219	0.181933774834437	-1.1682119205298	4.25192052980133	-0.617483443708608				0.399788079470199	-0.222834437086093	-0.836238410596026	3.66039735099338	1.27761589403974	-1.03470198675497			
25	600	-0.216158940397351	0.130754966887417	-0.951523178807947	1.15337748344371	0.975364238410596	-1.18490066225166				0.976953642384106	0.0797880794701987	0.301139072847682	-0.406092715231788	8.70781456953642	2.49403973509934				-0.266172185430464	-0.0172715231788079	-0.88794701986755	0.287417218543046	0.426490066225167	0.35973509933775				0.336529801324503	-0.144529801324503	-0.885721854304636	-5.07708609271523	2.1435761589404	1.34437086092715				0.964026490066225	0.0994966887417219	0.181933774834437	-0.328211920529802	4.53192052980133	-0.337483443708608				0.399788079470199	-0.238834437086093	-0.852238410596026	2.26039735099338	2.11761589403974	0.0852980132450323			
26	620	-0.200158940397351	0.130754966887417	-0.935523178807947	1.15337748344371	0.975364238410596	-1.18490066225166				0.976953642384106	0.0797880794701987	0.301139072847682	0.433907284768212	8.98781456953643	2.49403973509934				-0.250172185430464	-0.0172715231788079	-0.88794701986755	2.52741721854305	1.26649006622517	-0.20026490066225				0.352529801324503	-0.160529801324503	-0.885721854304636	-4.79708609271523	2.9835761589404	1.90437086092715				0.964026490066225	0.0834966887417219	0.181933774834437	-0.608211920529802	3.97192052980133	0.502516556291392				0.399788079470199	-0.238834437086093	-0.852238410596026	1.14039735099338	2.11761589403974	2.04529801324503			
27	640	-0.184158940397351	0.130754966887417	-0.951523178807947	1.43337748344371	0.415364238410596	-1.74490066225166				0.944953642384106	0.0797880794701987	0.333139072847682	-0.686092715231788	8.42781456953642	2.49403973509934				-0.234172185430464	-0.0332715231788079	-0.88794701986755	3.08741721854305	0.986490066225167	-0.76026490066225				0.352529801324503	-0.128529801324503	-0.869721854304636	-1.71708609271523	4.9435761589404	2.46437086092715				0.964026490066225	0.0994966887417219	0.165933774834437	-2.0082119205298	2.29192052980133	0.782516556291392				0.399788079470199	-0.222834437086093	-0.836238410596026	2.82039735099338	2.39761589403974	1.76529801324503			
28	660	-0.200158940397351	0.114754966887417	-0.951523178807947	0.593377483443709	-0.424635761589404	-1.46490066225166				0.928953642384106	0.0797880794701987	0.317139072847682	-2.36609271523179	6.18781456953642	2.77403973509934				-0.218172185430464	-0.0332715231788079	-0.87194701986755	2.24741721854305	0.146490066225167	-1.32026490066225				0.352529801324503	-0.128529801324503	-0.885721854304636	1.36291390728477	4.9435761589404	2.18437086092715				0.948026490066225	0.0994966887417219	0.197933774834437	-0.888211920529802	4.81192052980133	1.06251655629139				0.383788079470199	-0.222834437086093	-0.836238410596026	3.94039735099338	1.83761589403974	2.04529801324503			
29	680	-0.216158940397351	0.114754966887417	-0.951523178807947	0.593377483443709	-0.424635761589404	-1.18490066225166				0.928953642384106	0.0637880794701987	0.301139072847682	-1.80609271523179	5.62781456953642	2.21403973509934				-0.250172185430464	-0.0332715231788079	-0.87194701986755	1.12741721854305	-0.973509933774833	-1.32026490066225				0.352529801324503	-0.160529801324503	-0.885721854304636	1.64291390728477	4.1035761589404	1.62437086092715				0.932026490066225	0.0834966887417219	0.181933774834437	-2.8482119205298	1.17192052980133	1.34251655629139				0.383788079470199	-0.222834437086093	-0.836238410596026	4.22039735099338	1.55761589403974	2.04529801324503			
30	700	-0.216158940397351	0.114754966887417	-0.951523178807947	-0.526622516556291	-0.424635761589404	-0.344900662251656				0.928953642384106	0.0637880794701987	0.317139072847682	-3.76609271523179	7.58781456953643	3.33403973509934				-0.250172185430464	-0.0332715231788079	-0.87194701986755	1.12741721854305	-0.413509933774833	-0.76026490066225				0.352529801324503	-0.176529801324503	-0.885721854304636	-1.15708609271523	2.1435761589404	1.06437086092715				0.932026490066225	0.0834966887417219	0.197933774834437	-1.4482119205298	4.53192052980133	1.06251655629139				0.383788079470199	-0.238834437086093	-0.804238410596027	3.94039735099338	1.27761589403974	3.44529801324503			
31	720	-0.200158940397351	0.114754966887417	-0.935523178807947	-0.526622516556291	0.975364238410596	0.215099337748344				0.944953642384106	0.0637880794701987	0.349139072847682	-7.12609271523179	10.1078145695364	1.93403973509934				-0.250172185430464	-0.0332715231788079	-0.90394701986755	1.12741721854305	0.426490066225167	-0.48026490066225				0.336529801324503	-0.144529801324503	-0.885721854304636	-3.39708609271523	0.4635761589404	0.784370860927152				0.932026490066225	0.0994966887417219	0.197933774834437	-3.1282119205298	3.13192052980133	1.06251655629139				0.383788079470199	-0.238834437086093	-0.804238410596027	1.42039735099338	2.11761589403974	5.40529801324503			
32	740	-0.200158940397351	0.114754966887417	-0.935523178807947	-0.806622516556291	0.415364238410596	-0.0649006622516557				0.944953642384106	0.0637880794701987	0.349139072847682	-5.72609271523179	9.54781456953642	3.05403973509934				-0.234172185430464	-0.0492715231788079	-0.88794701986755	0.847417218543046	-0.413509933774833	-0.76026490066225				0.368529801324503	-0.144529801324503	-0.885721854304636	-3.95708609271523	1.0235761589404	1.06437086092715				0.948026490066225	0.0834966887417219	0.197933774834437	-1.1682119205298	2.85192052980133	0.502516556291392				0.399788079470199	-0.238834437086093	-0.820238410596026	0.860397350993377	4.35761589403974	4.56529801324503			
33	760	-0.216158940397351	0.130754966887417	-0.951523178807947	0.313377483443709	-0.144635761589404	0.495099337748344				0.944953642384106	0.0797880794701987	0.317139072847682	-2.92609271523179	7.58781456953643	3.33403973509934				-0.250172185430464	-0.0332715231788079	-0.87194701986755	0.287417218543046	-0.413509933774833	-0.20026490066225				0.384529801324503	-0.160529801324503	-0.885721854304636	-2.83708609271523	2.1435761589404	0.784370860927152				0.948026490066225	0.0994966887417219	0.213933774834437	-0.0482119205298018	3.41192052980132	0.782516556291392				0.399788079470199	-0.238834437086093	-0.820238410596026	3.38039735099338	5.75761589403974	2.88529801324503			
34	780	-0.216158940397351	0.130754966887417	-0.951523178807947	-0.526622516556291	-0.144635761589404	0.495099337748344				0.944953642384106	0.0797880794701987	0.349139072847682	-2.36609271523179	8.14781456953643	2.77403973509934				-0.250172185430464	-0.0332715231788079	-0.87194701986755	-0.272582781456954	0.426490066225167	0.35973509933775				0.384529801324503	-0.160529801324503	-0.885721854304636	-1.99708609271523	1.8635761589404	0.224370860927152				0.948026490066225	0.0994966887417219	0.197933774834437	-2.2882119205298	3.97192052980133	1.06251655629139				0.415788079470199	-0.238834437086093	-0.820238410596026	4.50039735099338	5.75761589403974	1.48529801324503			
35	800	-0.232158940397351	0.130754966887417	-0.951523178807947	-1.08662251655629	-0.144635761589404	0.775099337748344				0.944953642384106	0.0797880794701987	0.349139072847682	-3.76609271523179	6.46781456953642	2.49403973509934				-0.250172185430464	-0.0172715231788079	-0.88794701986755	-0.552582781456954	1.26649006622517	0.0797350993377501				0.400529801324503	-0.144529801324503	-0.901721854304636	-3.11708609271523	1.3035761589404	0.504370860927152				0.948026490066225	0.0994966887417219	0.229933774834437	-0.888211920529802	4.53192052980133	0.222516556291392				0.399788079470199	-0.222834437086093	-0.836238410596026	2.54039735099338	5.19761589403974	1.48529801324503			
36	820	-0.232158940397351	0.162754966887417	-0.919523178807947	-1.36662251655629	0.135364238410596	0.215099337748344				0.944953642384106	0.0797880794701987	0.349139072847682	-4.04609271523179	7.02781456953642	0.81403973509934				-0.250172185430464	-0.00127152317880793	-0.88794701986755	-0.272582781456954	0.426490066225167	0.91973509933775				0.400529801324503	-0.144529801324503	-0.885721854304636	-3.39708609271523	-0.0964238410596001	0.784370860927152				0.948026490066225	0.0994966887417219	0.229933774834437	-0.0482119205298018	3.41192052980132	0.782516556291392				0.415788079470199	-0.222834437086093	-0.836238410596026	1.98039735099338	3.79761589403974	0.925298013245032			
37	840	-0.216158940397351	0.146754966887417	-0.919523178807947	0.593377483443709	0.695364238410596	-0.904900662251656				0.976953642384106	0.0797880794701987	0.333139072847682	-1.52609271523179	4.78781456953642	1.37403973509934				-0.266172185430464	-0.0172715231788079	-0.88794701986755	1.12741721854305	0.426490066225167	1.47973509933775				0.400529801324503	-0.144529801324503	-0.901721854304636	-1.99708609271523	-1.2164238410596	1.34437086092715				0.964026490066225	0.0994966887417219	0.213933774834437	1.3517880794702	2.29192052980133	1.06251655629139				0.415788079470199	-0.254834437086093	-0.820238410596026	2.54039735099338	2.11761589403974	0.0852980132450323			
38	860	-0.200158940397351	0.146754966887417	-0.935523178807947	0.873377483443709	0.135364238410596	-0.344900662251656				0.960953642384106	0.0797880794701987	0.349139072847682	1.83390728476821	1.14781456953642	0.81403973509934				-0.266172185430464	-0.0172715231788079	-0.87194701986755	1.96741721854305	1.26649006622517	0.63973509933775				0.416529801324503	-0.144529801324503	-0.901721854304636	-1.71708609271523	-0.9364238410596	0.504370860927152				0.964026490066225	0.0994966887417219	0.213933774834437	2.1917880794702	1.73192052980133	0.222516556291392				0.431788079470199	-0.238834437086093	-0.836238410596026	2.26039735099338	1.83761589403974	-1.59470198675497			
39	880	-0.200158940397351	0.130754966887417	-0.935523178807947	1.71337748344371	-0.424635761589404	-1.18490066225166				0.944953642384106	0.0797880794701987	0.349139072847682	1.27390728476821	0.587814569536424	1.09403973509934				-0.250172185430464	-0.00127152317880793	-0.88794701986755	3.36741721854305	0.706490066225167	0.0797350993377501				0.368529801324503	-0.144529801324503	-0.901721854304636	-1.43708609271523	-2.0564238410596	0.504370860927152				0.964026490066225	0.0994966887417219	0.213933774834437	1.6317880794702	0.331920529801325	0.502516556291392				0.415788079470199	-0.238834437086093	-0.852238410596026	1.42039735099338	0.997615894039735	-1.87470198675497			
40	900	-0.216158940397351	0.130754966887417	-0.951523178807947	0.873377483443709	0.135364238410596	-1.18490066225166				0.928953642384106	0.0637880794701987	0.365139072847682	0.433907284768212	0.867814569536424	1.65403973509934				-0.234172185430464	-0.0172715231788079	-0.88794701986755	1.68741721854305	0.426490066225167	-0.48026490066225				0.384529801324503	-0.144529801324503	-0.901721854304636	-0.877086092715232	-2.6164238410596	-0.335629139072848				0.964026490066225	0.0994966887417219	0.197933774834437	2.4717880794702	0.331920529801325	-0.337483443708608				0.415788079470199	-0.238834437086093	-0.836238410596026	1.70039735099338	-0.122384105960265	-2.71470198675497			
41	920	-0.200158940397351	0.130754966887417	-0.935523178807947	1.43337748344371	-0.424635761589404	-2.02490066225166				0.944953642384106	0.0637880794701987	0.349139072847682	-0.686092715231788	-0.252185430463576	2.21403973509934				-0.250172185430464	-0.0172715231788079	-0.88794701986755	1.40741721854305	0.706490066225167	-1.32026490066225				0.368529801324503	-0.144529801324503	-0.901721854304636	-2.27708609271523	-3.1764238410596	-0.895629139072848				0.948026490066225	0.0994966887417219	0.213933774834437	3.5917880794702	2.01192052980133	-0.337483443708608				0.399788079470199	-0.238834437086093	-0.836238410596026	2.54039735099338	-2.92238410596027	-2.71470198675497			
42	1040	0	0	0	0	0	0				0	0	0	0	0	0				0	0	0	0	0	0				0	0	0	0	0	0				0	0	0	0	0	0				0.415788079470199	-0.254834437086093	-0.820238410596026	0.300397350993377	-3.48238410596027	-1.31470198675497			
43	1060	-0.216158940397351	0.114754966887417	-0.951523178807947	-0.246622516556291	-0.144635761589404	-0.0649006622516557				0.960953642384106	0.0637880794701987	0.365139072847682	0.153907284768212	-0.812185430463576	0.25403973509934				-0.250172185430464	-0.0332715231788079	-0.88794701986755	-0.552582781456954	0.426490066225167	-0.20026490066225				0.368529801324503	-0.144529801324503	-0.885721854304636	0.242913907284768	-3.4564238410596	0.784370860927152				0.948026490066225	0.0834966887417219	0.213933774834437	0.791788079470198	-2.18807947019868	-0.337483443708608				0.399788079470199	-0.254834437086093	-0.804238410596027	0.0203973509933773	-2.92238410596027	-0.754701986754968			
44	1080	-0.216158940397351	0.130754966887417	-0.951523178807947	-1.64662251655629	-0.984635761589404	0.215099337748344				0.960953642384106	0.0797880794701987	0.349139072847682	0.993907284768212	-4.45218543046358	-1.14596026490066				-0.266172185430464	-0.0332715231788079	-0.88794701986755	-1.11258278145695	0.426490066225167	0.0797350993377501				0.368529801324503	-0.160529801324503	-0.901721854304636	0.522913907284768	-2.6164238410596	1.06437086092715				0.948026490066225	0.0834966887417219	0.213933774834437	1.6317880794702	-1.06807947019868	0.222516556291392				0.399788079470199	-0.238834437086093	-0.820238410596026	-0.259602649006623	-1.24238410596026	-1.31470198675497			
45	1100	-0.216158940397351	0.130754966887417	-0.935523178807947	-1.36662251655629	-0.424635761589404	-0.344900662251656				0.960953642384106	0.0637880794701987	0.333139072847682	1.55390728476821	-6.97218543046358	-0.585960264900661				-0.250172185430464	-0.0172715231788079	-0.88794701986755	-0.552582781456954	0.426490066225167	1.19973509933775				0.368529801324503	-0.160529801324503	-0.901721854304636	-0.597086092715232	-2.6164238410596	2.18437086092715				0.964026490066225	0.0834966887417219	0.213933774834437	1.3517880794702	-1.06807947019868	-0.0574834437086077				0.415788079470199	-0.254834437086093	-0.820238410596026	-1.09960264900662	-0.402384105960265	-1.31470198675497			
46	1120	-0.216158940397351	0.146754966887417	-0.935523178807947	-0.526622516556291	0.135364238410596	-0.344900662251656				0.960953642384106	0.0637880794701987	0.317139072847682	2.67390728476821	-7.53218543046358	-1.42596026490066				-0.250172185430464	-0.0172715231788079	-0.88794701986755	0.847417218543046	-0.693509933774834	1.19973509933775				0.352529801324503	-0.144529801324503	-0.901721854304636	-1.15708609271523	-2.3364238410596	1.62437086092715				0.948026490066225	0.0834966887417219	0.197933774834437	0.791788079470198	-2.18807947019868	-0.617483443708608				0.399788079470199	-0.254834437086093	-0.820238410596026	-0.259602649006623	-0.122384105960265	-2.15470198675497			
47	1140	-0.200158940397351	0.130754966887417	-0.935523178807947	0.313377483443709	0.695364238410596	-0.904900662251656				0.944953642384106	0.0637880794701987	0.333139072847682	2.95390728476821	-5.29218543046358	-1.70596026490066				-0.266172185430464	-0.0172715231788079	-0.90394701986755	-0.552582781456954	0.426490066225167	1.19973509933775				0.336529801324503	-0.144529801324503	-0.901721854304636	0.242913907284768	-1.2164238410596	1.34437086092715				0.948026490066225	0.0994966887417219	0.197933774834437	2.1917880794702	-2.18807947019868	-0.617483443708608				0.399788079470199	-0.254834437086093	-0.836238410596026	-1.65960264900662	-0.402384105960265	-2.71470198675497			
48	1160	-0.216158940397351	0.130754966887417	-0.935523178807947	-1.64662251655629	0.695364238410596	-1.46490066225166				0.944953642384106	0.0637880794701987	0.365139072847682	2.39390728476821	-3.61218543046358	-0.30596026490066				-0.266172185430464	-0.0172715231788079	-0.88794701986755	-0.832582781456954	0.146490066225167	0.0797350993377501				0.336529801324503	-0.128529801324503	-0.885721854304636	2.48291390728477	-0.9364238410596	1.34437086092715				0.948026490066225	0.0834966887417219	0.197933774834437	1.3517880794702	-2.18807947019868	0.222516556291392				0.399788079470199	-0.238834437086093	-0.852238410596026	-1.09960264900662	-1.80238410596026	-2.71470198675497			
49	1180	-0.216158940397351	0.130754966887417	-0.951523178807947	-0.246622516556291	0.135364238410596	-2.02490066225166				0.960953642384106	0.0797880794701987	0.333139072847682	2.39390728476821	-3.89218543046358	-1.14596026490066				-0.266172185430464	-0.0172715231788079	-0.88794701986755	-0.552582781456954	0.426490066225167	-0.20026490066225				0.336529801324503	-0.144529801324503	-0.885721854304636	3.04291390728477	-0.6564238410596	0.504370860927152				0.948026490066225	0.0994966887417219	0.181933774834437	1.6317880794702	-2.18807947019868	-0.337483443708608				0.399788079470199	-0.238834437086093	-0.836238410596026	-0.819602649006623	-2.08238410596027	-1.59470198675497			
50	1200	-0.216158940397351	0.130754966887417	-0.935523178807947	-0.806622516556291	0.135364238410596	-2.02490066225166				0.960953642384106	0.0797880794701987	0.317139072847682	2.39390728476821	-5.57218543046358	-2.26596026490066				-0.250172185430464	-0.0172715231788079	-0.87194701986755	-0.272582781456954	-0.413509933774833	-0.76026490066225				0.352529801324503	-0.144529801324503	-0.901721854304636	1.92291390728477	-1.2164238410596	0.784370860927152				0.948026490066225	0.0994966887417219	0.181933774834437	0.231788079470198	-2.46807947019868	0.222516556291392				0.383788079470199	-0.238834437086093	-0.836238410596026	-0.819602649006623	-2.92238410596027	-1.59470198675497			
51	1220	-0.216158940397351	0.130754966887417	-0.935523178807947	-1.08662251655629	0.695364238410596	-2.30490066225166				0.944953642384106	0.0797880794701987	0.317139072847682	1.83390728476821	-5.85218543046358	-3.10596026490066				-0.234172185430464	-0.0172715231788079	-0.88794701986755	0.00741721854304636	-0.133509933774833	-1.04026490066225				0.336529801324503	-0.144529801324503	-0.901721854304636	3.04291390728477	-0.0964238410596001	-0.335629139072848				0.964026490066225	0.0994966887417219	0.197933774834437	1.9117880794702	0.0519205298013249	-0.337483443708608				0.383788079470199	-0.238834437086093	-0.836238410596026	-0.259602649006623	-4.04238410596027	-2.99470198675497			
52	1240	-0.216158940397351	0.130754966887417	-0.951523178807947	-0.806622516556291	0.695364238410596	-1.74490066225166				0.928953642384106	0.0797880794701987	0.333139072847682	1.83390728476821	-4.17218543046358	-1.70596026490066				-0.250172185430464	-0.0332715231788079	-0.88794701986755	-0.272582781456954	-0.413509933774833	-1.04026490066225				0.352529801324503	-0.160529801324503	-0.901721854304636	3.60291390728477	-0.3764238410596	1.06437086092715				0.964026490066225	0.0994966887417219	0.181933774834437	0.231788079470198	-3.30807947019868	0.222516556291392				0.383788079470199	-0.238834437086093	-0.836238410596026	-0.259602649006623	-2.64238410596027	-2.43470198675497			
53	1260	-0.200158940397351	0.130754966887417	-0.951523178807947	0.0333774834437086	-0.144635761589404	-1.74490066225166				0.944953642384106	0.0797880794701987	0.317139072847682	0.993907284768212	-1.65218543046358	-0.86596026490066				-0.250172185430464	-0.0332715231788079	-0.88794701986755	0.00741721854304636	0.146490066225167	-0.20026490066225				0.336529801324503	-0.160529801324503	-0.917721854304636	2.76291390728477	-1.4964238410596	0.224370860927152				0.932026490066225	0.0994966887417219	0.197933774834437	1.3517880794702	-0.228079470198675	-0.617483443708608				0.367788079470199	-0.238834437086093	-0.820238410596026	-1.37960264900662	-2.64238410596027	-2.43470198675497			
54	1280	-0.216158940397351	0.130754966887417	-0.951523178807947	0.593377483443709	0.135364238410596	-0.624900662251656				0.960953642384106	0.0797880794701987	0.349139072847682	0.433907284768212	-2.21218543046358	-0.585960264900661				-0.250172185430464	-0.0172715231788079	-0.88794701986755	0.00741721854304636	-0.133509933774833	0.0797350993377501				0.320529801324503	-0.160529801324503	-0.917721854304636	1.08291390728477	-1.7764238410596	0.224370860927152				0.932026490066225	0.0994966887417219	0.197933774834437	-0.608211920529802	-1.62807947019868	-1.73748344370861				0.367788079470199	-0.238834437086093	-0.820238410596026	-1.65960264900662	-2.92238410596027	-1.59470198675497			
55	1300	-0.216158940397351	0.130754966887417	-0.935523178807947	-0.246622516556291	0.415364238410596	-0.904900662251656				0.960953642384106	0.0637880794701987	0.349139072847682	2.95390728476821	-5.85218543046358	-0.585960264900661				-0.266172185430464	-0.0332715231788079	-0.88794701986755	0.00741721854304636	-0.413509933774833	0.0797350993377501				0.336529801324503	-0.160529801324503	-0.917721854304636	-1.15708609271523	-1.7764238410596	0.224370860927152				0.948026490066225	0.0994966887417219	0.181933774834437	1.3517880794702	-2.46807947019868	-1.73748344370861				0.383788079470199	-0.222834437086093	-0.836238410596026	-2.21960264900662	-2.92238410596027	-1.87470198675497			
56	1320	-0.216158940397351	0.130754966887417	-0.935523178807947	-0.526622516556291	0.135364238410596	-0.0649006622516557				0.944953642384106	0.0797880794701987	0.317139072847682	2.39390728476821	-4.17218543046358	-1.70596026490066				-0.266172185430464	-0.0332715231788079	-0.88794701986755	0.00741721854304636	0.706490066225167	0.63973509933775				0.336529801324503	-0.144529801324503	-0.885721854304636	-2.55708609271523	-1.7764238410596	-0.0556291390728476				0.948026490066225	0.0994966887417219	0.197933774834437	1.6317880794702	-2.18807947019868	-1.17748344370861				0.383788079470199	-0.238834437086093	-0.836238410596026	-2.49960264900662	-0.962384105960265	-2.15470198675497			
57	1340	-0.216158940397351	0.114754966887417	-0.935523178807947	0.873377483443709	0.415364238410596	-1.18490066225166				0.960953642384106	0.0957880794701987	0.317139072847682	2.39390728476821	-2.21218543046358	-0.86596026490066				-0.266172185430464	-0.0332715231788079	-0.88794701986755	-0.272582781456954	0.146490066225167	-0.20026490066225				0.352529801324503	-0.144529801324503	-0.885721854304636	0.242913907284768	-1.7764238410596	-0.335629139072848				0.948026490066225	0.0994966887417219	0.165933774834437	1.0717880794702	-0.508079470198675	-2.29748344370861				0.383788079470199	-0.222834437086093	-0.836238410596026	-2.21960264900662	-0.402384105960265	-2.99470198675497			
58	1360	-0.216158940397351	0.130754966887417	-0.935523178807947	-0.526622516556291	0.415364238410596	-0.904900662251656				0.960953642384106	0.0957880794701987	0.317139072847682	2.39390728476821	-4.73218543046358	-0.585960264900661				-0.250172185430464	-0.0332715231788079	-0.88794701986755	-1.39258278145695	0.706490066225167	0.91973509933775				0.336529801324503	-0.160529801324503	-0.901721854304636	0.242913907284768	-1.7764238410596	-0.615629139072848				0.948026490066225	0.0994966887417219	0.197933774834437	2.7517880794702	0.0519205298013249	-2.29748344370861				0.383788079470199	-0.222834437086093	-0.836238410596026	-1.37960264900662	0.437615894039735	-2.71470198675497			
59	1380	-0.200158940397351	0.130754966887417	-0.919523178807947	0.0333774834437086	0.415364238410596	-0.904900662251656				0.944953642384106	0.0797880794701987	0.301139072847682	2.67390728476821	-6.41218543046358	-0.585960264900661				-0.250172185430464	-0.0172715231788079	-0.87194701986755	-0.272582781456954	0.146490066225167	0.35973509933775				0.336529801324503	-0.160529801324503	-0.917721854304636	-0.877086092715232	-1.2164238410596	-0.0556291390728476				0.964026490066225	0.0994966887417219	0.197933774834437	0.791788079470198	-1.62807947019868	-1.73748344370861				0.399788079470199	-0.238834437086093	-0.852238410596026	-1.65960264900662	-0.122384105960265	-2.71470198675497			
60	1400	-0.200158940397351	0.130754966887417	-0.919523178807947	-1.36662251655629	-0.144635761589404	-1.18490066225166				0.928953642384106	0.0797880794701987	0.301139072847682	2.67390728476821	-5.29218543046358	-0.30596026490066				-0.250172185430464	-0.0172715231788079	-0.87194701986755	0.567417218543046	0.426490066225167	0.0797350993377501				0.336529801324503	-0.160529801324503	-0.917721854304636	-0.317086092715232	-1.4964238410596	1.34437086092715				0.948026490066225	0.0994966887417219	0.181933774834437	0.231788079470198	-1.06807947019868	-1.73748344370861				0.399788079470199	-0.222834437086093	-0.852238410596026	-1.93960264900662	-1.80238410596026	-2.71470198675497			
61	1420	-0.216158940397351	0.130754966887417	-0.951523178807947	0.0333774834437086	0.135364238410596	-0.0649006622516557				0.944953642384106	0.0797880794701987	0.317139072847682	2.95390728476821	-3.61218543046358	-0.86596026490066				-0.250172185430464	-0.0172715231788079	-0.87194701986755	1.12741721854305	-0.133509933774833	0.35973509933775				0.336529801324503	-0.144529801324503	-0.901721854304636	0.242913907284768	-2.3364238410596	1.90437086092715				0.948026490066225	0.0994966887417219	0.181933774834437	1.6317880794702	0.0519205298013249	-0.897483443708608				0.383788079470199	-0.206834437086093	-0.852238410596026	-1.65960264900662	-3.20238410596026	-2.43470198675497			
62	1440	-0.200158940397351	0.130754966887417	-0.951523178807947	-0.246622516556291	0.135364238410596	-0.624900662251656				0.960953642384106	0.0957880794701987	0.301139072847682	4.07390728476821	-3.89218543046358	-1.98596026490066				-0.250172185430464	-0.0332715231788079	-0.90394701986755	-0.832582781456954	-0.693509933774834	-0.48026490066225				0.336529801324503	-0.144529801324503	-0.885721854304636	-1.15708609271523	-4.0164238410596	2.74437086092715				0.948026490066225	0.0834966887417219	0.197933774834437	1.9117880794702	-0.228079470198675	-0.897483443708608				0.383788079470199	-0.222834437086093	-0.836238410596026	-0.259602649006623	-3.76238410596027	-2.99470198675497			
63	1460	-0.216158940397351	0.130754966887417	-0.935523178807947	0.313377483443709	-4.0646357615894	-0.904900662251656				0.960953642384106	0.0797880794701987	0.285139072847682	2.11390728476821	-1.93218543046358	-1.14596026490066				-0.266172185430464	-0.0172715231788079	-0.88794701986755	-1.39258278145695	-0.693509933774834	-0.20026490066225				0.320529801324503	-0.160529801324503	-0.901721854304636	-1.43708609271523	-4.5764238410596	2.18437086092715				0.964026490066225	0.0994966887417219	0.197933774834437	1.6317880794702	-0.228079470198675	-0.617483443708608				0.367788079470199	-0.238834437086093	-0.836238410596026	0.0203973509933773	-3.48238410596027	-2.71470198675497			
64	1480	-0.232158940397351	0.130754966887417	-0.935523178807947	-1.64662251655629	0.135364238410596	-1.74490066225166				0.944953642384106	0.0957880794701987	0.285139072847682	-0.126092715231788	-0.252185430463576	-1.14596026490066				-0.266172185430464	-0.0172715231788079	-0.88794701986755	0.287417218543046	0.706490066225167	-0.20026490066225				0.320529801324503	-0.160529801324503	-0.901721854304636	-2.55708609271523	-3.4564238410596	2.18437086092715				0.948026490066225	0.0994966887417219	0.181933774834437	1.0717880794702	-2.46807947019868	-0.897483443708608				0.383788079470199	-0.238834437086093	-0.836238410596026	-1.65960264900662	-2.36238410596027	-1.31470198675497			
65	1500	-0.216158940397351	0.130754966887417	-0.935523178807947	-0.806622516556291	0.135364238410596	-0.904900662251656				0.960953642384106	0.0797880794701987	0.301139072847682	-0.406092715231788	1.70781456953642	-1.42596026490066				-0.266172185430464	-0.0172715231788079	-0.88794701986755	0.847417218543046	0.146490066225167	-0.48026490066225				0.320529801324503	-0.144529801324503	-0.917721854304636	-3.11708609271523	-2.3364238410596	1.90437086092715				0.964026490066225	0.0994966887417219	0.181933774834437	0.791788079470198	1.17192052980133	-0.897483443708608				0.383788079470199	-0.222834437086093	-0.836238410596026	-2.21960264900662	-1.80238410596026	-0.474701986754968			
66	1520	-0.216158940397351	0.130754966887417	-0.951523178807947	0.593377483443709	0.695364238410596	-1.46490066225166				0.976953642384106	0.0797880794701987	0.317139072847682	0.993907284768212	-2.49218543046358	-1.14596026490066				-0.250172185430464	-0.0172715231788079	-0.88794701986755	0.00741721854304636	0.146490066225167	-0.20026490066225				0.320529801324503	-0.128529801324503	-0.917721854304636	-1.99708609271523	-2.6164238410596	1.90437086092715				0.964026490066225	0.0994966887417219	0.213933774834437	2.4717880794702	1.45192052980132	-1.45748344370861				0.383788079470199	-0.206834437086093	-0.852238410596026	-1.93960264900662	-0.962384105960265	-0.194701986754968			
67	1540	-0.216158940397351	0.114754966887417	-0.935523178807947	-0.246622516556291	0.135364238410596	-0.624900662251656				0.960953642384106	0.0797880794701987	0.301139072847682	1.83390728476821	-3.89218543046358	-0.86596026490066				-0.250172185430464	-0.0172715231788079	-0.88794701986755	0.287417218543046	-0.693509933774834	-0.20026490066225				0.320529801324503	-0.144529801324503	-0.901721854304636	-0.317086092715232	-2.6164238410596	2.46437086092715				0.964026490066225	0.0994966887417219	0.181933774834437	1.3517880794702	-0.508079470198675	-1.45748344370861				0.383788079470199	-0.222834437086093	-0.836238410596026	-0.259602649006623	-0.962384105960265	-1.31470198675497			
68	1560	-0.216158940397351	0.130754966887417	-0.951523178807947	-0.526622516556291	0.135364238410596	-0.0649006622516557				0.944953642384106	0.0797880794701987	0.285139072847682	0.993907284768212	-1.37218543046358	-0.30596026490066				-0.250172185430464	-0.0172715231788079	-0.88794701986755	-0.552582781456954	0.426490066225167	0.0797350993377501				0.320529801324503	-0.144529801324503	-0.869721854304636	-0.597086092715232	-2.6164238410596	2.74437086092715				0.948026490066225	0.0994966887417219	0.197933774834437	-0.608211920529802	-1.62807947019868	-0.617483443708608				0.383788079470199	-0.238834437086093	-0.852238410596026	0.0203973509933773	-0.962384105960265	-0.754701986754968			
69	1580	-0.216158940397351	0.130754966887417	-0.935523178807947	-0.246622516556291	0.135364238410596	-0.904900662251656				0.944953642384106	0.0957880794701987	0.317139072847682	-0.406092715231788	1.98781456953642	-0.30596026490066				-0.250172185430464	-0.0332715231788079	-0.88794701986755	-1.11258278145695	-0.133509933774833	-0.20026490066225				0.304529801324503	-0.144529801324503	-0.901721854304636	-2.27708609271523	-2.0564238410596	1.90437086092715				0.932026490066225	0.0994966887417219	0.181933774834437	-0.0482119205298018	0.0519205298013249	-0.897483443708608				0.367788079470199	-0.222834437086093	-0.852238410596026	-1.09960264900662	-0.962384105960265	-0.194701986754968			
70	1600	-0.216158940397351	0.130754966887417	-0.935523178807947	-0.526622516556291	0.975364238410596	-1.18490066225166				0.976953642384106	0.0957880794701987	0.317139072847682	0.433907284768212	-0.252185430463576	-0.30596026490066				-0.250172185430464	-0.0172715231788079	-0.87194701986755	-0.552582781456954	0.426490066225167	-0.48026490066225				0.320529801324503	-0.128529801324503	-0.901721854304636	-1.43708609271523	-1.7764238410596	1.06437086092715				0.948026490066225	0.115496688741722	0.181933774834437	0.231788079470198	0.611920529801325	-0.897483443708608				0.383788079470199	-0.222834437086093	-0.836238410596026	-0.819602649006623	-0.962384105960265	-0.194701986754968			
71	1620	-0.216158940397351	0.130754966887417	-0.935523178807947	0.593377483443709	0.975364238410596	-0.624900662251656				0.960953642384106	0.0957880794701987	0.301139072847682	2.39390728476821	-2.77218543046358	-0.0259602649006601				-0.266172185430464	-0.0172715231788079	-0.87194701986755	-0.552582781456954	0.426490066225167	-0.20026490066225				0.336529801324503	-0.128529801324503	-0.901721854304636	0.242913907284768	-1.2164238410596	1.06437086092715				0.964026490066225	0.115496688741722	0.181933774834437	-0.0482119205298018	0.611920529801325	-0.617483443708608				0.383788079470199	-0.222834437086093	-0.852238410596026	-0.259602649006623	-0.962384105960265	0.925298013245032			
72	1640	-0.216158940397351	0.130754966887417	-0.935523178807947	-0.526622516556291	0.415364238410596	-0.624900662251656				0.944953642384106	0.0797880794701987	0.301139072847682	1.83390728476821	-1.37218543046358	-0.0259602649006601				-0.250172185430464	-0.0332715231788079	-0.88794701986755	0.287417218543046	0.986490066225167	-0.20026490066225				0.320529801324503	-0.144529801324503	-0.901721854304636	0.802913907284768	0.1835761589404	0.504370860927152				0.948026490066225	0.0994966887417219	0.197933774834437	-0.328211920529802	-1.34807947019868	-0.337483443708608				0.367788079470199	-0.222834437086093	-0.836238410596026	-0.539602649006623	-0.402384105960265	0.925298013245032			
73	1660	-0.216158940397351	0.130754966887417	-0.935523178807947	-1.92662251655629	-0.144635761589404	-1.18490066225166				0.944953642384106	0.0957880794701987	0.301139072847682	-0.126092715231788	1.42781456953642	0.53403973509934				-0.250172185430464	-0.0172715231788079	-0.88794701986755	0.287417218543046	-0.133509933774833	-0.20026490066225				0.304529801324503	-0.144529801324503	-0.901721854304636	1.08291390728477	1.5835761589404	0.784370860927152				0.932026490066225	0.0994966887417219	0.181933774834437	-0.608211920529802	-1.34807947019868	-0.0574834437086077				0.367788079470199	-0.222834437086093	-0.836238410596026	-1.93960264900662	1.55761589403974	2.04529801324503			
74	1680	-0.216158940397351	0.130754966887417	-0.935523178807947	-0.246622516556291	0.695364238410596	-0.904900662251656				0.960953642384106	0.0957880794701987	0.301139072847682	-0.686092715231788	1.42781456953642	0.81403973509934				-0.250172185430464	-0.0172715231788079	-0.87194701986755	-0.552582781456954	0.146490066225167	0.0797350993377501				0.304529801324503	-0.128529801324503	-0.885721854304636	-0.877086092715232	0.1835761589404	0.504370860927152				0.948026490066225	0.0994966887417219	0.181933774834437	-0.328211920529802	0.331920529801325	-0.337483443708608				0.383788079470199	-0.222834437086093	-0.852238410596026	-1.37960264900662	1.55761589403974	2.60529801324503			
75	1700	-0.216158940397351	0.130754966887417	-0.935523178807947	0.593377483443709	0.135364238410596	-1.18490066225166				0.960953642384106	0.0957880794701987	0.301139072847682	1.27390728476821	1.42781456953642	-0.0259602649006601				-0.266172185430464	-0.0172715231788079	-0.88794701986755	-0.552582781456954	-0.133509933774833	-0.20026490066225				0.304529801324503	-0.128529801324503	-0.917721854304636	-0.597086092715232	-0.6564238410596	0.224370860927152				0.948026490066225	0.0994966887417219	0.181933774834437	0.231788079470198	0.611920529801325	-0.617483443708608				0.383788079470199	-0.222834437086093	-0.852238410596026	-0.819602649006623	0.997615894039735	2.60529801324503			
76	1720	-0.216158940397351	0.130754966887417	-0.935523178807947	-1.64662251655629	-0.704635761589404	-1.46490066225166				0.944953642384106	0.0957880794701987	0.301139072847682	0.153907284768212	3.38781456953642	-0.0259602649006601				-0.250172185430464	-0.0332715231788079	-0.90394701986755	1.40741721854305	-0.413509933774833	-0.48026490066225				0.304529801324503	-0.160529801324503	-0.901721854304636	-0.317086092715232	0.4635761589404	0.504370860927152				0.948026490066225	0.0994966887417219	0.181933774834437	-1.1682119205298	-0.228079470198675	-1.17748344370861				0.383788079470199	-0.222834437086093	-0.836238410596026	-1.09960264900662	1.27761589403974	2.60529801324503			
77	1740	-0.216158940397351	0.146754966887417	-0.951523178807947	-1.64662251655629	-0.424635761589404	-0.624900662251656				0.944953642384106	0.0957880794701987	0.317139072847682	-0.966092715231788	4.22781456953642	-0.86596026490066				-0.250172185430464	-0.0172715231788079	-0.87194701986755	0.567417218543046	-0.693509933774834	-0.48026490066225				0.320529801324503	-0.144529801324503	-0.901721854304636	-0.0370860927152318	0.4635761589404	1.90437086092715				0.948026490066225	0.0994966887417219	0.181933774834437	-1.7282119205298	0.331920529801325	0.222516556291392				0.383788079470199	-0.222834437086093	-0.852238410596026	-0.259602649006623	1.27761589403974	2.60529801324503			
78	1760	-0.200158940397351	0.130754966887417	-0.951523178807947	0.593377483443709	0.135364238410596	-0.624900662251656				0.960953642384106	0.0957880794701987	0.301139072847682	0.433907284768212	2.26781456953642	-0.0259602649006601				-0.250172185430464	-0.0172715231788079	-0.88794701986755	-0.272582781456954	-0.133509933774833	-0.20026490066225				0.304529801324503	-0.128529801324503	-0.901721854304636	-0.597086092715232	-0.6564238410596	2.46437086092715				0.948026490066225	0.115496688741722	0.165933774834437	-1.7282119205298	0.0519205298013249	0.222516556291392				0.367788079470199	-0.222834437086093	-0.836238410596026	-3.89960264900662	2.95761589403974	4.84529801324503			
79	1780	-0.184158940397351	0.130754966887417	-0.935523178807947	-0.246622516556291	-0.704635761589404	-0.344900662251656				0.944953642384106	0.0797880794701987	0.285139072847682	-0.126092715231788	0.867814569536424	0.53403973509934				-0.234172185430464	-0.0172715231788079	-0.88794701986755	0.287417218543046	-1.25350993377483	-1.60026490066225				0.304529801324503	-0.128529801324503	-0.917721854304636	0.802913907284768	-1.7764238410596	0.504370860927152				0.948026490066225	0.115496688741722	0.197933774834437	-0.328211920529802	4.81192052980133	0.222516556291392				0.367788079470199	-0.206834437086093	-0.852238410596026	-3.33960264900662	2.11761589403974	4.56529801324503			
80	1800	-0.184158940397351	0.114754966887417	-0.951523178807947	-1.64662251655629	-1.5446357615894	-0.624900662251656				0.912953642384106	0.0957880794701987	0.301139072847682	-1.52609271523179	0.867814569536424	-0.30596026490066				-0.234172185430464	-0.0332715231788079	-0.88794701986755	3.64741721854305	-2.09350993377483	-3.56026490066225				0.288529801324503	-0.160529801324503	-0.917721854304636	1.64291390728477	-0.0964238410596001	1.06437086092715				0.948026490066225	0.115496688741722	0.133933774834437	-2.0082119205298	-3.58807947019868	1.34251655629139				0.367788079470199	-0.206834437086093	-0.868238410596026	-1.09960264900662	1.27761589403974	5.12529801324503			
81	1820	-0.184158940397351	0.130754966887417	-0.919523178807947	-2.48662251655629	-2.3846357615894	0.775099337748344				0.928953642384106	0.111788079470199	0.269139072847682	-0.966092715231788	3.94781456953642	2.21403973509934				-0.218172185430464	-0.0172715231788079	-0.87194701986755	0.00741721854304636	-2.37350993377483	-4.68026490066225				0.304529801324503	-0.224529801324503	-0.933721854304636	8.92291390728477	3.8235761589404	-2.01562913907285				0.948026490066225	0.115496688741722	0.101933774834437	-5.9282119205298	0.891920529801325	-0.337483443708608				0.351788079470199	-0.206834437086093	-0.900238410596026	-3.05960264900662	4.35761589403974	8.20529801324503			
82	1840	-0.200158940397351	0.130754966887417	-0.935523178807947	-2.48662251655629	-4.0646357615894	0.775099337748344				0.944953642384106	0.0797880794701987	0.269139072847682	-3.20609271523179	4.22781456953642	4.17403973509934				-0.250172185430464	0.0147284768211921	-0.87194701986755	-0.552582781456954	-3.49350993377483	-6.36026490066225				0.256529801324503	-0.208529801324503	-0.965721854304636	40.8429139072848	-4.5764238410596	-10.6956291390728				0.932026490066225	0.0994966887417219	0.117933774834437	-7.3282119205298	6.21192052980133	-0.617483443708608				0.335788079470199	-0.238834437086093	-0.900238410596026	1.70039735099338	-0.682384105960265	11.845298013245			
83	1860	-0.216158940397351	0.114754966887417	-0.951523178807947	-1.08662251655629	-3.7846357615894	-0.904900662251656				0.976953642384106	0.0637880794701987	0.301139072847682	-3.20609271523179	3.38781456953642	3.05403973509934				-0.282172185430464	-0.0172715231788079	-0.87194701986755	2.24741721854305	-3.77350993377483	-7.20026490066225				0.224529801324503	-0.0965298013245033	-0.965721854304636	8.64291390728477	-11.8564238410596	-9.01562913907285				0.948026490066225	0.0834966887417219	0.101933774834437	-5.9282119205298	6.77192052980133	1.34251655629139				0.303788079470199	-0.238834437086093	-0.932238410596026	0.860397350993377	-9.36238410596027	17.725298013245			
84	1880	-0.248158940397351	0.146754966887417	-0.951523178807947	-5.28662251655629	-3.5046357615894	-0.0649006622516557				0.992953642384106	0.0797880794701987	0.269139072847682	-3.20609271523179	9.26781456953642	2.77403973509934				-0.298172185430464	-0.0172715231788079	-0.90394701986755	2.24741721854305	-2.93350993377483	-7.20026490066225				0.240529801324503	-0.224529801324503	-0.965721854304636	1.92291390728477	-23.6164238410596	-10.4156291390728				0.964026490066225	0.0994966887417219	0.117933774834437	-5.0882119205298	5.37192052980133	2.18251655629139				0.287788079470199	-0.222834437086093	-0.932238410596026	-6.13960264900662	-4.60238410596027	21.365298013245			
85	1900	-0.248158940397351	0.162754966887417	-0.935523178807947	-8.36662251655629	-1.8246357615894	1.05509933774834				0.992953642384106	0.0957880794701987	0.269139072847682	-4.32609271523179	17.9478145695364	2.49403973509934				-0.282172185430464	-0.0172715231788079	-0.91994701986755	4.76741721854305	-0.133509933774833	-9.16026490066225				0.272529801324503	-0.288529801324503	-1.06172185430464	-5.91708609271523	-24.4564238410596	-13.2156291390728				0.980026490066225	0.0994966887417219	0.101933774834437	-5.6482119205298	6.21192052980133	2.18251655629139				0.303788079470199	-0.206834437086093	-0.980238410596026	-5.57960264900662	-5.44238410596027	23.045298013245			
86	1920	-0.232158940397351	0.162754966887417	-0.919523178807947	-1.64662251655629	-0.984635761589404	1.33509933774834				1.00895364238411	0.143788079470199	0.285139072847682	-9.92609271523179	18.2278145695364	3.33403973509934				-0.250172185430464	-0.0172715231788079	-0.88794701986755	5.60741721854305	-0.693509933774834	-8.88026490066225				0.272529801324503	-0.272529801324503	-1.02972185430464	-20.1970860927152	-28.6564238410596	-11.2556291390728				1.02802649006623	0.115496688741722	0.0699337748344371	-8.4482119205298	8.45192052980133	1.90251655629139				0.319788079470199	-0.174834437086093	-1.02823841059603	3.38039735099338	-11.3223841059603	25.005298013245			
87	1940	-0.232158940397351	0.178754966887417	-0.951523178807947	-1.92662251655629	-0.144635761589404	2.45509933774835				1.00895364238411	0.0797880794701987	0.269139072847682	-3.20609271523179	15.7078145695364	12.2940397350993				-0.266172185430464	-0.0172715231788079	-0.87194701986755	4.20741721854305	-5.45350993377483	-9.44026490066225				0.176529801324503	-0.224529801324503	-1.04572185430464	-33.6370860927152	-33.9764238410596	-10.6956291390728				1.02802649006623	0.115496688741722	0.0379337748344371	-9.2882119205298	12.3719205298013	-0.337483443708608				0.287788079470199	-0.222834437086093	-1.04423841059603	20.1803973509934	-27.0023841059603	31.445298013245			
88	2060	0	0	0	0	0	0				0	0	0	0	0	0				-0.346172185430464	-0.00127152317880793	-0.88794701986755	7.56741721854305	4.06649006622517	-6.64026490066225				0	0	0	0	0	0				0	0	0	0	0	0				0	0	0	0	0	0			
89	2080	-0.296158940397351	0.0987549668874172	-0.919523178807947	-8.36662251655629	10.2153642384106	4.13509933774834				0.880953642384106	0.0637880794701987	0.253139072847682	-30.9260927152318	46.2278145695364	36.0940397350993				-0.314172185430464	-0.00127152317880793	-0.85594701986755	15.967417218543	6.86649006622517	-7.20026490066225				-0.0794701986754967	-0.224529801324503	-1.09372185430464	-92.9970860927152	-106.21642384106	-42.0556291390728				1.01202649006623	0.0354966887417219	-0.0580662251655629	20.1117880794702	10.6919205298013	2.74251655629139				-0.112211920529801	-0.302834437086093	-0.932238410596026	19.0603973509934	-37.6423841059603	129.725298013245			
90	2100	-0.312158940397351	0.0507549668874172	-0.919523178807947	-11.7266225165563	10.2153642384106	2.73509933774834				0.944953642384106	0.0797880794701987	0.141139072847682	-10.4860927152318	52.6678145695364	39.1740397350993				-0.378172185430464	-0.0492715231788079	-0.85594701986755	18.487417218543	7.14649006622517	-7.76026490066225				-0.175470198675497	-0.0965298013245033	-1.06172185430464	-123.517086092715	-114.89642384106	-61.3756291390729				0.900026490066225	-0.0125033112582781	-0.0580662251655629	24.5917880794702	17.9719205298013	0.502516556291392				-0.112211920529801	-0.190834437086093	-0.932238410596026	31.3803973509934	-40.1623841059603	135.885298013245			
91	2120	-0.344158940397351	0.0347549668874172	-0.935523178807947	-15.3666225165563	10.2153642384106	0.775099337748344				0.896953642384106	0.0317880794701987	0.157139072847682	5.19390728476821	58.5478145695364	41.1340397350993				-0.394172185430464	-0.0652715231788079	-0.87194701986755	20.447417218543	5.74649006622517	-7.20026490066225				-0.287470198675497	-0.0325298013245033	-0.869721854304636	-143.677086092715	-129.73642384106	-72.0156291390729				0.884026490066225	-0.0125033112582781	-0.0740662251655629	22.0717880794702	24.9719205298013	-2.57748344370861				-0.0642119205298013	-0.110834437086093	-0.804238410596027	43.4203973509934	-47.4423841059603	134.765298013245			
92	2140	-0.312158940397351	0.0987549668874172	-0.967523178807947	-34.9666225165563	4.0553642384106	-0.624900662251656				0.848953642384106	0.111788079470199	0.189139072847682	5.47390728476821	76.4678145695364	37.7740397350993				-0.362172185430464	-0.0972715231788079	-0.87194701986755	18.767417218543	3.78649006622517	-6.36026490066225				-0.239470198675497	-0.0485298013245033	-0.757721854304636	-122.117086092715	-123.29642384106	-75.0956291390729				0.916026490066225	-0.0285033112582781	-0.122066225165563	24.5917880794702	28.3319205298013	-7.33748344370861				-0.0962119205298013	-0.126834437086093	-0.772238410596026	66.3803973509934	-53.3223841059603	134.485298013245			
93	2160	-0.312158940397351	0.194754966887417	-0.887523178807947	-46.1666225165563	4.8953642384106	4.69509933774834				0.912953642384106	-0.0322119205298013	0.173139072847682	7.15390728476821	85.9878145695364	47.0140397350993				-0.362172185430464	-0.161271523178808	-0.98394701986755	18.767417218543	11.9064900662252	2.31973509933775				-0.399470198675497	-0.0965298013245033	-0.805721854304636	-103.917086092715	-109.01642384106	-80.6956291390729				0.980026490066225	-0.108503311258278	0.00593377483443711	8.0717880794702	25.8119205298013	-14.3374834437086				-0.192211920529801	-0.206834437086093	-0.708238410596026	59.1003973509934	-33.7223841059603	131.405298013245			
94	2180	-0.360158940397351	0.210754966887417	-0.935523178807947	-37.7666225165563	13.8553642384106	11.4150993377483				1.00895364238411	-0.144211920529801	0.269139072847682	-16.0860927152318	89.9078145695364	50.9340397350993				-0.362172185430464	-0.193271523178808	-1.04794701986755	21.287417218543	14.7064900662252	13.7997350993378				-0.495470198675497	0.0154701986754967	-0.677721854304636	-100.557086092715	-84.0964238410596	-78.7356291390729				0.900026490066225	-0.0445033112582781	0.0539337748344371	4.7117880794702	22.4519205298013	-20.4974834437086				-0.160211920529801	-0.190834437086093	-0.804238410596027	51.5403973509934	-11.6023841059603	117.965298013245			
95	2200	-0.312158940397351	0.178754966887417	-0.967523178807947	-32.1666225165563	18.8953642384106	13.6550993377483				0.864953642384106	0.0157880794701987	0.493139072847682	-39.3260927152318	92.4278145695364	29.6540397350993				-0.250172185430464	-0.0172715231788079	-0.90394701986755	38.927417218543	31.7864900662252	14.3597350993378				-0.511470198675497	0.111470198675497	-0.613721854304636	-67.2370860927152	-66.4564238410596	-71.7356291390729				0.804026490066225	-0.0125033112582781	0.101933774834437	3.5917880794702	24.4119205298013	-19.9374834437086				-0.160211920529801	-0.174834437086093	-0.772238410596026	40.6203973509934	-8.80238410596027	105.925298013245			
96	2220	-0.312158940397351	0.210754966887417	-1.04752317880795	-26.2866225165563	23.0953642384106	15.0550993377483				0.896953642384106	0.111788079470199	0.429139072847682	0.993907284768212	82.3478145695364	31.8940397350993				-0.394172185430464	-0.0652715231788079	-0.91994701986755	16.807417218543	17.2264900662252	16.3197350993378				-0.367470198675497	0.207470198675497	-0.501721854304636	-23.8370860927152	-33.9764238410596	-63.3356291390729				0.852026490066225	0.147496688741722	0.101933774834437	-3.6882119205298	33.6519205298013	-17.4174834437086				-0.160211920529801	-0.238834437086093	-0.756238410596026	24.3803973509934	3.51761589403974	97.525298013245			
97	2240	-0.248158940397351	0.258754966887417	-0.967523178807947	-29.3666225165563	33.1753642384106	21.4950993377483				1.08895364238411	-0.176211920529801	0.589139072847682	35.1539072847682	80.1078145695364	41.1340397350993				-0.458172185430464	-0.00127152317880793	-1.07994701986755	52.927417218543	28.4264900662252	19.9597350993378				-0.175470198675497	0.367470198675497	-0.661721854304636	21.8029139072848	-12.6964238410596	-38.1356291390729				1.01202649006623	0.195496688741722	0.261933774834437	12.8317880794702	54.3719205298013	-18.8174834437086				-0.112211920529801	-0.350834437086093	-0.820238410596026	8.98039735099338	16.1176158940397	84.365298013245			
98	2260	-0.328158940397351	0.210754966887417	-1.03152317880795	-33.5666225165563	39.3353642384106	29.6150993377483				0.944953642384106	-0.128211920529801	0.813139072847682	-15.2460927152318	95.2278145695364	33.8540397350993				-0.298172185430464	-0.0812715231788079	-0.80794701986755	38.3674172185431	39.9064900662252	16.3197350993378				-0.0154701986754967	0.415470198675497	-1.18972185430464	69.9629139072848	7.1835761589404	-26.0956291390729				1.07602649006623	0.307496688741722	0.437933774834437	5.5517880794702	30.0119205298013	-10.4174834437086				0.0637880794701987	-0.398834437086093	-0.852238410596026	4.22039735099338	26.7576158940397	67.285298013245			
99	2280	-0.328158940397351	0.114754966887417	-1.03152317880795	-20.9666225165563	45.4953642384106	34.0950993377484				0.752953642384106	-0.160211920529801	0.733139072847682	-30.3660927152318	99.7078145695364	27.1340397350993				-0.378172185430464	-0.00127152317880793	-0.98394701986755	55.4474172185431	44.6664900662252	9.87973509933775				-0.0474701986754967	0.159470198675497	-1.33372185430464	72.2029139072848	21.7435761589404	-32.5356291390729				0.964026490066225	0.243496688741722	0.453933774834437	29.6317880794702	26.9319205298013	-3.41748344370861				0.111788079470199	-0.462834437086093	-0.948238410596026	2.82039735099338	20.5976158940397	51.045298013245			
100	2300	-0.232158940397351	0.242754966887417	-1.04752317880795	-36.0866225165563	53.3353642384106	38.8550993377483				0.944953642384106	-0.0642119205298013	1.13313907284768	-29.8060927152318	97.1878145695364	17.8940397350993				-0.346172185430464	-0.0652715231788079	-0.98394701986755	50.1274172185431	53.0664900662252	8.75973509933775				0.0965298013245033	-0.0165298013245033	-1.22172185430464	26.5629139072848	30.4235761589404	-42.8956291390729				0.980026490066225	0.179496688741722	0.645933774834437	35.5117880794702	47.9319205298013	-8.73748344370861				0.0957880794701987	-0.510834437086093	-0.980238410596026	14.3003973509934	-0.682384105960265	24.725298013245			
101	2320	-0.216158940397351	0.418754966887417	-0.999523178807947	-45.3266225165563	61.1753642384106	45.0150993377484				1.04095364238411	-0.144211920529801	1.11713907284768	-9.64609271523179	67.5078145695364	16.7740397350993				-0.330172185430464	-0.0812715231788079	-0.98394701986755	61.3274172185431	58.1064900662252	4.55973509933775				0.000529801324503301	0.303470198675497	-1.14172185430464	-39.7970860927152	13.3435761589404	-38.4156291390728				1.14002649006623	0.131496688741722	0.677933774834437	33.5517880794702	52.1319205298013	-16.2974834437086				0.0957880794701987	-0.766834437086093	-0.948238410596026	32.7803973509934	-9.36238410596027	8.48529801324503			
102	2340	-0.216158940397351	0.530754966887417	-0.983523178807947	-31.6066225165563	72.3753642384106	46.1350993377484				0.960953642384106	-0.320211920529801	0.925139072847682	21.4339072847682	58.2678145695364	15.6540397350993				-0.378172185430464	-0.225271523178808	-1.04794701986755	38.647417218543	59.5064900662252	0.63973509933775				-0.0314701986754967	0.527470198675497	-1.17372185430464	-32.7970860927152	13.0635761589404	-24.9756291390729				1.15602649006623	0.195496688741722	0.949933774834437	19.5517880794702	45.1319205298013	-19.0974834437086				0.159788079470199	-1.07083443708609	-0.868238410596026	-1.93960264900662	13.5976158940397	1.20529801324503			
103	2360	-0.232158940397351	0.482754966887417	-0.967523178807947	-14.2466225165563	72.0953642384106	43.6150993377484				0.880953642384106	-0.272211920529801	1.10113907284768	52.2339072847682	59.6678145695364	9.21403973509934				-0.250172185430464	-0.481271523178808	-1.03194701986755	12.607417218543	64.8264900662252	-2.16026490066225				0.0325298013245033	0.335470198675497	-1.33372185430464	3.60291390728477	30.7035761589404	-15.7356291390728				1.10802649006623	0.195496688741722	0.949933774834437	2.4717880794702	33.3719205298013	-15.4574834437086				0.239788079470199	-1.02283443708609	-0.836238410596026	-21.2596026490066	29.5576158940397	-7.47470198675497			
104	2380	-0.184158940397351	0.466754966887417	-0.983523178807947	-1.36662251655629	79.6553642384106	35.4950993377484				1.02495364238411	-0.432211920529801	1.19713907284768	2.39390728476821	54.6278145695364	3.61403973509934				-0.154172185430464	-0.193271523178808	-1.01594701986755	-5.31258278145695	76.3064900662252	-7.20026490066225				0.000529801324503301	0.319470198675497	-1.41372185430464	2.76291390728477	36.3035761589404	-0.895629139072848				1.15602649006623	0.259496688741722	0.789933774834437	-5.9282119205298	33.3719205298013	-17.9774834437086				0.351788079470199	-0.878834437086093	-1.01223841059603	-25.1796026490066	13.5976158940397	-8.59470198675497			
105	2400	-0.088158940397351	0.402754966887417	-1.01552317880795	-0.246622516556291	91.1353642384106	30.7350993377483				1.02495364238411	-0.400211920529801	1.18113907284768	-18.3260927152318	30.5478145695364	-0.585960264900661				-0.138172185430464	-0.337271523178808	-1.01594701986755	-0.832582781456954	83.5864900662252	-6.92026490066225				0.0485298013245033	0.383470198675497	-1.44572185430464	-5.63708609271523	20.9035761589404	9.46437086092715				1.26802649006623	0.195496688741722	0.869933774834437	3.8717880794702	28.6119205298013	-18.2574834437086				-0.0482119205298013	-1.00683443708609	-0.804238410596027	50.1403973509934	5.75761589403974	-8.03470198675497			
106	2420	0.087841059602649	0.386754966887417	-1.09552317880795	9.27337748344371	103.175364238411	25.1350993377483				0.944953642384106	-0.128211920529801	1.11713907284768	3.23390728476821	7.58781456953643	-19.3459602649007				-0.122172185430464	-0.433271523178808	-0.98394701986755	-4.19258278145695	97.0264900662252	-3.56026490066225				0.128529801324503	0.367470198675497	-1.30172185430464	-18.5170860927152	8.8635761589404	11.1443708609272				1.28402649006623	0.147496688741722	0.853933774834437	3.0317880794702	27.7719205298013	-15.4574834437086				0.255788079470199	-1.05483443708609	-1.12423841059603	29.9803973509934	39.6376158940397	-31.554701986755			
107	2440	0.247841059602649	0.386754966887417	-1.04752317880795	18.5133774834437	115.495364238411	24.2950993377483				0.896953642384106	-0.0322119205298013	1.16513907284768	3.79390728476821	-2.49218543046358	-21.3059602649007				-0.0101721854304636	-0.401271523178808	-1.04794701986755	-11.192582781457	104.866490066225	-4.12026490066225				0.000529801324503301	0.463470198675497	-1.25372185430464	-38.1170860927152	12.5035761589404	19.5443708609272				1.18802649006623	0.435496688741722	0.789933774834437	-16.0082119205298	13.4919205298013	-12.0974834437086				0.207788079470199	-1.02283443708609	-1.12423841059603	23.2603973509934	60.6376158940397	-27.914701986755			
108	2460	0.343841059602649	0.338754966887417	-1.07952317880795	33.0733774834437	117.735364238411	24.8550993377483				0.896953642384106	-0.272211920529801	1.32513907284768	19.1939072847682	13.7478145695364	1.37403973509934				0.0698278145695364	-0.225271523178808	-1.06394701986755	-13.712582781457	118.586490066225	-7.20026490066225				-0.127470198675497	0.543470198675497	-1.31772185430464	-33.6370860927152	32.6635761589404	36.0643708609272				1.15602649006623	0.531496688741722	0.773933774834437	7.7917880794702	18.5319205298013	-4.81748344370861				0.303788079470199	-0.878834437086093	-1.02823841059603	15.7003973509934	84.7176158940397	-29.314701986755			
109	2480	0.391841059602649	0.242754966887417	-1.01552317880795	45.3933774834437	121.935364238411	24.0150993377483				1.00895364238411	-0.336211920529801	1.34113907284768	23.9539072847682	19.3478145695364	11.1740397350993				0.165827814569536	-0.177271523178808	-1.12794701986755	-5.59258278145695	127.546490066225	-14.4802649006623				-0.0154701986754967	0.607470198675497	-1.30172185430464	-2.83708609271523	45.8235761589404	44.1843708609272				1.15602649006623	0.435496688741722	0.853933774834437	11.7117880794702	27.2119205298013	-5.09748344370861				0.431788079470199	-0.942834437086093	-1.02823841059603	64.4203973509934	67.0776158940397	-26.234701986755			
110	2500	0.423841059602649	0.114754966887417	-1.01552317880795	38.6733774834437	133.695364238411	21.4950993377483				1.13695364238411	-0.208211920529801	1.21313907284768	-16.9260927152318	-6.41218543046358	7.25403973509934				0.293827814569536	-0.193271523178808	-1.09594701986755	3.64741721854305	133.986490066225	-25.6802649006623				0.160529801324503	0.559470198675497	-1.25372185430464	17.0429139072848	64.8635761589404	52.8643708609272				1.28402649006623	0.339496688741722	1.01393377483444	-0.888211920529802	24.9719205298013	-3.41748344370861				0.463788079470199	-1.05483443708609	-0.964238410596026	66.1003973509934	69.3176158940397	-32.674701986755			
111	2520	0.455841059602649	0.130754966887417	-0.951523178807947	28.3133774834437	150.215364238411	18.1350993377483				1.05695364238411	-0.0162119205298013	1.30913907284768	-25.3260927152318	-25.7321854304636	-1.70596026490066				0.293827814569536	-0.225271523178808	-1.03194701986755	-3.91258278145695	141.266490066225	-35.4802649006623				0.176529801324503	0.495470198675497	-1.28572185430464	3.32291390728477	81.1035761589404	62.9443708609272				1.33202649006623	0.339496688741722	0.949933774834437	-15.7282119205298	10.6919205298013	-1.17748344370861				0.383788079470199	-1.05483443708609	-0.964238410596026	54.0603973509934	98.1576158940398	-50.594701986755			
112	2540	0.487841059602649	0.162754966887417	-0.919523178807947	31.1133774834437	161.135364238411	18.1350993377483				1.00895364238411	-0.240211920529801	1.06913907284768	49.7139072847682	-47.5721854304636	5.01403973509934				0.293827814569536	-0.129271523178808	-1.03194701986755	-7.27258278145696	151.066490066225	-45.2802649006623				0.0645298013245033	0.479470198675497	-1.33372185430464	-3.39708609271523	93.1435761589404	73.8643708609272				1.20402649006623	0.387496688741722	0.869933774834437	-13.2082119205298	13.4919205298013	1.34251655629139				0.543788079470199	-1.08683443708609	-0.932238410596026	42.5803973509934	116.07761589404	-65.434701986755			
113	2560	0.551841059602649	0.258754966887417	-0.855523178807947	29.9933774834437	171.775364238411	18.9750993377483				1.10495364238411	-0.448211920529801	0.941139072847682	28.1539072847682	-75.5721854304636	0.81403973509934				0.357827814569536	-0.0812715231788079	-0.95194701986755	-5.31258278145695	157.506490066225	-49.4802649006623				0.224529801324503	0.495470198675497	-1.30172185430464	13.6829139072848	100.98357615894	76.3843708609272				1.18802649006623	0.323496688741722	0.821933774834437	-1.7282119205298	22.4519205298013	7.50251655629139				0.671788079470199	-1.07083443708609	-0.836238410596026	41.4603973509934	98.4376158940397	-76.074701986755			
114	2580	0.599841059602649	0.194754966887417	-0.807523178807947	29.9933774834437	177.375364238411	18.9750993377483				1.07295364238411	-0.272211920529801	0.973139072847682	7.15390728476821	-85.9321854304636	-9.82596026490066				0.453827814569536	-0.145271523178808	-0.82394701986755	-12.032582781457	169.826490066225	-52.5602649006623				0.416529801324503	0.367470198675497	-1.20572185430464	28.8029139072848	100.98357615894	82.8243708609272				1.15602649006623	0.275496688741722	0.837933774834437	-2.2882119205298	10.6919205298013	13.3825165562914				0.623788079470199	-0.942834437086093	-0.900238410596026	27.4603973509934	101.51761589404	-85.314701986755			
115	2600	0.567841059602649	0.0667549668874172	-0.759523178807947	29.1533774834437	181.575364238411	13.3750993377483				1.04095364238411	0.0477880794701987	0.829139072847682	-5.44609271523179	-95.4521854304636	-18.5059602649007				0.485827814569536	-0.0972715231788079	-0.72794701986755	-20.992582781457	174.866490066225	-55.0802649006623				0.592529801324503	0.303470198675497	-1.14172185430464	18.7229139072848	101.82357615894	92.3443708609272				1.06002649006623	0.307496688741722	0.789933774834437	-4.2482119205298	-17.0280794701987	20.6625165562914				0.495788079470199	-0.910834437086093	-0.756238410596026	60.5003973509934	122.23761589404	-84.194701986755			
116	2620	0.583841059602649	0.0827549668874172	-0.599523178807947	22.4333774834437	187.175364238411	6.09509933774834				1.07295364238411	0.0957880794701987	0.733139072847682	10.7939072847682	-105.532185430464	-9.26596026490066				0.549827814569536	-0.0812715231788079	-0.53594701986755	-22.392582781457	181.026490066225	-50.0402649006623				0.592529801324503	0.303470198675497	-1.04572185430464	3.60291390728477	100.70357615894	97.3843708609272				0.996026490066225	0.323496688741722	0.565933774834437	-12.3682119205298	-4.70807947019868	17.3025165562914				0.479788079470199	-1.00683443708609	-0.756238410596026	40.9003973509934	104.03761589404	-68.234701986755			
117	2640	0.567841059602649	0.130754966887417	-0.535523178807947	17.6733774834437	190.255364238411	1.05509933774834				1.10495364238411	-0.112211920529801	0.541139072847682	27.5939072847682	-112.252185430464	-0.0259602649006601				0.597827814569536	0.0307284768211921	-0.47194701986755	-21.832582781457	185.506490066225	-40.5202649006623				0.416529801324503	0.255470198675497	-0.965721854304636	22.0829139072848	91.1835761589404	101.024370860927				0.948026490066225	0.259496688741722	0.469933774834437	-6.7682119205298	-12.8280794701987	22.6225165562914				0.735788079470199	-1.02283443708609	-0.772238410596026	-4.73960264900662	84.9976158940397	-33.234701986755			
118	2660	0.519841059602649	0.146754966887417	-0.391523178807947	21.8733774834437	202.575364238411	-1.74490066225166				0.864953642384106	-0.0162119205298013	0.349139072847682	61.1939072847682	-138.572185430464	-8.14596026490066				0.677827814569536	0.142728476821192	-0.40794701986755	-5.31258278145695	193.066490066225	-32.4002649006623				0.480529801324503	0.143470198675497	-0.837721854304636	43.0829139072848	83.0635761589404	87.0243708609272				0.836026490066225	0.0994966887417219	0.421933774834437	-5.3682119205298	-18.1480794701987	29.0625165562914				0.687788079470199	-0.798834437086093	-0.644238410596026	-13.4196026490066	37.3976158940397	0.645298013245032			
119	2680	0.519841059602649	0.146754966887417	-0.311523178807947	31.1133774834437	210.695364238411	-3.98490066225166				0.544953642384106	0.0157880794701987	0.237139072847682	88.3539072847682	-161.532185430464	-4.22596026490066				0.565827814569536	0.0947284768211921	-0.32794701986755	13.167417218543	187.746490066225	-32.6802649006623				0.528529801324503	0.0154701986754967	-0.533721854304636	23.4829139072848	82.5035761589404	81.4243708609272				0.692026490066225	0.0354966887417219	0.405933774834437	-14.6082119205298	-35.2280794701987	34.1025165562914				0.431788079470199	-0.574834437086093	-0.452238410596026	-20.9796026490066	13.0376158940397	0.365298013245032			
120	2700	0.519841059602649	0.114754966887417	-0.295523178807947	34.1933774834437	213.215364238411	-8.18490066225166				0.384953642384106	-0.0642119205298013	-0.0508609271523178	80.5139072847682	-168.252185430464	1.37403973509934				0.325827814569536	0.0147284768211921	-0.37594701986755	20.447417218543	186.066490066225	-36.8802649006623				0.288529801324503	0.0314701986754967	-0.293721854304636	15.9229139072848	59.5435761589404	82.2643708609272				0.516026490066225	0.0514966887417219	0.293933774834437	-42.6082119205298	-60.9880794701987	33.8225165562914				0.303788079470199	-0.398834437086093	-0.260238410596026	-40.5796026490066	6.31761589403974	-15.594701986755			
121	2720	0.551841059602649	0.0987549668874172	-0.391523178807947	22.4333774834437	210.975364238411	-10.9849006622517				0.256953642384106	-0.224211920529801	-0.0508609271523178	21.7139072847682	-135.492185430464	10.0540397350993				0.325827814569536	0.0467284768211921	-0.39194701986755	12.887417218543	188.026490066225	-33.2402649006623				0.0965298013245033	0.0794701986754967	-0.245721854304636	18.7229139072848	36.0235761589404	91.7843708609272				0.340026490066225	0.0194966887417219	0.133933774834437	-40.3682119205298	-82.5480794701987	37.1825165562914				0.207788079470199	-0.238834437086093	-0.132238410596026	-49.5396026490066	-13.8423841059603	-18.394701986755			
122	2740	0.599841059602649	0.0827549668874172	-0.487523178807947	-3.32662251655629	203.135364238411	-1.74490066225166				0.112953642384106	-0.0802119205298013	0.0451390728476822	-28.6860927152318	-129.332185430464	-10.1059602649007				0.485827814569536	0.0947284768211921	-0.42394701986755	15.687417218543	194.466490066225	-25.1202649006623				-0.0154701986754967	0.0954701986754967	-0.309721854304636	49.2429139072848	18.3835761589404	98.5043708609272				0.228026490066225	-0.0925033112582781	0.117933774834437	-38.6882119205298	-95.4280794701987	43.0625165562914				0.111788079470199	-0.158834437086093	-0.116238410596026	-69.9796026490066	-16.3623841059603	-19.234701986755			
123	2760	0.583841059602649	0.114754966887417	-0.471523178807947	-17.3266225165563	205.375364238411	11.1350993377483				0.224953642384106	0.0477880794701987	0.125139072847682	-18.8860927152318	-116.452185430464	-28.5859602649007				0.613827814569536	0.0947284768211921	-0.43994701986755	5.32741721854305	179.626490066225	-35.7602649006623				-0.0154701986754967	0.0794701986754967	-0.309721854304636	100.762913907285	-2.3364238410596	84.5043708609272				0.148026490066225	-0.0925033112582781	0.165933774834437	-48.2082119205298	-99.6280794701987	39.9825165562914				-0.000211920529801336	-0.0788344370860927	-0.0842384105960265	-72.4996026490066	-24.7623841059603	-27.634701986755			
124	2780	0.631841059602649	0.0987549668874172	-0.455523178807947	-6.96662251655629	193.895364238411	27.0950993377483				0.256953642384106	0.0157880794701987	0.269139072847682	0.993907284768212	-116.452185430464	-25.2259602649007				0.613827814569536	0.126728476821192	-0.47194701986755	5.60741721854305	162.826490066225	-43.8802649006623				-0.0154701986754967	-0.112529801324503	-0.229721854304636	87.3229139072848	-14.0964238410596	59.0243708609272				0.100026490066225	0.00349668874172187	0.101933774834437	-49.3282119205298	-104.668079470199	32.9825165562914				-0.128211920529801	0.0331655629139073	-0.0842384105960265	-80.3396026490066	-35.4023841059603	-27.074701986755			
125	2800	0.679841059602649	0.0667549668874172	-0.327523178807947	29.4333774834437	183.535364238411	38.8550993377483				0.160953642384106	-0.0322119205298013	0.173139072847682	-9.64609271523179	-107.772185430464	-19.3459602649007				0.565827814569536	0.126728476821192	-0.43994701986755	14.847417218543	151.066490066225	-52.0002649006623				0.0165298013245033	-0.224529801324503	-0.277721854304636	58.7629139072848	-18.8564238410596	55.6643708609272				0.132026490066225	0.0354966887417219	0.0379337748344371	-55.7682119205298	-92.0680794701987	23.4625165562914				-0.240211920529801	0.0971655629139073	-0.180238410596026	-82.8596026490066	-29.5223841059603	-22.594701986755			
126	2820	0.711841059602649	0.0347549668874172	-0.295523178807947	40.9133774834437	162.255364238411	47.8150993377484				0.336953642384106	0.111788079470199	0.0771390728476822	-30.0860927152318	-102.172185430464	-30.8259602649007				0.613827814569536	0.0627284768211921	-0.37594701986755	20.447417218543	123.066490066225	-58.7202649006623				0.112529801324503	-0.128529801324503	-0.357721854304636	41.1229139072848	-15.4964238410596	62.1043708609272				0.228026490066225	0.0354966887417219	-0.0420662251655629	-53.2482119205298	-85.3480794701987	14.7825165562914				-0.160211920529801	0.0811655629139073	-0.276238410596026	-75.5796026490066	-33.4423841059603	-16.994701986755			
127	2840	0.727841059602649	0.00275496688741723	-0.231523178807947	36.9933774834437	149.095364238411	47.5350993377483				0.288953642384106	0.191788079470199	-0.00286092715231785	-14.1260927152318	-71.0921854304636	-24.9459602649007				0.741827814569536	-0.0492715231788079	-0.35994701986755	26.0474172185431	96.4664900662252	-50.8802649006623				0.0965298013245033	-0.0485298013245033	-0.437721854304636	16.7629139072848	-23.6164238410596	56.5043708609272				0.292026490066225	0.0834966887417219	-0.0740662251655629	-31.4082119205298	-82.8280794701987	10.5825165562914				-0.0322119205298013	0.00116556291390731	-0.308238410596026	-76.1396026490066	-28.6823841059603	-11.114701986755			
128	2860	0.855841059602649	0.0667549668874172	-0.183523178807947	33.9133774834437	138.455364238411	34.9350993377483				0.464953642384106	0.191788079470199	0.157139072847682	-8.52609271523179	-56.5321854304636	-21.0259602649007				0.773827814569536	-0.209271523178808	-0.35994701986755	40.607417218543	58.1064900662252	-29.3202649006623				0.000529801324503301	0.0474701986754967	-0.501721854304636	35.5229139072848	-34.8164238410596	47.2643708609272				0.420026490066225	0.0994966887417219	-0.0100662251655629	-18.5282119205298	-78.6280794701987	6.66251655629139				0.0157880794701987	-0.0628344370860927	-0.356238410596026	-71.9396026490066	-22.2423841059603	-13.354701986755			
129	2880	1.06384105960265	0.194754966887417	-0.00752317880794696	-5.28662251655629	109.055364238411	20.6550993377483				0.592953642384106	0.143788079470199	0.237139072847682	2.39390728476821	-43.9321854304636	-21.0259602649007				0.869827814569536	-0.257271523178808	-0.15194701986755	12.327417218543	60.9064900662252	-11.4002649006623				0.000529801324503301	-0.0325298013245033	-0.597721854304636	66.0429139072848	-27.2564238410596	40.8243708609272				0.532026490066225	0.0674966887417219	0.0699337748344371	-6.2082119205298	-76.6680794701987	4.14251655629139				0.0477880794701987	-0.0468344370860927	-0.420238410596026	-74.1796026490066	-15.5223841059603	-22.034701986755			
130	2900	1.12784105960265	0.354754966887417	-0.00752317880794696	-34.6866225165563	75.7353642384106	6.65509933774834				0.656953642384106	-0.0162119205298013	0.253139072847682	8.27390728476821	-39.4521854304636	-23.5459602649007				0.949827814569536	-0.209271523178808	-0.13594701986755	-24.632582781457	38.5064900662252	-4.96026490066225				0.0325298013245033	-0.192529801324503	-0.725721854304636	57.6429139072848	-7.9364238410596	39.1443708609272				0.660026490066225	0.0354966887417219	0.0379337748344371	-9.0082119205298	-63.2280794701987	-1.45748344370861				0.0637880794701987	-0.0148344370860927	-0.532238410596027	-79.7796026490066	-2.08238410596027	-32.394701986755			
131	2920	1.11184105960265	0.418754966887417	0.056476821192053	-18.7266225165563	45.4953642384106	-0.624900662251656				0.816953642384106	-0.0162119205298013	0.317139072847682	7.15390728476821	-18.4521854304636	-20.7459602649007				1.04582781456954	-0.0332715231788079	-0.18394701986755	-20.992582781457	20.3064900662252	-13.3602649006623				0.0485298013245033	-0.160529801324503	-0.885721854304636	61.8429139072848	12.5035761589404	37.7443708609272				0.756026490066225	-0.0125033112582781	0.0699337748344371	-13.7682119205298	-58.7480794701987	-6.21748344370861				0.127788079470199	0.00116556291390731	-0.692238410596026	-72.2196026490066	8.83761589403974	-38.554701986755			
132	2940	0.999841059602649	0.290754966887417	0.072476821192053	2.55337748344371	33.4553642384106	-0.344900662251656				1.00895364238411	0.0157880794701987	0.301139072847682	3.23390728476821	-10.8921854304636	-17.1059602649007				1.10982781456954	0.0947284768211921	-0.13594701986755	3.92741721854305	18.6264900662252	-21.2002649006623				0	0	0	0	0	0				0	0	0	0	0	0				0	0	0	0	0	0			
133	3060	0	0	0	0	0	0				1.02495364238411	0.0797880794701987	0.157139072847682	-1.52609271523179	-12.5721854304636	-8.42596026490066				1.06182781456954	-0.0332715231788079	0.0240529801324504	-13.152582781457	28.9864900662252	7.63973509933775				0	0	0	0	0	0				0.948026490066225	0.0834966887417219	0.0219337748344371	-28.3282119205298	-12.5480794701987	-17.4174834437086				0.559788079470199	-0.366834437086093	-0.836238410596026	-31.8996026490066	-18.8823841059603	14.645298013245			
134	3080	1.01584105960265	0.0347549668874172	0.184476821192053	-5.00662251655629	25.8953642384106	1.89509933774834				0.864953642384106	-0.0962119205298013	0.157139072847682	-11.6060927152318	-12.2921854304636	4.73403973509934				1.01382781456954	-0.00127152317880793	-0.00794701986754963	-12.312582781457	23.6664900662252	7.07973509933775				0.240529801324503	-0.0645298013245033	-0.805721854304636	-30.2770860927152	8.5835761589404	-3.41562913907285				0.932026490066225	0.0994966887417219	0.0219337748344371	-23.2882119205298	-3.30807947019868	-14.6174834437086				0.511788079470199	-0.286834437086093	-0.772238410596026	-25.4596026490066	-44.9223841059603	34.805298013245			
135	3100	1.01584105960265	0.0347549668874172	0.168476821192053	-19.2866225165563	22.5353642384106	-0.344900662251656				1.00895364238411	-0.0802119205298013	0.253139072847682	-20.0060927152318	21.8678145695364	-2.26596026490066				0.965827814569536	-0.0332715231788079	-0.0719470198675496	-17.072582781457	16.1064900662252	5.95973509933775				0.272529801324503	0.0154701986754967	-0.805721854304636	-0.597086092715232	14.4635761589404	1.06437086092715				0.932026490066225	0.0994966887417219	0.0539337748344371	-34.7682119205298	0.611920529801325	-9.57748344370861				0.447788079470199	-0.254834437086093	-0.692238410596026	-46.1796026490066	-28.4023841059603	41.245298013245			
136	3120	1.03184105960265	0.00275496688741723	0.200476821192053	-19.8466225165563	16.0953642384106	1.61509933774834				0.976953642384106	0.0317880794701987	0.205139072847682	-18.0460927152318	-20.1321854304636	-6.74596026490066				0.981827814569536	-0.0172715231788079	0.00805298013245037	-13.992582781457	14.7064900662252	4.55973509933775				0.320529801324503	-0.0805298013245033	-0.773721854304636	20.1229139072848	25.6635761589404	3.02437086092715				0.916026490066225	0.0514966887417219	0.0859337748344371	-27.2082119205298	-5.54807947019868	-6.49748344370861				0.431788079470199	-0.0948344370860927	-0.708238410596026	-56.2596026490066	-4.32238410596027	31.725298013245			
137	3140	0.983841059602649	0.0187549668874172	0.200476821192053	-19.8466225165563	11.0553642384106	-0.0649006622516557				0.928953642384106	0.0477880794701987	0.141139072847682	-19.7260927152318	5.90781456953642	-3.94596026490066				0.949827814569536	0.0147284768211921	0.0400529801324504	-10.632582781457	12.7464900662252	4.83973509933775				0.384529801324503	-0.240529801324503	-0.853721854304636	-6.75708609271523	9.9835761589404	1.06437086092715				0.884026490066225	0.0674966887417219	0.0539337748344371	-25.5282119205298	-6.94807947019868	-4.81748344370861				0.415788079470199	0.00116556291390731	-0.708238410596026	-22.0996026490066	9.67761589403974	17.725298013245			
138	3160	0.935841059602649	0.00275496688741723	0.200476821192053	-12.2866225165563	6.8553642384106	-1.46490066225166				0.928953642384106	0.0477880794701987	0.237139072847682	-22.2460927152318	21.0278145695364	-1.14596026490066				0.965827814569536	0.0307284768211921	-0.0239470198675496	-14.552582781457	10.2264900662252	5.67973509933775				0.336529801324503	-0.240529801324503	-0.933721854304636	-12.3570860927152	9.1435761589404	5.82437086092715				0.884026490066225	0.0834966887417219	0.0539337748344371	-22.4482119205298	0.0519205298013249	-4.53748344370861				0.431788079470199	-0.0628344370860927	-0.724238410596026	11.7803973509934	19.7576158940397	2.32529801324503			
139	3180	0.887841059602649	-0.0292450331125828	0.248476821192053	-6.96662251655629	16.9353642384106	-0.0649006622516557				0.960953642384106	0.0477880794701987	0.237139072847682	-26.4460927152318	10.3878145695364	-3.38596026490066				0.981827814569536	0.0147284768211921	-0.0399470198675496	-14.272582781457	11.3464900662252	5.67973509933775				0.384529801324503	-0.208529801324503	-0.901721854304636	-6.47708609271523	18.6635761589404	4.98437086092715				0.932026490066225	0.0834966887417219	0.101933774834437	-22.7282119205298	7.61192052980133	-7.61748344370861				0.479788079470199	-0.190834437086093	-0.836238410596026	15.9803973509934	23.3976158940397	-4.39470198675497			
140	3200	0.919841059602649	-0.0292450331125828	0.280476821192053	-10.6066225165563	14.6953642384106	0.215099337748344				0.976953642384106	0.0957880794701987	0.173139072847682	-23.3660927152318	1.42781456953642	-6.18596026490066				1.02982781456954	0.0307284768211921	-0.0719470198675496	-15.672582781457	8.26649006622517	3.99973509933775				0.544529801324503	-0.224529801324503	-0.869721854304636	-1.99708609271523	17.8235761589404	5.26437086092715				0.964026490066225	0.115496688741722	0.0859337748344371	-17.9682119205298	7.05192052980133	-7.33748344370861				0.495788079470199	-0.270834437086093	-0.820238410596026	20.1803973509934	19.1976158940397	-3.55470198675497			
141	3220	0.935841059602649	0.00275496688741723	0.312476821192053	-18.4466225165563	9.0953642384106	-1.74490066225166				0.992953642384106	0.127788079470199	0.173139072847682	-17.2060927152318	0.307814569536424	-3.94596026490066				1.02982781456954	0.0307284768211921	-0.0719470198675496	-17.072582781457	6.30649006622517	3.15973509933775				0.608529801324503	-0.208529801324503	-0.885721854304636	-5.35708609271523	6.6235761589404	6.66437086092715				0.964026490066225	0.131496688741722	0.101933774834437	-16.8482119205298	6.21192052980133	-6.49748344370861				0.447788079470199	-0.302834437086093	-0.804238410596027	8.42039735099338	20.3176158940397	1.76529801324503			
142	3240	0.935841059602649	0.0187549668874172	0.264476821192053	-14.5266225165563	6.8553642384106	-0.0649006622516557				0.960953642384106	0.127788079470199	0.173139072847682	-9.36609271523179	-1.37218543046358	-0.585960264900661				0.997827814569536	0.0147284768211921	-0.0399470198675496	-8.39258278145695	7.70649006622517	2.59973509933775				0.480529801324503	-0.208529801324503	-0.901721854304636	-15.1570860927152	-0.3764238410596	7.22437086092715				0.948026490066225	0.131496688741722	0.149933774834437	-4.2482119205298	4.81192052980133	-5.65748344370861				0.463788079470199	-0.286834437086093	-0.820238410596026	-2.77960264900662	15.5576158940397	12.125298013245			
143	3260	0.983841059602649	0.0507549668874172	0.264476821192053	-9.20662251655629	6.5753642384106	-0.344900662251656				0.960953642384106	0.111788079470199	0.141139072847682	-8.24609271523179	1.70781456953642	4.17403973509934				0.997827814569536	0.0467284768211921	-0.0559470198675496	-3.35258278145695	6.30649006622517	1.75973509933775				0.400529801324503	-0.224529801324503	-0.805721854304636	-24.3970860927152	1.5835761589404	4.42437086092715				0.964026490066225	0.115496688741722	0.0859337748344371	-3.9682119205298	10.9719205298013	-7.61748344370861				0.495788079470199	-0.270834437086093	-0.836238410596026	-10.0596026490066	6.59761589403974	21.925298013245			
144	3280	0.999841059602649	0.0507549668874172	0.296476821192053	-1.92662251655629	4.6153642384106	-0.344900662251656				0.944953642384106	0.0797880794701987	0.157139072847682	-4.88609271523179	5.62781456953642	3.61403973509934				0.949827814569536	0.0627284768211921	-0.0559470198675496	5.60741721854305	5.46649006622517	1.19973509933775				0.464529801324503	-0.176529801324503	-0.773721854304636	-22.4370860927152	3.5435761589404	6.10437086092715				0.996026490066225	0.0834966887417219	0.117933774834437	-6.2082119205298	14.6119205298013	-6.49748344370861				0.511788079470199	-0.238834437086093	-0.836238410596026	-17.0596026490066	3.79761589403974	23.325298013245			
145	3300	0.983841059602649	-0.0132450331125828	0.104476821192053	-3.88662251655629	0.135364238410596	-4.54490066225166				0.976953642384106	-0.000211920529801304	0.205139072847682	-0.686092715231788	0.0278145695364242	0.81403973509934				0.981827814569536	-0.0492715231788079	-0.0399470198675496	3.92741721854305	2.94649006622517	-2.44026490066225				0.368529801324503	-0.224529801324503	-0.885721854304636	-3.11708609271523	0.4635761589404	-3.41562913907285				0.964026490066225	0.0514966887417219	0.117933774834437	1.6317880794702	2.57192052980133	0.782516556291392				0.543788079470199	-0.174834437086093	-0.852238410596026	-8.65960264900662	5.47761589403974	15.485298013245			
146	3320	0.983841059602649	0.0667549668874172	0.248476821192053	-2.76662251655629	5.4553642384106	1.89509933774834				1.02495364238411	0.0637880794701987	0.125139072847682	-0.966092715231788	6.46781456953642	3.33403973509934				0.997827814569536	-0.00127152317880793	-0.0239470198675496	4.76741721854305	9.38649006622517	4.27973509933775				0.368529801324503	-0.128529801324503	-0.821721854304636	10.0429139072848	16.1435761589404	16.1843708609272				0.996026490066225	0.0834966887417219	0.101933774834437	-3.4082119205298	7.61192052980133	-4.53748344370861				0.495788079470199	-0.158834437086093	-0.836238410596026	7.58039735099338	6.31761589403974	3.44529801324503			
147	3340	0.951841059602649	0.0507549668874172	0.232476821192053	5.35337748344371	2.6553642384106	-0.344900662251656				0.992953642384106	0.0637880794701987	0.141139072847682	0.993907284768212	1.70781456953642	3.05403973509934				0.997827814569536	-0.0492715231788079	-0.0239470198675496	8.12741721854305	9.38649006622517	2.59973509933775				0.384529801324503	-0.176529801324503	-0.869721854304636	8.92291390728477	15.3035761589404	10.3043708609272				0.964026490066225	0.0834966887417219	0.0699337748344371	-2.5682119205298	7.61192052980133	-1.73748344370861				0.479788079470199	-0.222834437086093	-0.836238410596026	18.7803973509934	4.35761589403974	-4.95470198675497			
148	3360	0.967841059602649	0.00275496688741723	0.184476821192053	3.39337748344371	2.0953642384106	-0.624900662251656				0.960953642384106	0.0637880794701987	0.141139072847682	6.59390728476821	-0.812185430463576	2.21403973509934				0.981827814569536	-0.00127152317880793	-0.0399470198675496	8.12741721854305	7.98649006622517	0.63973509933775				0.432529801324503	-0.224529801324503	-0.901721854304636	-1.43708609271523	11.3835761589404	5.82437086092715				0.964026490066225	0.0834966887417219	0.0699337748344371	-4.5282119205298	12.3719205298013	-0.617483443708608				0.479788079470199	-0.238834437086093	-0.820238410596026	15.7003973509934	5.47761589403974	-3.55470198675497			
149	3380	0.967841059602649	-0.0292450331125828	0.184476821192053	3.39337748344371	2.6553642384106	-0.344900662251656				0.960953642384106	0.0477880794701987	0.157139072847682	6.59390728476821	4.22781456953642	3.33403973509934				0.981827814569536	0.0147284768211921	-0.00794701986754963	4.48741721854305	7.14649006622517	1.47973509933775				0.432529801324503	-0.240529801324503	-0.885721854304636	-10.3970860927152	5.2235761589404	3.58437086092715				0.932026490066225	0.0834966887417219	0.0859337748344371	-2.2882119205298	14.0519205298013	-0.897483443708608				0.447788079470199	-0.254834437086093	-0.804238410596027	12.6203973509934	2.11761589403974	-0.194701986754968			
150	3400	0.967841059602649	-0.0452450331125828	0.216476821192053	3.11337748344371	2.3753642384106	-0.624900662251656				0.976953642384106	0.0477880794701987	0.157139072847682	3.79390728476821	6.46781456953642	4.73403973509934				0.997827814569536	-0.0172715231788079	-0.0399470198675496	2.52741721854305	5.18649006622517	2.87973509933775				0.400529801324503	-0.192529801324503	-0.869721854304636	-14.0370860927152	1.3035761589404	0.224370860927152				0.964026490066225	0.0674966887417219	0.101933774834437	-0.888211920529802	16.2919205298013	-0.617483443708608				0.431788079470199	-0.270834437086093	-0.788238410596027	9.26039735099338	0.437615894039735	3.16529801324503			
151	3420	0.951841059602649	-0.0292450331125828	0.216476821192053	-1.36662251655629	2.0953642384106	-0.0649006622516557				0.960953642384106	0.0317880794701987	0.173139072847682	2.11390728476821	9.54781456953642	5.29403973509934				0.981827814569536	-0.0172715231788079	-0.0719470198675496	6.16741721854305	2.66649006622517	1.19973509933775				0.368529801324503	-0.160529801324503	-0.821721854304636	-9.27708609271523	2.9835761589404	-2.29562913907285				0.964026490066225	0.0514966887417219	0.117933774834437	1.3517880794702	13.7719205298013	-0.897483443708608				0.447788079470199	-0.270834437086093	-0.804238410596027	8.98039735099338	-2.36238410596027	7.08529801324503			
152	3440	0.967841059602649	-0.0292450331125828	0.184476821192053	-1.64662251655629	2.3753642384106	0.215099337748344				0.976953642384106	0.0317880794701987	0.141139072847682	-0.406092715231788	7.58781456953643	5.01403973509934				0.997827814569536	-0.00127152317880793	-0.0719470198675496	3.92741721854305	1.26649006622517	0.63973509933775				0.400529801324503	-0.176529801324503	-0.821721854304636	-7.59708609271523	5.5035761589404	-3.41562913907285				0.948026490066225	0.0674966887417219	0.117933774834437	0.231788079470198	14.0519205298013	-0.617483443708608				0.479788079470199	-0.286834437086093	-0.804238410596027	7.86039735099338	-3.76238410596027	11.005298013245			
153	3460	0.983841059602649	-0.0132450331125828	0.200476821192053	-2.20662251655629	2.6553642384106	-0.624900662251656				0.992953642384106	0.0477880794701987	0.141139072847682	-4.32609271523179	8.70781456953642	4.17403973509934				0.997827814569536	-0.00127152317880793	-0.0719470198675496	1.68741721854305	0.706490066225167	0.63973509933775				0.448529801324503	-0.160529801324503	-0.837721854304636	-3.11708609271523	4.3835761589404	-3.97562913907285				0.980026490066225	0.0834966887417219	0.133933774834437	1.3517880794702	14.8919205298013	0.502516556291392				0.463788079470199	-0.270834437086093	-0.772238410596026	5.90039735099338	-1.24238410596026	11.565298013245			
154	3480	0.983841059602649	0.0187549668874172	0.200476821192053	-5.84662251655629	2.9353642384106	-1.74490066225166				1.00895364238411	0.0317880794701987	0.125139072847682	-6.28609271523179	7.02781456953642	4.17403973509934				0.981827814569536	-0.0172715231788079	-0.0719470198675496	1.40741721854305	-1.81350993377483	1.75973509933775				0.464529801324503	-0.192529801324503	-0.837721854304636	-1.99708609271523	4.1035761589404	-1.45562913907285				0.980026490066225	0.0834966887417219	0.149933774834437	6.1117880794702	11.8119205298013	1.90251655629139				0.463788079470199	-0.238834437086093	-0.788238410596027	10.1003973509934	3.23761589403974	7.64529801324503			
155	3500	0.951841059602649	0.0347549668874172	0.184476821192053	-9.48662251655629	1.2553642384106	-2.30490066225166				1.00895364238411	0.0637880794701987	0.109139072847682	-9.08609271523179	5.62781456953642	4.73403973509934				0.981827814569536	-0.0172715231788079	-0.0719470198675496	3.92741721854305	-4.61350993377483	1.19973509933775				0.464529801324503	-0.224529801324503	-0.853721854304636	-1.71708609271523	3.2635761589404	0.224370860927152				0.964026490066225	0.0514966887417219	0.165933774834437	7.7917880794702	9.85192052980133	2.46251655629139				0.479788079470199	-0.254834437086093	-0.788238410596027	18.5003973509934	1.55761589403974	3.44529801324503			
156	3520	0.967841059602649	0.0347549668874172	0.168476821192053	-8.36662251655629	0.695364238410596	-2.30490066225166				0.976953642384106	0.0957880794701987	0.189139072847682	-2.08609271523179	5.06781456953642	4.73403973509934				0.965827814569536	-0.00127152317880793	-0.0719470198675496	2.52741721854305	-1.53350993377483	0.0797350993377501				0.432529801324503	-0.224529801324503	-0.821721854304636	-1.43708609271523	3.8235761589404	-0.335629139072848				0.964026490066225	0.0514966887417219	0.165933774834437	6.9517880794702	7.05192052980133	2.46251655629139				0.495788079470199	-0.286834437086093	-0.788238410596027	15.4203973509934	-2.36238410596027	0.365298013245032			
157	3540	0.983841059602649	0.0187549668874172	0.168476821192053	-4.72662251655629	1.2553642384106	-2.02490066225166				0.976953642384106	0.0637880794701987	0.109139072847682	-0.686092715231788	-0.252185430463576	4.73403973509934				0.965827814569536	0.0147284768211921	-0.0879470198675496	0.287417218543046	-0.693509933774834	1.47973509933775				0.384529801324503	-0.160529801324503	-0.821721854304636	-0.317086092715232	4.3835761589404	-0.615629139072848				0.964026490066225	0.0834966887417219	0.117933774834437	-1.7282119205298	7.33192052980133	1.90251655629139				0.479788079470199	-0.302834437086093	-0.804238410596027	13.1803973509934	-2.08238410596027	-0.474701986754968			
158	3560	0.983841059602649	0.00275496688741723	0.184476821192053	-0.806622516556291	1.5353642384106	-1.46490066225166				1.00895364238411	0.0317880794701987	0.109139072847682	-0.966092715231788	5.06781456953642	5.01403973509934				0.965827814569536	0.0307284768211921	-0.0879470198675496	1.40741721854305	2.38649006622517	0.91973509933775				0.384529801324503	-0.144529801324503	-0.853721854304636	3.32291390728477	7.1835761589404	-0.335629139072848				0.964026490066225	0.0994966887417219	0.149933774834437	2.7517880794702	11.2519205298013	3.30251655629139				0.463788079470199	-0.318834437086093	-0.788238410596027	10.1003973509934	0.157615894039735	-1.87470198675497			
159	3580	0.983841059602649	0.00275496688741723	0.200476821192053	1.15337748344371	1.8153642384106	-1.18490066225166				1.02495364238411	0.0637880794701987	0.173139072847682	-1.52609271523179	3.66781456953642	4.73403973509934				0.965827814569536	0.0307284768211921	-0.0879470198675496	2.80741721854305	2.10649006622517	0.35973509933775				0.432529801324503	-0.208529801324503	-0.837721854304636	5.28291390728477	9.1435761589404	-0.335629139072848				0.980026490066225	0.0514966887417219	0.117933774834437	3.0317880794702	9.01192052980133	4.70251655629139				0.479788079470199	-0.318834437086093	-0.804238410596027	7.86039735099338	1.83761589403974	-0.474701986754968			
160	3600	0.967841059602649	0.0187549668874172	0.216476821192053	1.43337748344371	0.975364238410596	-1.46490066225166				0.976953642384106	0.0317880794701987	0.125139072847682	0.433907284768212	-0.812185430463576	5.29403973509934				0.965827814569536	0.0147284768211921	-0.0879470198675496	5.04741721854305	3.22649006622517	-0.48026490066225				0.448529801324503	-0.224529801324503	-0.869721854304636	3.32291390728477	4.9435761589404	-0.0556291390728476				0.964026490066225	0.0674966887417219	0.133933774834437	2.4717880794702	10.1319205298013	4.42251655629139				0.479788079470199	-0.302834437086093	-0.772238410596026	14.5803973509934	-3.20238410596026	1.48529801324503			
161	3620	0.951841059602649	0.00275496688741723	0.200476821192053	1.99337748344371	0.695364238410596	-1.74490066225166				0.944953642384106	0.0477880794701987	0.157139072847682	-0.126092715231788	1.98781456953642	4.45403973509934				0.965827814569536	-0.00127152317880793	-0.10394701986755	4.20741721854305	3.50649006622517	-1.04026490066225				0.448529801324503	-0.176529801324503	-0.869721854304636	-0.597086092715232	1.5835761589404	1.34437086092715				0.980026490066225	0.0834966887417219	0.165933774834437	-1.1682119205298	9.57192052980133	3.30251655629139				0.447788079470199	-0.302834437086093	-0.772238410596026	12.6203973509934	-4.04238410596027	3.72529801324503			
162	3640	0.983841059602649	-0.0292450331125828	0.120476821192053	-6.12662251655629	3.4953642384106	-0.904900662251656				0.976953642384106	-0.0482119205298013	0.221139072847682	-4.60609271523179	-3.89218543046358	-1.70596026490066				0.981827814569536	-0.0172715231788079	-0.10394701986755	4.76741721854305	2.10649006622517	-0.76026490066225				0.432529801324503	-0.192529801324503	-0.837721854304636	3.88291390728477	6.6235761589404	3.86437086092715				0.964026490066225	0.0834966887417219	0.149933774834437	2.1917880794702	5.65192052980133	4.42251655629139				0.447788079470199	-0.318834437086093	-0.772238410596026	5.90039735099338	-1.80238410596026	4.28529801324503			
163	3660	0.983841059602649	0.00275496688741723	0.200476821192053	0.0333774834437086	2.0953642384106	-2.58490066225166				0.992953642384106	0.0477880794701987	0.109139072847682	-2.08609271523179	3.94781456953642	5.01403973509934				0.981827814569536	-0.00127152317880793	-0.0879470198675496	5.88741721854305	0.706490066225167	-1.60026490066225				0.448529801324503	-0.208529801324503	-0.837721854304636	6.12291390728477	6.9035761589404	4.42437086092715				0.964026490066225	0.0514966887417219	0.133933774834437	4.7117880794702	6.49192052980132	4.14251655629139				0.479788079470199	-0.318834437086093	-0.772238410596026	5.06039735099338	0.157615894039735	2.88529801324503			
164	3680	0.967841059602649	0.0187549668874172	0.184476821192053	-1.08662251655629	2.3753642384106	-2.86490066225166				0.992953642384106	0.0317880794701987	0.141139072847682	-1.24609271523179	2.26781456953642	4.73403973509934				0.965827814569536	-0.0172715231788079	-0.0879470198675496	5.32741721854305	0.146490066225167	-2.16026490066225				0.448529801324503	-0.192529801324503	-0.853721854304636	-0.877086092715232	4.3835761589404	1.90437086092715				0.964026490066225	0.0514966887417219	0.165933774834437	1.6317880794702	5.93192052980133	4.98251655629139				0.463788079470199	-0.318834437086093	-0.772238410596026	8.14039735099338	-1.24238410596026	-0.754701986754968			
165	3700	0.967841059602649	0.0187549668874172	0.168476821192053	0.313377483443709	1.8153642384106	-2.30490066225166				0.992953642384106	0.0477880794701987	0.157139072847682	0.433907284768212	2.82781456953642	4.17403973509934				0.965827814569536	-0.00127152317880793	-0.0879470198675496	3.08741721854305	0.146490066225167	-1.60026490066225				0.464529801324503	-0.192529801324503	-0.837721854304636	0.242913907284768	1.3035761589404	-0.895629139072848				0.964026490066225	0.0514966887417219	0.165933774834437	0.511788079470198	4.25192052980133	4.70251655629139				0.447788079470199	-0.318834437086093	-0.772238410596026	9.82039735099338	-2.92238410596027	-2.15470198675497			
166	3720	0.967841059602649	0.0187549668874172	0.152476821192053	2.27337748344371	1.2553642384106	-2.58490066225166				0.992953642384106	0.0637880794701987	0.157139072847682	1.27390728476821	-0.532185430463576	3.05403973509934				0.965827814569536	0.0147284768211921	-0.0719470198675496	2.80741721854305	1.54649006622517	-1.88026490066225				0.464529801324503	-0.208529801324503	-0.837721854304636	2.20291390728477	0.7435761589404	-0.895629139072848				0.964026490066225	0.0674966887417219	0.165933774834437	1.3517880794702	3.13192052980133	3.86251655629139				0.431788079470199	-0.334834437086093	-0.772238410596026	7.30039735099338	-2.64238410596027	-1.59470198675497			
167	3740	0.967841059602649	0.0187549668874172	0.168476821192053	1.71337748344371	1.5353642384106	-2.30490066225166				0.992953642384106	0.0797880794701987	0.109139072847682	1.27390728476821	-3.61218543046358	4.45403973509934				0.997827814569536	0.0307284768211921	-0.0719470198675496	3.36741721854305	2.94649006622517	-0.76026490066225				0.464529801324503	-0.208529801324503	-0.853721854304636	1.92291390728477	-0.9364238410596	-1.45562913907285				0.964026490066225	0.0674966887417219	0.165933774834437	3.0317880794702	1.17192052980133	3.30251655629139				0.447788079470199	-0.334834437086093	-0.788238410596027	4.78039735099338	-1.24238410596026	-0.474701986754968			
168	3760	0.983841059602649	0.0187549668874172	0.168476821192053	1.15337748344371	1.2553642384106	-1.74490066225166				0.992953642384106	0.0797880794701987	0.125139072847682	-2.08609271523179	-0.532185430463576	3.33403973509934				0.981827814569536	-0.00127152317880793	-0.0879470198675496	4.20741721854305	2.66649006622517	0.35973509933775				0.448529801324503	-0.224529801324503	-0.853721854304636	-1.15708609271523	-2.0564238410596	-1.17562913907285				0.964026490066225	0.0514966887417219	0.149933774834437	3.3117880794702	-0.508079470198675	3.30251655629139				0.463788079470199	-0.334834437086093	-0.788238410596027	7.30039735099338	-1.52238410596026	-0.194701986754968			
169	3780	0.983841059602649	0.0347549668874172	0.184476821192053	0.873377483443709	1.5353642384106	-2.58490066225166				0.992953642384106	0.0477880794701987	0.173139072847682	-0.686092715231788	-2.49218543046358	3.33403973509934				0.965827814569536	0.0147284768211921	-0.0559470198675496	2.52741721854305	3.22649006622517	0.35973509933775				0.432529801324503	-0.208529801324503	-0.853721854304636	-0.317086092715232	-0.0964238410596001	-0.335629139072848				0.948026490066225	0.0674966887417219	0.165933774834437	2.7517880794702	0.0519205298013249	3.30251655629139				0.479788079470199	-0.318834437086093	-0.788238410596027	8.70039735099338	-4.60238410596027	0.645298013245032			
170	3800	0.967841059602649	0.0507549668874172	0.184476821192053	2.83337748344371	-0.704635761589404	-2.30490066225166				0.976953642384106	0.0477880794701987	0.157139072847682	2.39390728476821	-4.73218543046358	2.21403973509934				0.965827814569536	0.0307284768211921	-0.0719470198675496	4.20741721854305	4.34649006622517	-1.04026490066225				0.432529801324503	-0.208529801324503	-0.869721854304636	1.08291390728477	1.8635761589404	-0.335629139072848				0.964026490066225	0.0674966887417219	0.181933774834437	1.3517880794702	2.57192052980133	1.34251655629139				0.463788079470199	-0.350834437086093	-0.788238410596027	8.70039735099338	-7.12238410596027	1.20529801324503			
171	3820	0.983841059602649	0.0347549668874172	0.200476821192053	4.79337748344371	-2.1046357615894	-1.46490066225166				0.992953642384106	0.0477880794701987	0.141139072847682	1.27390728476821	-1.65218543046358	1.65403973509934				0.965827814569536	0.0307284768211921	-0.0719470198675496	5.04741721854305	4.06649006622517	-0.76026490066225				0.448529801324503	-0.208529801324503	-0.853721854304636	2.48291390728477	3.8235761589404	-0.615629139072848				0.980026490066225	0.0514966887417219	0.133933774834437	-0.888211920529802	-0.508079470198675	1.34251655629139				0.447788079470199	-0.334834437086093	-0.756238410596026	4.78039735099338	-7.40238410596027	1.76529801324503			
172	3840	0.967841059602649	0.0507549668874172	0.232476821192053	5.07337748344371	-0.704635761589404	-1.18490066225166				0.992953642384106	0.0317880794701987	0.173139072847682	3.51390728476821	0.587814569536424	0.81403973509934				0.981827814569536	0.0307284768211921	-0.0719470198675496	3.92741721854305	3.78649006622517	-0.20026490066225				0.448529801324503	-0.208529801324503	-0.853721854304636	1.08291390728477	3.8235761589404	-1.17562913907285				0.948026490066225	0.0514966887417219	0.149933774834437	2.1917880794702	1.45192052980132	1.90251655629139				0.431788079470199	-0.318834437086093	-0.772238410596026	0.860397350993377	-3.48238410596027	0.645298013245032			
173	3860	0.967841059602649	0.0507549668874172	0.248476821192053	3.67337748344371	1.2553642384106	-0.904900662251656				0.976953642384106	0.0477880794701987	0.173139072847682	6.31390728476821	-1.93218543046358	1.37403973509934				0.997827814569536	0.0307284768211921	-0.0559470198675496	4.20741721854305	2.10649006622517	-0.48026490066225				0.432529801324503	-0.192529801324503	-0.837721854304636	0.242913907284768	1.8635761589404	-4.25562913907285				0.948026490066225	0.0514966887417219	0.165933774834437	3.0317880794702	1.73192052980133	2.46251655629139				0.415788079470199	-0.302834437086093	-0.756238410596026	1.98039735099338	-2.36238410596027	-0.754701986754968			
174	3880	0.983841059602649	0.0507549668874172	0.232476821192053	3.67337748344371	1.2553642384106	-0.904900662251656				0.976953642384106	0.0477880794701987	0.173139072847682	5.75390728476821	1.70781456953642	1.65403973509934				0.981827814569536	0.0307284768211921	-0.0719470198675496	5.88741721854305	0.706490066225167	-2.16026490066225				0.448529801324503	-0.192529801324503	-0.821721854304636	1.36291390728477	2.4235761589404	-5.93562913907285				0.948026490066225	0.0514966887417219	0.165933774834437	4.1517880794702	3.41192052980132	1.06251655629139				0.415788079470199	-0.302834437086093	-0.756238410596026	5.06039735099338	1.55761589403974	-0.474701986754968			
175	3900	0.967841059602649	0.0507549668874172	0.072476821192053	-4.72662251655629	-1.2646357615894	-0.344900662251656				0.960953642384106	0.0637880794701987	0.301139072847682	-2.08609271523179	3.38781456953642	1.37403973509934				0.949827814569536	-0.0172715231788079	-0.16794701986755	-3.63258278145695	-2.09350993377483	5.95973509933775				0.464529801324503	-0.208529801324503	-0.837721854304636	3.04291390728477	3.2635761589404	-4.81562913907285				0.964026490066225	0.0674966887417219	0.181933774834437	5.2717880794702	3.69192052980133	-0.617483443708608				0.431788079470199	-0.318834437086093	-0.740238410596026	6.18039735099338	1.27761589403974	-1.59470198675497			
176	3920	0.983841059602649	0.0507549668874172	0.216476821192053	6.47337748344371	-0.704635761589404	-0.344900662251656				0.960953642384106	0.0477880794701987	0.205139072847682	6.87390728476821	2.54781456953642	0.81403973509934				0.997827814569536	0.0307284768211921	-0.0239470198675496	5.60741721854305	-2.37350993377483	-2.16026490066225				0.480529801324503	-0.224529801324503	-0.853721854304636	1.64291390728477	6.3435761589404	-5.09562913907285				0.932026490066225	0.0674966887417219	0.197933774834437	6.6717880794702	3.69192052980133	-0.897483443708608				0.447788079470199	-0.334834437086093	-0.740238410596026	3.10039735099338	4.07761589403974	-3.83470198675497			
177	3940	0.983841059602649	0.0347549668874172	0.232476821192053	6.19337748344371	-2.6646357615894	0.495099337748344				0.944953642384106	0.0157880794701987	0.237139072847682	3.79390728476821	8.98781456953643	1.09403973509934				0.997827814569536	0.0147284768211921	-0.00794701986754963	5.60741721854305	-4.05350993377483	-3.00026490066225				0.496529801324503	-0.208529801324503	-0.853721854304636	1.64291390728477	6.9035761589404	-5.93562913907285				0.932026490066225	0.0514966887417219	0.213933774834437	8.3517880794702	5.37192052980133	-1.73748344370861				0.447788079470199	-0.366834437086093	-0.756238410596026	4.78039735099338	6.03761589403974	-4.95470198675497			
178	3960	0	0	0	0	0	0				0	0	0	0	0	0				0	0	0	0	0	0				0.528529801324503	-0.176529801324503	-0.853721854304636	-1.71708609271523	2.4235761589404	-8.17562913907285				0.948026490066225	0.0674966887417219	0.213933774834437	11.1517880794702	6.21192052980133	-2.57748344370861				0.463788079470199	-0.350834437086093	-0.740238410596026	5.90039735099338	5.75761589403974	-5.51470198675497			
179	3980	0.967841059602649	0.0507549668874172	0.184476821192053	0.593377483443709	1.8153642384106	-1.46490066225166				0	0	0	0	0	0				0	0	0	0	0	0				0	0	0	0	0	0				0	0	0	0	0	0				0	0	0	0	0	0			
