No	Time	12-AccX	12-AccY	12-AccZ	12-GyroX	12-GyroY	12-GyroZ	13-AccX	13-AccY	13-AccZ	13-GyroX	13-GyroY	13-GyroZ	14-AccX	14-AccY	14-AccZ	14-GyroX	14-GyroY	14-GyroZ	15-AccX	15-AccY	15-AccZ	15-GyroX	15-GyroY	15-GyroZ	16-AccX	16-AccY	16-AccZ	16-GyroX	16-GyroY	16-GyroZ	17-AccX	17-AccY	17-AccZ	17-GyroX	17-GyroY	17-GyroZ
0	120	0	0	0	0	0	0				0.944953642384106	0.127788079470199	0.317139072847682	-0.126092715231788	0.587814569536424	0.53403973509934				-0.266172185430464	-0.0332715231788079	-0.88794701986755	0.567417218543046	0.706490066225167	0.0797350993377501				0.448529801324503	-0.0965298013245033	-0.853721854304636	4.44291390728477	0.7435761589404	-0.0556291390728476				0.932026490066225	0.0514966887417219	0.309933774834437	2.1917880794702	-2.18807947019868	1.34251655629139				0.287788079470199	-0.318834437086093	-0.852238410596026	0.300397350993377	-0.682384105960265	-2.15470198675497			
1	140	-0.200158940397351	0.0987549668874172	-0.951523178807947	0.593377483443709	0.415364238410596	-0.904900662251656				0.944953642384106	0.127788079470199	0.317139072847682	-0.966092715231788	2.26781456953642	0.25403973509934				-0.282172185430464	-0.0492715231788079	-0.88794701986755	0.847417218543046	-0.133509933774833	-0.48026490066225				0.432529801324503	-0.112529801324503	-0.869721854304636	3.60291390728477	0.7435761589404	-0.895629139072848				0.900026490066225	0.0514966887417219	0.309933774834437	3.5917880794702	-2.46807947019868	1.62251655629139				0.303788079470199	-0.318834437086093	-0.836238410596026	0.860397350993377	-0.962384105960265	-1.31470198675497			
2	160	-0.200158940397351	0.0987549668874172	-0.935523178807947	0.593377483443709	0.695364238410596	-1.74490066225166				0.944953642384106	0.127788079470199	0.317139072847682	-0.966092715231788	1.98781456953642	0.25403973509934				-0.266172185430464	-0.0332715231788079	-0.87194701986755	1.40741721854305	0.146490066225167	-0.20026490066225				0.448529801324503	-0.112529801324503	-0.853721854304636	0.802913907284768	-0.9364238410596	-0.615629139072848				0.932026490066225	0.0514966887417219	0.309933774834437	1.0717880794702	-1.62807947019868	0.502516556291392				0.303788079470199	-0.318834437086093	-0.852238410596026	-0.819602649006623	-1.52238410596026	-0.474701986754968			
3	180	-0.200158940397351	0.0987549668874172	-0.951523178807947	-0.246622516556291	0.135364238410596	-0.904900662251656				0.944953642384106	0.127788079470199	0.333139072847682	1.27390728476821	0.587814569536424	0.53403973509934				-0.266172185430464	-0.0332715231788079	-0.88794701986755	-0.272582781456954	-0.413509933774833	0.35973509933775				0.448529801324503	-0.112529801324503	-0.853721854304636	0.802913907284768	-1.4964238410596	-0.895629139072848				0.916026490066225	0.0514966887417219	0.325933774834437	0.231788079470198	-0.228079470198675	0.222516556291392				0.303788079470199	-0.318834437086093	-0.852238410596026	-0.819602649006623	-1.24238410596026	-1.87470198675497			
4	200	-0.216158940397351	0.0987549668874172	-0.951523178807947	0.593377483443709	-0.144635761589404	-0.904900662251656				0.944953642384106	0.127788079470199	0.333139072847682	0.713907284768212	-1.09218543046358	0.53403973509934				-0.266172185430464	-0.0332715231788079	-0.88794701986755	-0.272582781456954	0.146490066225167	-0.48026490066225				0.448529801324503	-0.0805298013245033	-0.853721854304636	1.92291390728477	-0.9364238410596	-1.73562913907285				0.932026490066225	0.0514966887417219	0.293933774834437	0.791788079470198	-1.62807947019868	0.502516556291392				0.303788079470199	-0.302834437086093	-0.836238410596026	0.860397350993377	-0.962384105960265	-2.71470198675497			
5	220	-0.200158940397351	0.0987549668874172	-0.951523178807947	0.313377483443709	0.135364238410596	-1.74490066225166				0.944953642384106	0.127788079470199	0.301139072847682	-0.966092715231788	-0.252185430463576	0.81403973509934				-0.282172185430464	-0.0332715231788079	-0.88794701986755	0.287417218543046	-0.693509933774834	-0.20026490066225				0.432529801324503	-0.112529801324503	-0.853721854304636	2.48291390728477	-0.9364238410596	-0.615629139072848				0.916026490066225	0.0514966887417219	0.293933774834437	-0.0482119205298018	-0.508079470198675	-0.337483443708608				0.287788079470199	-0.318834437086093	-0.836238410596026	1.70039735099338	-1.52238410596026	-2.71470198675497			
6	240	-0.216158940397351	0.0987549668874172	-0.935523178807947	-0.246622516556291	-0.144635761589404	-1.18490066225166				0.944953642384106	0.127788079470199	0.333139072847682	-0.406092715231788	0.587814569536424	0.53403973509934				-0.282172185430464	-0.0332715231788079	-0.87194701986755	0.567417218543046	0.706490066225167	0.0797350993377501				0.432529801324503	-0.112529801324503	-0.853721854304636	1.92291390728477	-0.6564238410596	-0.615629139072848				0.932026490066225	0.0674966887417219	0.325933774834437	2.1917880794702	-1.62807947019868	1.34251655629139				0.287788079470199	-0.318834437086093	-0.852238410596026	0.300397350993377	-0.682384105960265	-1.59470198675497			
7	260	-0.200158940397351	0.0987549668874172	-0.951523178807947	0.873377483443709	0.135364238410596	-0.344900662251656				0.960953642384106	0.143788079470199	0.317139072847682	0.713907284768212	-0.252185430463576	-0.30596026490066				-0.266172185430464	-0.0332715231788079	-0.88794701986755	0.00741721854304636	0.706490066225167	0.0797350993377501				0.448529801324503	-0.0965298013245033	-0.853721854304636	0.522913907284768	0.1835761589404	-0.615629139072848				0.948026490066225	0.0514966887417219	0.309933774834437	1.9117880794702	-0.788079470198675	1.34251655629139				0.303788079470199	-0.318834437086093	-0.852238410596026	-0.259602649006623	-0.122384105960265	-2.43470198675497			
8	280	-0.200158940397351	0.0827549668874172	-0.951523178807947	0.873377483443709	0.415364238410596	-0.904900662251656				0.944953642384106	0.143788079470199	0.333139072847682	0.433907284768212	-0.532185430463576	1.09403973509934				-0.266172185430464	-0.0332715231788079	-0.88794701986755	-0.272582781456954	0.426490066225167	-0.76026490066225				0.464529801324503	-0.0965298013245033	-0.869721854304636	3.32291390728477	-0.6564238410596	0.224370860927152				0.932026490066225	0.0674966887417219	0.309933774834437	0.511788079470198	-1.90807947019868	1.06251655629139				0.303788079470199	-0.302834437086093	-0.852238410596026	0.300397350993377	0.157615894039735	-1.87470198675497			
9	300	-0.200158940397351	0.0987549668874172	-0.951523178807947	0.313377483443709	-0.144635761589404	-1.18490066225166				0.944953642384106	0.143788079470199	0.333139072847682	1.55390728476821	-1.65218543046358	2.49403973509934				-0.266172185430464	-0.0332715231788079	-0.87194701986755	0.567417218543046	-0.133509933774833	-0.20026490066225				0.464529801324503	-0.128529801324503	-0.869721854304636	3.32291390728477	-0.9364238410596	-0.335629139072848				0.916026490066225	0.0514966887417219	0.309933774834437	1.3517880794702	-2.18807947019868	1.06251655629139				0.287788079470199	-0.318834437086093	-0.836238410596026	1.42039735099338	-1.24238410596026	-2.15470198675497			
10	320	-0.216158940397351	0.0827549668874172	-0.951523178807947	0.0333774834437086	0.135364238410596	-1.18490066225166				0.928953642384106	0.127788079470199	0.317139072847682	0.153907284768212	-0.812185430463576	1.37403973509934				-0.282172185430464	-0.0332715231788079	-0.87194701986755	0.847417218543046	0.426490066225167	-0.48026490066225				0.448529801324503	-0.128529801324503	-0.869721854304636	0.802913907284768	-2.3364238410596	-1.17562913907285				0.916026490066225	0.0514966887417219	0.309933774834437	3.0317880794702	-2.18807947019868	-0.0574834437086077				0.287788079470199	-0.318834437086093	-0.836238410596026	-0.259602649006623	-1.52238410596026	-1.03470198675497			
11	340	-0.216158940397351	0.0827549668874172	-0.951523178807947	0.593377483443709	-0.424635761589404	-1.18490066225166				0.944953642384106	0.127788079470199	0.317139072847682	-0.686092715231788	0.0278145695364242	0.81403973509934				-0.266172185430464	-0.0332715231788079	-0.88794701986755	0.567417218543046	0.986490066225167	-0.76026490066225				0.432529801324503	-0.112529801324503	-0.853721854304636	-0.597086092715232	-2.3364238410596	-1.45562913907285				0.916026490066225	0.0514966887417219	0.293933774834437	2.4717880794702	-1.90807947019868	0.222516556291392				0.287788079470199	-0.318834437086093	-0.836238410596026	-2.49960264900662	-1.24238410596026	-0.474701986754968			
12	360	-0.216158940397351	0.0987549668874172	-0.951523178807947	0.0333774834437086	0.975364238410596	-1.46490066225166				0.960953642384106	0.143788079470199	0.333139072847682	0.433907284768212	-0.812185430463576	0.81403973509934				-0.282172185430464	-0.0492715231788079	-0.88794701986755	0.567417218543046	1.26649006622517	-0.76026490066225				0.432529801324503	-0.112529801324503	-0.837721854304636	-0.317086092715232	-1.7764238410596	-1.17562913907285				0.916026490066225	0.0354966887417219	0.293933774834437	2.4717880794702	-1.62807947019868	0.222516556291392				0.303788079470199	-0.302834437086093	-0.836238410596026	-1.65960264900662	0.157615894039735	-1.03470198675497			
13	380	-0.200158940397351	0.0987549668874172	-0.951523178807947	0.313377483443709	0.415364238410596	-1.18490066225166				0.944953642384106	0.143788079470199	0.333139072847682	1.27390728476821	-1.65218543046358	0.25403973509934				-0.282172185430464	-0.0332715231788079	-0.87194701986755	1.12741721854305	0.706490066225167	-0.20026490066225				0.432529801324503	-0.112529801324503	-0.837721854304636	1.08291390728477	-0.0964238410596001	-0.0556291390728476				0.932026490066225	0.0514966887417219	0.293933774834437	0.231788079470198	-1.34807947019868	-0.0574834437086077				0.303788079470199	-0.302834437086093	-0.852238410596026	0.860397350993377	0.157615894039735	-3.27470198675497			
14	400	-0.216158940397351	0.0987549668874172	-0.951523178807947	0.313377483443709	-0.424635761589404	-1.46490066225166				0.944953642384106	0.143788079470199	0.317139072847682	0.993907284768212	-2.77218543046358	0.81403973509934				-0.282172185430464	-0.0332715231788079	-0.87194701986755	0.567417218543046	-0.133509933774833	-0.76026490066225				0.432529801324503	-0.128529801324503	-0.853721854304636	3.04291390728477	0.7435761589404	-0.0556291390728476				0.916026490066225	0.0514966887417219	0.309933774834437	0.791788079470198	-1.06807947019868	-0.617483443708608				0.303788079470199	-0.318834437086093	-0.852238410596026	2.26039735099338	-0.122384105960265	-3.83470198675497			
15	420	-0.216158940397351	0.0987549668874172	-0.951523178807947	0.873377483443709	0.415364238410596	-0.624900662251656				0.944953642384106	0.127788079470199	0.301139072847682	1.83390728476821	-1.09218543046358	0.25403973509934				-0.266172185430464	-0.0332715231788079	-0.87194701986755	0.00741721854304636	-0.133509933774833	0.0797350993377501				0.432529801324503	-0.128529801324503	-0.869721854304636	1.92291390728477	0.7435761589404	-0.615629139072848				0.932026490066225	0.0354966887417219	0.277933774834437	-0.608211920529802	-2.74807947019868	0.502516556291392				0.287788079470199	-0.318834437086093	-0.852238410596026	0.860397350993377	0.157615894039735	-4.39470198675497			
16	440	-0.200158940397351	0.0827549668874172	-0.951523178807947	0.0333774834437086	0.415364238410596	-0.344900662251656				0.944953642384106	0.127788079470199	0.301139072847682	0.153907284768212	-0.252185430463576	-0.30596026490066				-0.266172185430464	-0.0332715231788079	-0.88794701986755	0.567417218543046	-0.133509933774833	0.0797350993377501				0.432529801324503	-0.112529801324503	-0.869721854304636	0.802913907284768	0.1835761589404	-0.615629139072848				0.916026490066225	0.0514966887417219	0.309933774834437	-0.0482119205298018	-0.788079470198675	0.502516556291392				0.287788079470199	-0.318834437086093	-0.852238410596026	-0.539602649006623	0.437615894039735	-2.71470198675497			
17	460	-0.216158940397351	0.0827549668874172	-0.935523178807947	-0.526622516556291	0.415364238410596	-0.904900662251656				0.944953642384106	0.127788079470199	0.317139072847682	-0.126092715231788	-0.252185430463576	-0.585960264900661				-0.266172185430464	-0.0332715231788079	-0.87194701986755	0.567417218543046	0.706490066225167	0.0797350993377501				0.432529801324503	-0.0965298013245033	-0.869721854304636	1.36291390728477	0.7435761589404	-0.895629139072848				0.932026490066225	0.0674966887417219	0.293933774834437	0.511788079470198	-0.788079470198675	-0.0574834437086077				0.287788079470199	-0.318834437086093	-0.852238410596026	-0.819602649006623	-0.682384105960265	-2.43470198675497			
18	480	-0.184158940397351	0.0827549668874172	-0.951523178807947	-0.246622516556291	0.135364238410596	-1.18490066225166				0.944953642384106	0.127788079470199	0.333139072847682	1.27390728476821	-2.49218543046358	0.81403973509934				-0.266172185430464	-0.0492715231788079	-0.88794701986755	0.287417218543046	-0.413509933774833	-0.76026490066225				0.432529801324503	-0.112529801324503	-0.853721854304636	0.242913907284768	-0.9364238410596	-1.17562913907285				0.932026490066225	0.0514966887417219	0.277933774834437	1.6317880794702	-0.508079470198675	0.782516556291392				0.287788079470199	-0.318834437086093	-0.852238410596026	1.14039735099338	-0.402384105960265	-1.03470198675497			
19	500	-0.200158940397351	0.0827549668874172	-0.951523178807947	0.593377483443709	-0.144635761589404	-1.18490066225166				0.944953642384106	0.127788079470199	0.317139072847682	1.55390728476821	-1.93218543046358	1.93403973509934				-0.282172185430464	-0.0332715231788079	-0.87194701986755	-0.272582781456954	-0.693509933774834	-1.04026490066225				0.432529801324503	-0.112529801324503	-0.853721854304636	0.802913907284768	-1.2164238410596	-0.615629139072848				0.932026490066225	0.0514966887417219	0.309933774834437	1.0717880794702	-0.508079470198675	0.502516556291392				0.287788079470199	-0.318834437086093	-0.852238410596026	1.98039735099338	-0.682384105960265	-1.87470198675497			
20	520	-0.216158940397351	0.0987549668874172	-0.951523178807947	0.313377483443709	0.695364238410596	-0.624900662251656				0.944953642384106	0.127788079470199	0.317139072847682	1.27390728476821	-0.252185430463576	0.81403973509934				-0.282172185430464	-0.0332715231788079	-0.88794701986755	-0.272582781456954	0.426490066225167	0.0797350993377501				0.432529801324503	-0.112529801324503	-0.869721854304636	1.36291390728477	0.1835761589404	-1.17562913907285				0.932026490066225	0.0674966887417219	0.293933774834437	0.791788079470198	-0.508079470198675	1.06251655629139				0.287788079470199	-0.318834437086093	-0.836238410596026	0.860397350993377	-0.122384105960265	-1.59470198675497			
21	540	-0.216158940397351	0.0987549668874172	-0.951523178807947	-0.246622516556291	0.695364238410596	-0.904900662251656				0.928953642384106	0.143788079470199	0.317139072847682	0.713907284768212	1.14781456953642	0.81403973509934				-0.282172185430464	-0.0332715231788079	-0.88794701986755	0.847417218543046	1.26649006622517	0.0797350993377501				0.448529801324503	-0.128529801324503	-0.869721854304636	0.802913907284768	0.7435761589404	-2.29562913907285				0.932026490066225	0.0514966887417219	0.293933774834437	1.9117880794702	-0.508079470198675	1.06251655629139				0.287788079470199	-0.318834437086093	-0.836238410596026	0.300397350993377	0.437615894039735	-0.194701986754968			
22	560	-0.216158940397351	0.0827549668874172	-0.935523178807947	-0.246622516556291	0.695364238410596	-0.904900662251656				0.960953642384106	0.143788079470199	0.317139072847682	0.433907284768212	0.867814569536424	0.53403973509934				-0.266172185430464	-0.0332715231788079	-0.87194701986755	1.12741721854305	0.146490066225167	-0.48026490066225				0.448529801324503	-0.128529801324503	-0.853721854304636	-0.0370860927152318	0.7435761589404	-0.895629139072848				0.932026490066225	0.0514966887417219	0.309933774834437	1.0717880794702	-0.228079470198675	-0.0574834437086077				0.287788079470199	-0.318834437086093	-0.852238410596026	0.860397350993377	0.717615894039735	-0.194701986754968			
23	580	-0.200158940397351	0.0987549668874172	-0.935523178807947	0.313377483443709	0.135364238410596	-0.344900662251656				0.960953642384106	0.143788079470199	0.317139072847682	0.993907284768212	-1.65218543046358	0.81403973509934				-0.266172185430464	-0.0172715231788079	-0.85594701986755	0.567417218543046	-0.133509933774833	-0.20026490066225				0.432529801324503	-0.128529801324503	-0.869721854304636	0.522913907284768	-0.0964238410596001	-0.335629139072848				0.932026490066225	0.0354966887417219	0.309933774834437	1.0717880794702	-0.508079470198675	-0.0574834437086077				0.287788079470199	-0.318834437086093	-0.852238410596026	1.42039735099338	-0.402384105960265	-1.31470198675497			
24	600	-0.200158940397351	0.0827549668874172	-0.951523178807947	0.313377483443709	-0.144635761589404	-0.904900662251656				0.944953642384106	0.127788079470199	0.317139072847682	1.55390728476821	-1.37218543046358	0.81403973509934				-0.282172185430464	-0.0332715231788079	-0.87194701986755	0.287417218543046	0.146490066225167	-0.20026490066225				0.448529801324503	-0.112529801324503	-0.869721854304636	-0.597086092715232	-1.4964238410596	-0.0556291390728476				0.932026490066225	0.0514966887417219	0.293933774834437	1.0717880794702	-0.788079470198675	0.222516556291392				0.303788079470199	-0.318834437086093	-0.836238410596026	0.300397350993377	-0.402384105960265	0.0852980132450323			
25	620	-0.216158940397351	0.0987549668874172	-0.935523178807947	0.593377483443709	0.695364238410596	-1.18490066225166				0.928953642384106	0.127788079470199	0.317139072847682	0.433907284768212	1.42781456953642	0.53403973509934				-0.282172185430464	-0.0332715231788079	-0.88794701986755	1.40741721854305	0.426490066225167	-0.20026490066225				0.432529801324503	-0.112529801324503	-0.853721854304636	-1.71708609271523	-1.7764238410596	0.224370860927152				0.916026490066225	0.0514966887417219	0.309933774834437	1.3517880794702	-0.508079470198675	-0.337483443708608				0.287788079470199	-0.318834437086093	-0.836238410596026	-0.259602649006623	0.157615894039735	0.365298013245032			
26	640	-0.216158940397351	0.0827549668874172	-0.951523178807947	-0.526622516556291	0.135364238410596	-1.18490066225166				0.944953642384106	0.143788079470199	0.317139072847682	-0.406092715231788	1.42781456953642	0.81403973509934				-0.266172185430464	-0.0332715231788079	-0.88794701986755	0.287417218543046	-0.133509933774833	-0.48026490066225				0.432529801324503	-0.0965298013245033	-0.853721854304636	-1.43708609271523	-2.0564238410596	-0.615629139072848				0.916026490066225	0.0514966887417219	0.309933774834437	0.511788079470198	-0.508079470198675	-0.897483443708608				0.287788079470199	-0.318834437086093	-0.820238410596026	0.860397350993377	0.437615894039735	0.0852980132450323			
27	660	-0.200158940397351	0.0987549668874172	-0.935523178807947	-1.08662251655629	0.135364238410596	-1.74490066225166				0.944953642384106	0.127788079470199	0.333139072847682	0.713907284768212	-1.37218543046358	0.81403973509934				-0.266172185430464	-0.0332715231788079	-0.85594701986755	0.00741721854304636	0.426490066225167	-0.48026490066225				0.448529801324503	-0.0965298013245033	-0.837721854304636	-0.597086092715232	-0.9364238410596	-0.895629139072848				0.916026490066225	0.0514966887417219	0.309933774834437	1.0717880794702	0.331920529801325	-0.897483443708608				0.303788079470199	-0.318834437086093	-0.836238410596026	1.70039735099338	0.157615894039735	-1.03470198675497			
28	680	-0.216158940397351	0.0987549668874172	-0.951523178807947	-0.806622516556291	-0.144635761589404	-1.74490066225166				0.944953642384106	0.127788079470199	0.317139072847682	1.27390728476821	-2.49218543046358	0.81403973509934				-0.266172185430464	-0.0332715231788079	-0.87194701986755	-0.272582781456954	0.426490066225167	-0.76026490066225				0.432529801324503	-0.112529801324503	-0.837721854304636	-0.317086092715232	-0.6564238410596	-0.0556291390728476				0.916026490066225	0.0674966887417219	0.309933774834437	0.791788079470198	0.331920529801325	-0.337483443708608				0.303788079470199	-0.318834437086093	-0.852238410596026	1.70039735099338	-0.122384105960265	-0.474701986754968			
29	700	-0.216158940397351	0.0987549668874172	-0.951523178807947	1.15337748344371	-0.144635761589404	-1.18490066225166				0.944953642384106	0.127788079470199	0.317139072847682	1.27390728476821	-0.532185430463576	1.09403973509934				-0.266172185430464	-0.0332715231788079	-0.88794701986755	0.287417218543046	-0.133509933774833	-0.48026490066225				0.432529801324503	-0.112529801324503	-0.853721854304636	-1.15708609271523	-0.0964238410596001	-0.335629139072848				0.932026490066225	0.0674966887417219	0.309933774834437	1.0717880794702	0.611920529801325	0.782516556291392				0.303788079470199	-0.318834437086093	-0.852238410596026	0.0203973509933773	-0.122384105960265	-0.474701986754968			
30	720	-0.200158940397351	0.0987549668874172	-0.951523178807947	-0.246622516556291	0.135364238410596	-1.18490066225166				0.944953642384106	0.127788079470199	0.333139072847682	1.27390728476821	0.0278145695364242	0.81403973509934				-0.266172185430464	-0.0332715231788079	-0.87194701986755	0.287417218543046	0.426490066225167	-0.48026490066225				0.448529801324503	-0.112529801324503	-0.869721854304636	0.522913907284768	0.7435761589404	1.06437086092715				0.932026490066225	0.0514966887417219	0.293933774834437	1.9117880794702	0.891920529801325	1.06251655629139				0.303788079470199	-0.318834437086093	-0.836238410596026	-0.259602649006623	0.717615894039735	-0.474701986754968			
31	740	-0.200158940397351	0.0827549668874172	-0.951523178807947	-1.36662251655629	0.695364238410596	-1.18490066225166				0.944953642384106	0.127788079470199	0.317139072847682	0.713907284768212	-1.65218543046358	-0.0259602649006601				-0.266172185430464	-0.0332715231788079	-0.87194701986755	0.00741721854304636	-0.133509933774833	-0.48026490066225				0.448529801324503	-0.112529801324503	-0.869721854304636	1.08291390728477	2.1435761589404	1.62437086092715				0.932026490066225	0.0354966887417219	0.309933774834437	2.1917880794702	0.611920529801325	0.222516556291392				0.303788079470199	-0.318834437086093	-0.852238410596026	1.14039735099338	0.717615894039735	-0.474701986754968			
32	760	-0.200158940397351	0.0987549668874172	-0.935523178807947	0.0333774834437086	0.415364238410596	-0.904900662251656				0.960953642384106	0.143788079470199	0.365139072847682	0.433907284768212	-3.33218543046358	-0.0259602649006601				-0.266172185430464	-0.0332715231788079	-0.87194701986755	0.567417218543046	-0.133509933774833	-0.20026490066225				0.448529801324503	-0.112529801324503	-0.869721854304636	0.802913907284768	0.7435761589404	1.06437086092715				0.916026490066225	0.0674966887417219	0.325933774834437	3.0317880794702	2.85192052980133	0.222516556291392				0.287788079470199	-0.318834437086093	-0.836238410596026	1.70039735099338	-0.122384105960265	-0.754701986754968			
33	780	-0.200158940397351	0.0827549668874172	-0.951523178807947	0.0333774834437086	-0.144635761589404	-1.18490066225166				0.960953642384106	0.143788079470199	0.333139072847682	0.713907284768212	-3.33218543046358	0.25403973509934				-0.282172185430464	-0.0332715231788079	-0.88794701986755	0.847417218543046	-0.413509933774833	0.35973509933775				0.432529801324503	-0.112529801324503	-0.869721854304636	-0.317086092715232	-0.6564238410596	1.34437086092715				0.932026490066225	0.0354966887417219	0.261933774834437	0.791788079470198	-1.34807947019868	1.06251655629139				0.303788079470199	-0.334834437086093	-0.836238410596026	-0.259602649006623	-0.682384105960265	0.365298013245032			
34	800	-0.216158940397351	0.0987549668874172	-0.951523178807947	0.0333774834437086	0.415364238410596	-0.344900662251656				0.944953642384106	0.127788079470199	0.317139072847682	1.83390728476821	-3.05218543046358	1.09403973509934				-0.266172185430464	-0.0332715231788079	-0.88794701986755	0.847417218543046	0.426490066225167	0.0797350993377501				0.448529801324503	-0.112529801324503	-0.869721854304636	-0.0370860927152318	-1.2164238410596	0.504370860927152				0.932026490066225	0.0514966887417219	0.325933774834437	-1.1682119205298	2.01192052980133	-1.17748344370861				0.287788079470199	-0.318834437086093	-0.836238410596026	-0.259602649006623	0.437615894039735	0.0852980132450323			
35	820	-0.200158940397351	0.0987549668874172	-0.935523178807947	0.0333774834437086	0.695364238410596	-0.344900662251656				0.944953642384106	0.127788079470199	0.301139072847682	1.55390728476821	-1.37218543046358	-0.0259602649006601				-0.266172185430464	-0.0332715231788079	-0.87194701986755	0.287417218543046	0.426490066225167	-0.48026490066225				0.432529801324503	-0.112529801324503	-0.869721854304636	0.242913907284768	-0.6564238410596	0.224370860927152				0.916026490066225	0.0514966887417219	0.309933774834437	0.511788079470198	1.17192052980133	-0.897483443708608				0.303788079470199	-0.318834437086093	-0.836238410596026	0.0203973509933773	0.717615894039735	-0.194701986754968			
36	840	-0.200158940397351	0.0987549668874172	-0.935523178807947	0.0333774834437086	0.415364238410596	-0.904900662251656				0.944953642384106	0.127788079470199	0.317139072847682	-0.126092715231788	-2.77218543046358	-0.0259602649006601				-0.266172185430464	-0.0332715231788079	-0.87194701986755	0.287417218543046	0.706490066225167	0.63973509933775				0.432529801324503	-0.112529801324503	-0.869721854304636	-1.71708609271523	-0.0964238410596001	0.224370860927152				0.932026490066225	0.0674966887417219	0.309933774834437	-0.888211920529802	3.13192052980133	-0.897483443708608				0.287788079470199	-0.318834437086093	-0.836238410596026	1.14039735099338	1.27761589403974	-0.474701986754968			
37	860	-0.216158940397351	0.0987549668874172	-0.935523178807947	0.593377483443709	0.415364238410596	-1.46490066225166				0.960953642384106	0.143788079470199	0.333139072847682	0.713907284768212	-6.13218543046358	-0.0259602649006601				-0.282172185430464	-0.0332715231788079	-0.88794701986755	-0.272582781456954	0.146490066225167	0.0797350993377501				0.432529801324503	-0.112529801324503	-0.837721854304636	-1.15708609271523	1.0235761589404	0.504370860927152				0.932026490066225	0.0514966887417219	0.309933774834437	1.3517880794702	1.45192052980132	-0.337483443708608				0.287788079470199	-0.318834437086093	-0.852238410596026	0.580397350993377	0.717615894039735	-1.59470198675497			
38	880	-0.200158940397351	0.0987549668874172	-0.951523178807947	0.0333774834437086	0.135364238410596	-0.904900662251656				0.944953642384106	0.127788079470199	0.301139072847682	2.95390728476821	-5.85218543046358	0.53403973509934				-0.282172185430464	-0.0332715231788079	-0.88794701986755	-1.11258278145695	0.706490066225167	-0.20026490066225				0.448529801324503	-0.0965298013245033	-0.837721854304636	-0.317086092715232	0.4635761589404	1.34437086092715				0.932026490066225	0.0674966887417219	0.293933774834437	-0.0482119205298018	0.891920529801325	0.502516556291392				0.303788079470199	-0.318834437086093	-0.852238410596026	-0.819602649006623	1.55761589403974	-0.194701986754968			
39	900	-0.200158940397351	0.0987549668874172	-0.951523178807947	-0.246622516556291	0.975364238410596	-0.904900662251656				0.944953642384106	0.143788079470199	0.285139072847682	2.67390728476821	-2.21218543046358	-0.0259602649006601				-0.266172185430464	-0.0332715231788079	-0.88794701986755	-0.272582781456954	0.986490066225167	0.0797350993377501				0.448529801324503	-0.0965298013245033	-0.869721854304636	0.802913907284768	1.5835761589404	1.06437086092715				0.932026490066225	0.0674966887417219	0.309933774834437	0.231788079470198	0.331920529801325	-0.0574834437086077				0.287788079470199	-0.318834437086093	-0.852238410596026	0.0203973509933773	1.27761589403974	-0.194701986754968			
40	920	-0.200158940397351	0.0827549668874172	-0.951523178807947	-1.92662251655629	0.695364238410596	-1.18490066225166				0.960953642384106	0.143788079470199	0.301139072847682	2.11390728476821	-2.49218543046358	0.81403973509934				-0.266172185430464	-0.0332715231788079	-0.87194701986755	-0.272582781456954	0.426490066225167	-0.76026490066225				0.448529801324503	-0.112529801324503	-0.853721854304636	1.08291390728477	1.5835761589404	1.06437086092715				0.932026490066225	0.0674966887417219	0.309933774834437	0.511788079470198	0.611920529801325	-0.337483443708608				0.303788079470199	-0.318834437086093	-0.852238410596026	-0.539602649006623	1.55761589403974	-0.194701986754968			
41	940	-0.216158940397351	0.0987549668874172	-0.935523178807947	0.0333774834437086	0.975364238410596	-0.624900662251656				0.944953642384106	0.143788079470199	0.317139072847682	1.27390728476821	-3.89218543046358	1.09403973509934				0	0	0	0	0	0				0	0	0	0	0	0				0	0	0	0	0	0				0	0	0	0	0	0			
42	1040	0	0	0	0	0	0				0	0	0	0	0	0				0	0	0	0	0	0				0.448529801324503	-0.112529801324503	-0.853721854304636	0.802913907284768	0.7435761589404	0.784370860927152				0.932026490066225	0.0514966887417219	0.293933774834437	1.0717880794702	-0.508079470198675	-0.337483443708608				0.319788079470199	-0.318834437086093	-0.852238410596026	-0.259602649006623	0.997615894039735	-1.59470198675497			
43	1060	0	0	0	0	0	0				0	0	0	0	0	0				0	0	0	0	0	0				0.432529801324503	-0.0965298013245033	-0.853721854304636	0.242913907284768	0.7435761589404	-0.0556291390728476				0.916026490066225	0.0674966887417219	0.293933774834437	-1.1682119205298	0.891920529801325	-0.897483443708608				0.303788079470199	-0.318834437086093	-0.852238410596026	0.300397350993377	-0.122384105960265	-1.59470198675497			
44	1080	0	0	0	0	0	0				0	0	0	0	0	0				0	0	0	0	0	0				0.432529801324503	-0.0965298013245033	-0.853721854304636	0.802913907284768	1.5835761589404	0.504370860927152				0.932026490066225	0.0674966887417219	0.309933774834437	0.511788079470198	0.891920529801325	-0.897483443708608				0.303788079470199	-0.318834437086093	-0.836238410596026	-0.539602649006623	-0.402384105960265	0.365298013245032			
45	1100	-0.200158940397351	0.0987549668874172	-0.935523178807947	-0.806622516556291	-0.144635761589404	-1.46490066225166				0.960953642384106	0.143788079470199	0.301139072847682	2.67390728476821	-1.65218543046358	0.81403973509934				-0.266172185430464	-0.0332715231788079	-0.87194701986755	-0.552582781456954	0.706490066225167	0.91973509933775				0.448529801324503	-0.112529801324503	-0.853721854304636	1.08291390728477	0.7435761589404	-0.0556291390728476				0.932026490066225	0.0514966887417219	0.309933774834437	2.4717880794702	0.331920529801325	0.222516556291392				0.287788079470199	-0.302834437086093	-0.852238410596026	-1.37960264900662	0.157615894039735	0.0852980132450323			
46	1120	-0.200158940397351	0.0987549668874172	-0.935523178807947	-1.08662251655629	0.415364238410596	-1.46490066225166				0.944953642384106	0.127788079470199	0.285139072847682	1.83390728476821	-3.05218543046358	0.81403973509934				-0.282172185430464	-0.0172715231788079	-0.87194701986755	1.40741721854305	0.426490066225167	-1.32026490066225				0.432529801324503	-0.112529801324503	-0.853721854304636	-0.877086092715232	-0.3764238410596	-0.335629139072848				0.932026490066225	0.0674966887417219	0.309933774834437	-0.0482119205298018	0.0519205298013249	1.06251655629139				0.303788079470199	-0.318834437086093	-0.852238410596026	1.42039735099338	0.717615894039735	-0.754701986754968			
47	1140	-0.216158940397351	0.0987549668874172	-0.951523178807947	0.0333774834437086	-0.704635761589404	-0.904900662251656				0.944953642384106	0.143788079470199	0.301139072847682	1.55390728476821	-3.33218543046358	0.25403973509934				-0.266172185430464	-0.0172715231788079	-0.87194701986755	-0.272582781456954	-0.413509933774833	0.35973509933775				0.432529801324503	-0.112529801324503	-0.853721854304636	0.802913907284768	0.4635761589404	-0.0556291390728476				0.932026490066225	0.0674966887417219	0.293933774834437	0.511788079470198	0.331920529801325	-0.0574834437086077				0.303788079470199	-0.302834437086093	-0.836238410596026	0.580397350993377	2.11761589403974	-0.754701986754968			
48	1160	-0.216158940397351	0.0827549668874172	-0.951523178807947	0.593377483443709	0.135364238410596	-1.46490066225166				0.944953642384106	0.127788079470199	0.269139072847682	2.11390728476821	-2.49218543046358	0.53403973509934				-0.266172185430464	-0.0332715231788079	-0.88794701986755	0.287417218543046	0.146490066225167	-0.76026490066225				0.432529801324503	-0.0965298013245033	-0.853721854304636	1.92291390728477	1.8635761589404	-0.335629139072848				0.916026490066225	0.0514966887417219	0.309933774834437	1.3517880794702	-0.788079470198675	-0.0574834437086077				0.303788079470199	-0.318834437086093	-0.852238410596026	0.0203973509933773	0.997615894039735	0.0852980132450323			
49	1180	-0.200158940397351	0.0827549668874172	-0.951523178807947	-0.246622516556291	0.695364238410596	-1.18490066225166				0.944953642384106	0.143788079470199	0.285139072847682	1.55390728476821	-1.09218543046358	1.37403973509934				-0.266172185430464	-0.0332715231788079	-0.87194701986755	1.12741721854305	0.986490066225167	-1.04026490066225				0.432529801324503	-0.128529801324503	-0.869721854304636	1.92291390728477	1.8635761589404	-0.615629139072848				0.916026490066225	0.0674966887417219	0.325933774834437	0.791788079470198	-0.508079470198675	0.502516556291392				0.319788079470199	-0.318834437086093	-0.852238410596026	0.300397350993377	-0.122384105960265	0.0852980132450323			
50	1200	-0.200158940397351	0.0987549668874172	-0.935523178807947	-0.526622516556291	0.135364238410596	-1.18490066225166				0.960953642384106	0.143788079470199	0.301139072847682	0.433907284768212	-1.65218543046358	-0.30596026490066				-0.282172185430464	-0.0332715231788079	-0.87194701986755	1.12741721854305	0.146490066225167	-0.76026490066225				0.448529801324503	-0.128529801324503	-0.869721854304636	2.48291390728477	2.1435761589404	-0.335629139072848				0.916026490066225	0.0514966887417219	0.293933774834437	1.3517880794702	-0.228079470198675	-0.337483443708608				0.303788079470199	-0.334834437086093	-0.852238410596026	0.580397350993377	-0.122384105960265	-0.754701986754968			
51	1220	-0.216158940397351	0.0827549668874172	-0.935523178807947	0.873377483443709	0.135364238410596	-0.904900662251656				0.960953642384106	0.143788079470199	0.285139072847682	0.433907284768212	-2.49218543046358	0.25403973509934				-0.266172185430464	-0.0332715231788079	-0.87194701986755	0.847417218543046	-0.413509933774833	-0.48026490066225				0.448529801324503	-0.112529801324503	-0.869721854304636	0.242913907284768	1.0235761589404	-0.0556291390728476				0.932026490066225	0.0514966887417219	0.293933774834437	-0.0482119205298018	-0.788079470198675	-0.337483443708608				0.319788079470199	-0.318834437086093	-0.852238410596026	-0.259602649006623	0.157615894039735	0.925298013245032			
52	1240	-0.216158940397351	0.0987549668874172	-0.935523178807947	0.313377483443709	0.695364238410596	-0.904900662251656				0.960953642384106	0.143788079470199	0.285139072847682	1.55390728476821	-3.05218543046358	0.81403973509934				-0.266172185430464	-0.0332715231788079	-0.88794701986755	0.567417218543046	0.426490066225167	0.0797350993377501				0.448529801324503	-0.112529801324503	-0.853721854304636	0.802913907284768	1.0235761589404	1.06437086092715				0.932026490066225	0.0514966887417219	0.309933774834437	-0.608211920529802	-0.508079470198675	0.222516556291392				0.303788079470199	-0.318834437086093	-0.836238410596026	-0.259602649006623	0.717615894039735	-0.474701986754968			
53	1260	-0.216158940397351	0.0987549668874172	-0.951523178807947	-0.246622516556291	-0.424635761589404	-0.344900662251656				0.960953642384106	0.143788079470199	0.285139072847682	1.27390728476821	-2.77218543046358	0.81403973509934				-0.282172185430464	-0.0332715231788079	-0.87194701986755	0.567417218543046	-0.413509933774833	0.0797350993377501				0.448529801324503	-0.112529801324503	-0.853721854304636	1.08291390728477	1.0235761589404	0.784370860927152				0.932026490066225	0.0514966887417219	0.309933774834437	0.231788079470198	-0.228079470198675	0.502516556291392				0.303788079470199	-0.318834437086093	-0.836238410596026	0.580397350993377	0.157615894039735	-1.03470198675497			
54	1280	-0.216158940397351	0.0987549668874172	-0.951523178807947	0.313377483443709	0.135364238410596	-1.18490066225166				0.960953642384106	0.127788079470199	0.285139072847682	1.83390728476821	-1.93218543046358	1.09403973509934				-0.266172185430464	-0.0332715231788079	-0.88794701986755	0.847417218543046	-0.693509933774834	0.35973509933775				0.448529801324503	-0.112529801324503	-0.869721854304636	0.522913907284768	-0.3764238410596	0.504370860927152				0.932026490066225	0.0514966887417219	0.309933774834437	-0.328211920529802	-1.06807947019868	0.502516556291392				0.303788079470199	-0.318834437086093	-0.836238410596026	0.300397350993377	0.717615894039735	-0.194701986754968			
55	1300	-0.200158940397351	0.0987549668874172	-0.919523178807947	0.313377483443709	-0.144635761589404	-2.02490066225166				0.960953642384106	0.143788079470199	0.285139072847682	0.713907284768212	-2.21218543046358	0.25403973509934				-0.282172185430464	-0.0332715231788079	-0.87194701986755	-0.552582781456954	-0.413509933774833	0.35973509933775				0.432529801324503	-0.112529801324503	-0.853721854304636	1.36291390728477	0.7435761589404	0.224370860927152				0.916026490066225	0.0514966887417219	0.309933774834437	-0.0482119205298018	-0.228079470198675	0.502516556291392				0.287788079470199	-0.318834437086093	-0.852238410596026	0.0203973509933773	1.27761589403974	1.20529801324503			
56	1320	-0.200158940397351	0.0987549668874172	-0.935523178807947	0.313377483443709	0.415364238410596	-0.344900662251656				0.960953642384106	0.143788079470199	0.285139072847682	0.433907284768212	-2.49218543046358	-0.585960264900661				-0.266172185430464	-0.0332715231788079	-0.88794701986755	0.00741721854304636	-0.973509933774833	0.0797350993377501				0.448529801324503	-0.112529801324503	-0.853721854304636	-0.0370860927152318	1.3035761589404	0.224370860927152				0.932026490066225	0.0514966887417219	0.309933774834437	-0.328211920529802	0.331920529801325	-0.0574834437086077				0.303788079470199	-0.334834437086093	-0.836238410596026	0.300397350993377	1.55761589403974	0.365298013245032			
57	1340	-0.216158940397351	0.0987549668874172	-0.951523178807947	0.313377483443709	0.135364238410596	-1.74490066225166				0.944953642384106	0.143788079470199	0.285139072847682	0.433907284768212	-2.49218543046358	-0.30596026490066				-0.282172185430464	-0.0332715231788079	-0.87194701986755	0.847417218543046	-0.133509933774833	-0.20026490066225				0.432529801324503	-0.112529801324503	-0.853721854304636	0.802913907284768	1.5835761589404	0.504370860927152				0.916026490066225	0.0514966887417219	0.293933774834437	-1.1682119205298	-0.508079470198675	-0.617483443708608				0.303788079470199	-0.318834437086093	-0.836238410596026	0.0203973509933773	2.11761589403974	0.925298013245032			
58	1360	-0.200158940397351	0.0987549668874172	-0.951523178807947	-0.526622516556291	0.415364238410596	-1.74490066225166				0.944953642384106	0.143788079470199	0.285139072847682	1.55390728476821	-0.812185430463576	0.25403973509934				-0.266172185430464	-0.0332715231788079	-0.87194701986755	0.287417218543046	0.146490066225167	-0.20026490066225				0.448529801324503	-0.0965298013245033	-0.853721854304636	0.802913907284768	1.0235761589404	0.224370860927152				0.916026490066225	0.0514966887417219	0.293933774834437	-1.1682119205298	-0.788079470198675	0.502516556291392				0.303788079470199	-0.318834437086093	-0.836238410596026	0.0203973509933773	1.83761589403974	2.04529801324503			
59	1380	-0.216158940397351	0.0987549668874172	-0.951523178807947	-0.246622516556291	0.415364238410596	-1.46490066225166				0.944953642384106	0.143788079470199	0.285139072847682	0.993907284768212	-1.09218543046358	0.81403973509934				-0.266172185430464	-0.0332715231788079	-0.87194701986755	0.00741721854304636	-0.133509933774833	-0.20026490066225				0.448529801324503	-0.112529801324503	-0.869721854304636	1.36291390728477	0.7435761589404	0.784370860927152				0.916026490066225	0.0674966887417219	0.293933774834437	-0.0482119205298018	-0.788079470198675	-0.0574834437086077				0.303788079470199	-0.318834437086093	-0.836238410596026	0.300397350993377	1.27761589403974	1.76529801324503			
60	1400	-0.200158940397351	0.0827549668874172	-0.951523178807947	0.0333774834437086	0.415364238410596	-0.904900662251656				0.960953642384106	0.143788079470199	0.285139072847682	1.55390728476821	-0.812185430463576	-0.0259602649006601				-0.266172185430464	-0.0332715231788079	-0.87194701986755	0.567417218543046	-0.413509933774833	-0.20026490066225				0.432529801324503	-0.112529801324503	-0.869721854304636	-0.0370860927152318	1.0235761589404	0.784370860927152				0.916026490066225	0.0514966887417219	0.309933774834437	-0.0482119205298018	0.331920529801325	-0.0574834437086077				0.303788079470199	-0.318834437086093	-0.836238410596026	0.300397350993377	1.55761589403974	2.60529801324503			
61	1420	-0.200158940397351	0.0827549668874172	-0.951523178807947	-0.246622516556291	-0.424635761589404	-1.46490066225166				0.960953642384106	0.127788079470199	0.285139072847682	0.993907284768212	-2.21218543046358	0.81403973509934				-0.282172185430464	-0.0332715231788079	-0.88794701986755	0.00741721854304636	0.426490066225167	-0.20026490066225				0.432529801324503	-0.112529801324503	-0.853721854304636	-0.597086092715232	1.5835761589404	1.34437086092715				0.916026490066225	0.0514966887417219	0.277933774834437	-1.4482119205298	-1.06807947019868	-0.0574834437086077				0.303788079470199	-0.318834437086093	-0.836238410596026	-0.539602649006623	1.55761589403974	3.72529801324503			
62	1440	-0.200158940397351	0.0827549668874172	-0.951523178807947	-1.08662251655629	0.415364238410596	-1.74490066225166				0.944953642384106	0.127788079470199	0.269139072847682	0.993907284768212	-1.09218543046358	0.81403973509934				-0.266172185430464	-0.0332715231788079	-0.87194701986755	-0.272582781456954	0.426490066225167	-0.20026490066225				0.432529801324503	-0.112529801324503	-0.869721854304636	-0.317086092715232	1.8635761589404	1.06437086092715				0.916026490066225	0.0514966887417219	0.309933774834437	-2.2882119205298	0.611920529801325	-0.897483443708608				0.303788079470199	-0.318834437086093	-0.836238410596026	-0.539602649006623	2.95761589403974	4.28529801324503			
63	1460	-0.200158940397351	0.0827549668874172	-0.935523178807947	-1.64662251655629	-0.144635761589404	-0.344900662251656				0.944953642384106	0.143788079470199	0.253139072847682	-0.126092715231788	0.867814569536424	0.25403973509934				-0.266172185430464	-0.0332715231788079	-0.87194701986755	-0.552582781456954	-0.133509933774833	-0.20026490066225				0.432529801324503	-0.112529801324503	-0.853721854304636	1.36291390728477	3.2635761589404	1.34437086092715				0.916026490066225	0.0514966887417219	0.309933774834437	-2.8482119205298	0.891920529801325	-0.897483443708608				0.303788079470199	-0.318834437086093	-0.836238410596026	0.580397350993377	1.55761589403974	4.28529801324503			
64	1480	-0.216158940397351	0.0827549668874172	-0.935523178807947	-1.08662251655629	-0.984635761589404	-1.18490066225166				0.960953642384106	0.143788079470199	0.301139072847682	-2.36609271523179	-0.252185430463576	0.81403973509934				-0.282172185430464	-0.0332715231788079	-0.87194701986755	-0.552582781456954	-0.413509933774833	-1.04026490066225				0.416529801324503	-0.112529801324503	-0.837721854304636	1.64291390728477	5.2235761589404	1.90437086092715				0.916026490066225	0.0514966887417219	0.293933774834437	-5.3682119205298	2.29192052980133	-1.73748344370861				0.287788079470199	-0.318834437086093	-0.836238410596026	0.300397350993377	3.23761589403974	4.84529801324503			
65	1500	-0.216158940397351	0.0987549668874172	-0.951523178807947	-1.08662251655629	-0.424635761589404	-0.904900662251656				0.960953642384106	0.127788079470199	0.317139072847682	-0.966092715231788	-3.33218543046358	1.09403973509934				-0.266172185430464	-0.0332715231788079	-0.88794701986755	-0.552582781456954	-1.53350993377483	-1.04026490066225				0.432529801324503	-0.128529801324503	-0.853721854304636	2.48291390728477	5.5035761589404	2.46437086092715				0.932026490066225	0.0514966887417219	0.309933774834437	-3.4082119205298	0.611920529801325	-1.17748344370861				0.303788079470199	-0.318834437086093	-0.852238410596026	0.300397350993377	2.11761589403974	5.40529801324503			
66	1520	-0.216158940397351	0.0987549668874172	-0.951523178807947	-1.36662251655629	-0.984635761589404	-0.624900662251656				0.976953642384106	0.127788079470199	0.269139072847682	-0.686092715231788	-4.45218543046358	0.25403973509934				-0.266172185430464	-0.0172715231788079	-0.87194701986755	-0.272582781456954	-0.693509933774834	-0.20026490066225				0.448529801324503	-0.128529801324503	-0.853721854304636	8.08291390728477	-0.6564238410596	2.74437086092715				0.932026490066225	0.0354966887417219	0.293933774834437	-6.2082119205298	3.13192052980133	-1.45748344370861				0.303788079470199	-0.350834437086093	-0.868238410596026	1.42039735099338	1.55761589403974	4.84529801324503			
67	1540	-0.216158940397351	0.0827549668874172	-0.951523178807947	-0.526622516556291	-0.144635761589404	-0.904900662251656				0.976953642384106	0.143788079470199	0.253139072847682	0.153907284768212	-2.49218543046358	-0.30596026490066				-0.282172185430464	-0.0332715231788079	-0.87194701986755	-0.552582781456954	-0.133509933774833	-0.48026490066225				0.432529801324503	-0.128529801324503	-0.885721854304636	8.08291390728477	-2.3364238410596	4.98437086092715				0.932026490066225	0.0514966887417219	0.293933774834437	-7.8882119205298	4.25192052980133	-0.617483443708608				0.319788079470199	-0.350834437086093	-0.852238410596026	1.14039735099338	0.157615894039735	6.24529801324503			
68	1560	-0.232158940397351	0.0987549668874172	-0.951523178807947	-0.806622516556291	0.975364238410596	-0.904900662251656				0.976953642384106	0.143788079470199	0.269139072847682	-0.126092715231788	-3.61218543046358	0.25403973509934				-0.298172185430464	-0.0332715231788079	-0.87194701986755	-0.272582781456954	-0.973509933774833	0.63973509933775				0.432529801324503	-0.160529801324503	-0.901721854304636	4.44291390728477	0.4635761589404	6.38437086092715				0.948026490066225	0.0354966887417219	0.309933774834437	-8.4482119205298	4.53192052980133	-1.73748344370861				0.303788079470199	-0.366834437086093	-0.868238410596026	-0.259602649006623	3.23761589403974	10.725298013245			
69	1580	-0.216158940397351	0.0987549668874172	-0.935523178807947	-1.64662251655629	0.135364238410596	-0.624900662251656				0.976953642384106	0.127788079470199	0.253139072847682	0.433907284768212	-7.25218543046358	-0.0259602649006601				-0.282172185430464	-0.0332715231788079	-0.88794701986755	0.287417218543046	0.426490066225167	-0.76026490066225				0.416529801324503	-0.176529801324503	-0.901721854304636	2.76291390728477	-2.6164238410596	7.22437086092715				0.948026490066225	0.0194966887417219	0.277933774834437	-10.1282119205298	4.25192052980133	-2.01748344370861				0.303788079470199	-0.366834437086093	-0.868238410596026	-2.21960264900662	1.83761589403974	10.165298013245			
70	1600	-0.216158940397351	0.0827549668874172	-0.935523178807947	-2.48662251655629	0.415364238410596	-0.344900662251656				0.992953642384106	0.127788079470199	0.237139072847682	-2.36609271523179	-10.8921854304636	-1.42596026490066				-0.266172185430464	-0.0332715231788079	-0.85594701986755	-0.272582781456954	0.146490066225167	-1.32026490066225				0.416529801324503	-0.160529801324503	-0.917721854304636	-0.597086092715232	-2.3364238410596	9.18437086092715				0.948026490066225	0.0194966887417219	0.277933774834437	-12.3682119205298	3.13192052980133	-3.13748344370861				0.271788079470199	-0.366834437086093	-0.868238410596026	-7.81960264900662	4.91761589403974	13.245298013245			
71	1620	-0.216158940397351	0.0667549668874172	-0.935523178807947	-3.60662251655629	0.975364238410596	0.215099337748344				1.00895364238411	0.143788079470199	0.221139072847682	-2.36609271523179	-12.8521854304636	-0.86596026490066				-0.282172185430464	-0.0172715231788079	-0.87194701986755	-0.832582781456954	-0.133509933774833	-1.88026490066225				0.416529801324503	-0.192529801324503	-0.901721854304636	-3.95708609271523	0.1835761589404	10.8643708609272				0.948026490066225	0.0354966887417219	0.261933774834437	-11.8082119205298	2.01192052980133	-3.13748344370861				0.255788079470199	-0.366834437086093	-0.852238410596026	-13.1396026490066	4.63761589403974	18.285298013245			
72	1640	-0.232158940397351	0.0827549668874172	-0.951523178807947	-4.44662251655629	1.5353642384106	1.05509933774834				0.976953642384106	0.143788079470199	0.221139072847682	-4.88609271523179	-12.2921854304636	-1.98596026490066				-0.282172185430464	-0.0172715231788079	-0.90394701986755	-0.552582781456954	1.26649006622517	-2.16026490066225				0.400529801324503	-0.192529801324503	-0.901721854304636	-2.55708609271523	-4.0164238410596	9.46437086092715				0.948026490066225	0.0354966887417219	0.261933774834437	-12.9282119205298	4.25192052980133	-1.73748344370861				0.255788079470199	-0.318834437086093	-0.884238410596026	-17.3396026490066	6.03761589403974	21.085298013245			
73	1660	-0.232158940397351	0.0827549668874172	-0.951523178807947	-4.16662251655629	1.5353642384106	0.775099337748344				0.960953642384106	0.159788079470199	0.253139072847682	-6.56609271523179	-6.13218543046358	-0.86596026490066				-0.282172185430464	-0.0332715231788079	-0.90394701986755	1.12741721854305	0.706490066225167	-2.72026490066225				0.384529801324503	-0.176529801324503	-0.901721854304636	-3.95708609271523	-3.7364238410596	10.8643708609272				0.948026490066225	0.0354966887417219	0.261933774834437	-16.0082119205298	7.05192052980133	-1.73748344370861				0.255788079470199	-0.318834437086093	-0.900238410596026	-14.8196026490066	7.43761589403974	22.205298013245			
74	1680	-0.200158940397351	0.0987549668874172	-0.951523178807947	-3.60662251655629	1.5353642384106	2.17509933774834				0.960953642384106	0.111788079470199	0.253139072847682	-5.44609271523179	-2.77218543046358	-0.30596026490066				-0.250172185430464	-0.0172715231788079	-0.87194701986755	1.96741721854305	1.82649006622517	-4.12026490066225				0.384529801324503	-0.176529801324503	-0.917721854304636	-5.07708609271523	-7.0964238410596	10.8643708609272				0	0	0	0	0	0				0.255788079470199	-0.318834437086093	-0.884238410596026	-10.6196026490066	9.67761589403974	22.765298013245			
75	1700	-0.200158940397351	0.0667549668874172	-0.951523178807947	0.873377483443709	2.0953642384106	3.01509933774834				1.00895364238411	0.111788079470199	0.237139072847682	-6.56609271523179	0.867814569536424	-1.70596026490066				-0.266172185430464	-0.00127152317880793	-0.88794701986755	1.96741721854305	0.146490066225167	-4.12026490066225				0.400529801324503	-0.224529801324503	-0.949721854304636	-9.83708609271523	-8.7764238410596	10.8643708609272				0.948026490066225	0.0194966887417219	0.261933774834437	-15.4482119205298	7.89192052980133	-3.13748344370861				0.239788079470199	-0.302834437086093	-0.932238410596026	-6.69960264900662	10.5176158940397	22.205298013245			
76	1720	-0.200158940397351	0.114754966887417	-0.951523178807947	5.63337748344371	1.5353642384106	5.25509933774834				1.05695364238411	0.159788079470199	0.205139072847682	-14.1260927152318	-2.77218543046358	-3.10596026490066				-0.298172185430464	-0.00127152317880793	-0.88794701986755	1.68741721854305	1.26649006622517	-2.72026490066225				0.384529801324503	-0.224529801324503	-0.949721854304636	-14.5970860927152	-10.4564238410596	11.1443708609272				0.948026490066225	0.0354966887417219	0.229933774834437	-17.6882119205298	9.57192052980133	-4.25748344370861				0.271788079470199	-0.334834437086093	-0.932238410596026	6.46039735099338	-4.88238410596027	29.205298013245			
77	1740	-0.216158940397351	0.114754966887417	-0.935523178807947	-3.04662251655629	2.6553642384106	4.97509933774835				1.02495364238411	0.207788079470199	0.189139072847682	-16.3660927152318	-9.77218543046358	-0.0259602649006601				-0.314172185430464	-0.0172715231788079	-0.90394701986755	5.32741721854305	2.66649006622517	-4.40026490066225				0.336529801324503	-0.208529801324503	-0.981721854304636	-22.9970860927152	-16.0564238410596	12.5443708609272				0.948026490066225	0.0514966887417219	0.229933774834437	-13.4882119205298	12.9319205298013	-5.09748344370861				0.239788079470199	-0.446834437086093	-0.980238410596026	7.02039735099338	-17.2023841059603	42.365298013245			
78	1760	-0.184158940397351	0.130754966887417	-0.935523178807947	-3.32662251655629	3.7753642384106	4.97509933774835				0.992953642384106	0.207788079470199	0.157139072847682	-9.08609271523179	-13.4121854304636	3.33403973509934				-0.282172185430464	-0.00127152317880793	-0.88794701986755	7.28741721854305	4.06649006622517	-6.08026490066225				0.336529801324503	-0.208529801324503	-0.997721854304636	-27.4770860927152	-23.0564238410596	14.7843708609272				0.980026490066225	0.0354966887417219	0.245933774834437	-14.3282119205298	18.2519205298013	-5.37748344370861				0.255788079470199	-0.430834437086093	-0.996238410596026	-4.45960264900662	-13.8423841059603	53.565298013245			
79	1780	-0.136158940397351	0.130754966887417	-0.967523178807947	-3.32662251655629	4.3353642384106	5.25509933774834				1.00895364238411	0.143788079470199	0.125139072847682	4.35390728476821	-20.6921854304636	0.53403973509934				-0.234172185430464	0.0147284768211921	-0.87194701986755	7.56741721854305	3.22649006622517	-6.36026490066225				0.368529801324503	-0.240529801324503	-1.01372185430464	-27.7570860927152	-29.7764238410596	21.2243708609272				1.02802649006623	0.0194966887417219	0.229933774834437	-20.7682119205298	17.4119205298013	-6.49748344370861				0.255788079470199	-0.270834437086093	-1.01223841059603	6.74039735099338	-15.8023841059603	60.285298013245			
80	1800	-0.136158940397351	0.162754966887417	-0.951523178807947	-0.526622516556291	3.2153642384106	4.69509933774834				1.08895364238411	0.159788079470199	0.0931390728476822	-1.52609271523179	-15.3721854304636	8.65403973509934				-0.202172185430464	-0.0172715231788079	-0.85594701986755	6.72741721854305	1.82649006622517	-6.08026490066225				0.416529801324503	-0.224529801324503	-1.09372185430464	-26.3570860927152	-34.2564238410596	29.6243708609272				1.06002649006623	0.00349668874172187	0.229933774834437	-17.6882119205298	12.0919205298013	-7.89748344370861				0.191788079470199	-0.238834437086093	-1.06023841059603	27.4603973509934	-35.9623841059603	63.085298013245			
81	1820	-0.184158940397351	0.226754966887417	-0.951523178807947	2.83337748344371	4.6153642384106	3.29509933774834				0.880953642384106	0.287788079470199	0.0131390728476822	-39.6060927152318	26.6278145695364	14.5340397350993				-0.250172185430464	-0.0972715231788079	-0.88794701986755	7.00741721854305	1.26649006622517	-8.60026490066225				0.416529801324503	-0.208529801324503	-1.09372185430464	-32.7970860927152	-43.2164238410596	37.4643708609272				1.04402649006623	0.0674966887417219	0.197933774834437	-17.1282119205298	5.09192052980133	-8.17748344370861				0.191788079470199	-0.318834437086093	-1.04423841059603	41.7403973509934	-50.2423841059603	60.845298013245			
82	1840	-0.216158940397351	0.226754966887417	-0.919523178807947	3.11337748344371	5.1753642384106	-3.98490066225166				0.896953642384106	0.383788079470199	0.285139072847682	-17.7660927152318	39.7878145695364	24.0540397350993				-0.298172185430464	-0.161271523178808	-0.91994701986755	8.12741721854305	0.706490066225167	-8.88026490066225				0.400529801324503	-0.112529801324503	-1.10972185430464	-34.1970860927152	-56.9364238410596	38.3043708609272				1.09202649006623	0.131496688741722	0.213933774834437	-14.3282119205298	4.25192052980133	-9.85748344370861				0.0797880794701987	-0.414834437086093	-1.02823841059603	51.2603973509934	-61.1623841059603	63.645298013245			
83	1860	-0.248158940397351	0.210754966887417	-0.983523178807947	-5.00662251655629	4.6153642384106	-10.9849006622517				1.15295364238411	0.0317880794701987	0.157139072847682	-7.68609271523179	18.5078145695364	43.3740397350993				-0.298172185430464	-0.129271523178808	-0.95194701986755	8.68741721854305	0.986490066225167	-3.28026490066225				0.400529801324503	-0.0165298013245033	-1.18972185430464	-21.8770860927152	-64.7764238410596	32.4243708609272				1.22002649006623	0.0834966887417219	0.245933774834437	-2.8482119205298	3.97192052980133	-11.2574834437086				-0.0322119205298013	-0.462834437086093	-1.01223841059603	24.1003973509934	-51.0823841059603	61.125298013245			
84	1880	-0.328158940397351	0.130754966887417	-1.30352317880795	-10.0466225165563	14.4153642384106	-10.4249006622517				1.08895364238411	-0.0962119205298013	0.237139072847682	-30.3660927152318	68.0678145695364	36.0940397350993				-0.330172185430464	-0.353271523178808	-0.91994701986755	1.40741721854305	-0.973509933774833	8.19973509933775				0.432529801324503	-0.0645298013245033	-1.15772185430464	-21.8770860927152	-64.2164238410596	27.1043708609272				1.33202649006623	0.0194966887417219	0.309933774834437	11.4317880794702	1.73192052980133	-5.65748344370861				-0.0482119205298013	-0.382834437086093	-1.07623841059603	-7.25960264900662	-41.5623841059603	59.725298013245			
85	1900	-0.360158940397351	0.00275496688741723	-0.951523178807947	4.23337748344371	29.8153642384106	-7.90490066225166				1.13695364238411	0.287788079470199	0.0931390728476822	-19.7260927152318	60.7878145695364	21.5340397350993				-0.458172185430464	-0.481271523178808	-1.22394701986755	-4.75258278145695	16.3864900662252	24.1597350993378				0.384529801324503	-0.0805298013245033	-1.18972185430464	-14.5970860927152	-60.0164238410596	27.6643708609272				1.33202649006623	0.0674966887417219	0.373933774834437	25.4317880794702	-16.1880794701987	-1.73748344370861				0.0157880794701987	-0.350834437086093	-1.17223841059603	-9.49960264900662	-31.4823841059603	44.045298013245			
86	1920	-0.440158940397351	-0.0932450331125828	-0.999523178807947	1.99337748344371	32.0553642384106	-3.98490066225166				1.23295364238411	0.239788079470199	0.445139072847682	3.51390728476821	58.8278145695364	25.7340397350993				-0.554172185430464	-0.145271523178808	-1.04794701986755	8.12741721854305	47.1864900662252	23.8797350993378				0.288529801324503	-0.0645298013245033	-1.04572185430464	-5.63708609271523	-34.2564238410596	16.1843708609272				1.23602649006623	0.163496688741722	0.373933774834437	40.5517880794702	-17.8680794701987	-9.01748344370861				0.0317880794701987	-0.334834437086093	-1.07623841059603	-9.49960264900662	-23.9223841059603	35.925298013245			
87	1940	0	0	0	0	0	0				0	0	0	0	0	0				0	0	0	0	0	0				0.416529801324503	0.127470198675497	-0.917721854304636	-13.1970860927152	-13.2564238410596	-3.69562913907285				0.996026490066225	0.307496688741722	0.485933774834437	50.3517880794702	-8.06807947019868	-8.45748344370861				-0.0162119205298013	-0.430834437086093	-0.980238410596026	11.7803973509934	-21.1223841059603	30.045298013245			
88	1960	0	0	0	0	0	0				0	0	0	0	0	0				0	0	0	0	0	0				0.576529801324503	-0.208529801324503	-0.581721854304636	-6.19708609271523	-4.0164238410596	-9.01562913907285				0.820026490066225	-0.172503311258278	0.549933774834437	22.6317880794702	3.69192052980133	-3.69748344370861				0.559788079470199	-0.574834437086093	-0.724238410596026	-1.37960264900662	8.83761589403974	0.365298013245032			
89	1980	0	0	0	0	0	0				0.880953642384106	0.0157880794701987	0.317139072847682	14.4339072847682	3.94781456953642	-4.50596026490066				0.901827814569536	0.0307284768211921	-0.29594701986755	-19.592582781457	41.3064900662252	5.11973509933775				0.592529801324503	-0.144529801324503	-0.613721854304636	-5.07708609271523	-3.7364238410596	-8.45562913907285				0.804026490066225	-0.124503311258278	0.533933774834437	9.1917880794702	0.331920529801325	-2.57748344370861				0.655788079470199	-0.494834437086093	-0.756238410596026	-6.41960264900662	5.47761589403974	0.0852980132450323			
90	2000	0.903841059602649	0.0347549668874172	-0.311523178807947	-6.68662251655629	44.3753642384106	13.9350993377483				0.928953642384106	-0.000211920529801304	0.349139072847682	15.8339072847682	6.74781456953642	-3.94596026490066				1.23782781456954	0.0147284768211921	-0.24794701986755	-16.232582781457	32.6264900662252	6.23973509933775				0.656529801324503	-0.192529801324503	-0.597721854304636	3.88291390728477	-5.4164238410596	-4.25562913907285				0.788026490066225	-0.0285033112582781	0.485933774834437	2.7517880794702	-3.02807947019868	0.222516556291392				0.559788079470199	-0.398834437086093	-0.708238410596026	-1.37960264900662	4.91761589403974	1.20529801324503			
91	2020	0.935841059602649	0.0827549668874172	-0.263523178807947	-7.52662251655629	33.7353642384106	10.5750993377483				0.960953642384106	-0.0642119205298013	0.253139072847682	2.39390728476821	-13.6921854304636	-5.90596026490066				0.917827814569536	0.0147284768211921	-0.27994701986755	-0.272582781456954	21.4264900662252	2.31973509933775				0.672529801324503	-0.240529801324503	-0.629721854304636	5.56291390728477	-12.1364238410596	-1.17562913907285				0.804026490066225	-0.0765033112582781	0.517933774834437	6.3917880794702	-6.38807947019868	-0.337483443708608				0.447788079470199	-0.350834437086093	-0.612238410596026	8.70039735099338	-2.08238410596027	1.76529801324503			
92	2040	0.887841059602649	0.114754966887417	-0.183523178807947	-15.3666225165563	26.1753642384106	6.09509933774834				0.896953642384106	0.0157880794701987	0.269139072847682	-6.84609271523179	-25.1721854304636	-8.14596026490066				0.917827814569536	-0.0332715231788079	-0.26394701986755	-3.91258278145695	20.8664900662252	3.15973509933775				0.576529801324503	-0.224529801324503	-0.661721854304636	-5.35708609271523	-13.8164238410596	-3.41562913907285				0.788026490066225	-0.124503311258278	0.485933774834437	6.6717880794702	-3.58807947019868	-3.13748344370861				0.463788079470199	-0.366834437086093	-0.628238410596026	9.54039735099338	-3.48238410596027	-0.474701986754968			
93	2060	0.903841059602649	0.0987549668874172	-0.215523178807947	-10.0466225165563	24.7753642384106	3.01509933774834				0.912953642384106	0.0797880794701987	0.285139072847682	-9.08609271523179	-11.7321854304636	-7.30596026490066				0.965827814569536	-0.0652715231788079	-0.32794701986755	-13.432582781457	14.7064900662252	2.87973509933775				0.544529801324503	-0.224529801324503	-0.645721854304636	-0.877086092715232	-5.9764238410596	-0.895629139072848				0.836026490066225	-0.0925033112582781	0.469933774834437	7.2317880794702	-3.58807947019868	-4.53748344370861				0.511788079470199	-0.382834437086093	-0.676238410596026	2.54039735099338	-3.20238410596026	-7.47470198675497			
94	2080	1.01584105960265	0.114754966887417	-0.183523178807947	-3.88662251655629	23.0953642384106	-0.344900662251656				1.05695364238411	-0.000211920529801304	0.685139072847682	-39.6060927152318	4.78781456953642	-9.82596026490066				-0.0741721854304636	-0.129271523178808	-1.03194701986755	7.00741721854305	85.5464900662252	-3.56026490066225				0	0	0	0	0	0				0.996026490066225	0.147496688741722	0.565933774834437	-14.6082119205298	0.611920529801325	1.34251655629139				0.159788079470199	-0.462834437086093	-0.804238410596027	14.8603973509934	25.6376158940397	7.92529801324503			
95	2100	0.215841059602649	0.258754966887417	-1.04752317880795	-10.6066225165563	89.7353642384106	15.6150993377483				1.18495364238411	-0.0162119205298013	0.829139072847682	5.75390728476821	21.8678145695364	-0.585960264900661				0.0538278145695364	-0.193271523178808	-0.99994701986755	-2.79258278145695	91.1464900662252	3.43973509933775				0.464529801324503	-0.128529801324503	-1.04572185430464	13.9629139072848	34.0635761589404	28.7843708609272				1.10802649006623	0.179496688741722	0.517933774834437	-14.3282119205298	5.37192052980133	-5.65748344370861				0.0637880794701987	-0.558834437086093	-0.836238410596026	6.18039735099338	29.2776158940397	7.08529801324503			
96	2120	0.311841059602649	0.274754966887417	-1.06352317880795	-17.8866225165563	93.3753642384106	14.2150993377483				1.16895364238411	0.0637880794701987	0.701139072847682	39.6339072847682	-9.49218543046358	-3.94596026490066				0.149827814569536	-0.0972715231788079	-0.98394701986755	-20.152582781457	94.7864900662252	-0.48026490066225				0.496529801324503	-0.128529801324503	-1.04572185430464	12.0029139072848	43.8635761589404	25.4243708609272				1.06002649006623	0.243496688741722	0.453933774834437	-12.0882119205298	5.93192052980133	-7.61748344370861				0.0637880794701987	-0.510834437086093	-0.852238410596026	-28.2596026490066	51.9576158940397	-4.95470198675497			
97	2140	0.247841059602649	0.322754966887417	-1.03152317880795	7.03337748344371	100.935364238411	14.4950993377483				1.15295364238411	-0.000211920529801304	0.461139072847682	10.2339072847682	-44.4921854304636	-6.46596026490066				0.165827814569536	0.0787284768211921	-0.95194701986755	-13.152582781457	100.666490066225	-1.88026490066225				0.528529801324503	-0.160529801324503	-1.06172185430464	6.68291390728477	43.3035761589404	22.9043708609272				1.07602649006623	0.147496688741722	0.421933774834437	-12.0882119205298	13.4919205298013	-7.61748344370861				0.143788079470199	-0.414834437086093	-0.916238410596027	-45.3396026490066	63.9976158940397	-15.034701986755			
98	2160	0.199841059602649	0.130754966887417	-0.967523178807947	26.3533774834437	108.775364238411	14.4950993377483				1.05695364238411	-0.112211920529801	0.445139072847682	-2.08609271523179	-27.1321854304636	-5.90596026490066				0.165827814569536	0.110728476821192	-0.95194701986755	14.287417218543	106.546490066225	-3.28026490066225				0.528529801324503	-0.128529801324503	-0.965721854304636	12.0029139072848	53.3835761589404	14.7843708609272				1.06002649006623	0.0994966887417219	0.501933774834437	-5.9282119205298	5.37192052980133	-4.81748344370861				0.255788079470199	-0.366834437086093	-0.932238410596026	-48.1396026490066	74.0776158940397	-15.314701986755			
99	2180	0.279841059602649	0.0187549668874172	-0.951523178807947	5.07337748344371	118.855364238411	8.89509933774834				0.960953642384106	0.127788079470199	0.477139072847682	16.6739072847682	-23.2121854304636	5.85403973509934				0.181827814569536	-0.00127152317880793	-0.93594701986755	22.967417218543	111.586490066225	-3.84026490066225				0.496529801324503	-0.112529801324503	-0.901721854304636	20.6829139072848	56.4635761589404	10.0243708609272				0.996026490066225	0.179496688741722	0.469933774834437	-15.7282119205298	-4.14807947019868	-2.57748344370861				0.319788079470199	-0.398834437086093	-0.916238410596027	-47.0196026490066	76.3176158940397	-16.154701986755			
100	2200	0.359841059602649	0.130754966887417	-0.919523178807947	-13.4066225165563	123.615364238411	10.0150993377483				1.13695364238411	0.143788079470199	0.493139072847682	18.6339072847682	-54.0121854304636	6.97403973509934				0.149827814569536	-0.0812715231788079	-0.90394701986755	20.1674172185431	116.626490066225	-2.72026490066225				0.464529801324503	-0.128529801324503	-0.917721854304636	17.8829139072848	53.1035761589404	8.06437086092715				0.964026490066225	0.163496688741722	0.373933774834437	-22.1682119205298	-1.62807947019868	-5.37748344370861				0.351788079470199	-0.430834437086093	-0.868238410596026	-36.6596026490066	78.5576158940397	-21.754701986755			
101	2220	0.311841059602649	0.242754966887417	-0.855523178807947	-3.60662251655629	123.615364238411	13.9350993377483				1.04095364238411	0.143788079470199	0.173139072847682	21.4339072847682	-80.0521854304636	-14.3059602649007				0.149827814569536	-0.0492715231788079	-0.87194701986755	10.087417218543	120.266490066225	-3.00026490066225				0.384529801324503	-0.112529801324503	-0.869721854304636	13.1229139072848	50.5835761589404	1.90437086092715				0.964026490066225	0.0834966887417219	0.357933774834437	-8.7282119205298	0.891920529801325	-0.0574834437086077				0.351788079470199	-0.398834437086093	-0.868238410596026	-32.4596026490066	77.9976158940397	-15.034701986755			
102	2240	0.343841059602649	0.146754966887417	-0.871523178807947	10.3933774834437	121.655364238411	17.0150993377483				0.976953642384106	-0.000211920529801304	0.269139072847682	37.1139072847682	-53.1721854304636	-4.22596026490066				0.149827814569536	0.0147284768211921	-0.79194701986755	-3.35258278145695	117.186490066225	-2.44026490066225				0.448529801324503	-0.224529801324503	-0.757721854304636	23.2029139072848	58.9835761589404	13.1043708609272				0.916026490066225	0.131496688741722	0.405933774834437	-10.4082119205298	-6.10807947019868	1.06251655629139				0.351788079470199	-0.302834437086093	-0.868238410596026	-26.8596026490066	77.1576158940397	-11.114701986755			
103	2260	0.343841059602649	0.0667549668874172	-0.887523178807947	7.59337748344371	119.695364238411	17.5750993377483				1.00895364238411	-0.0482119205298013	0.717139072847682	58.3939072847682	-38.0521854304636	0.25403973509934				0.229827814569536	0.0627284768211921	-0.85594701986755	0.287417218543046	118.026490066225	-2.44026490066225				0.464529801324503	-0.272529801324503	-0.741721854304636	25.1629139072848	65.4235761589404	22.9043708609272				0.852026490066225	0.115496688741722	0.373933774834437	-10.4082119205298	-9.18807947019868	1.90251655629139				0.335788079470199	-0.270834437086093	-0.756238410596026	-29.3796026490066	86.1176158940397	-8.03470198675497			
104	2280	0.247841059602649	0.0987549668874172	-0.839523178807947	8.99337748344371	117.735364238411	17.8550993377483				0.800953642384106	-0.0162119205298013	0.189139072847682	48.8739072847682	-70.2521854304636	-4.78596026490066				0.293827814569536	0.110728476821192	-0.77594701986755	8.40741721854305	118.026490066225	-5.80026490066225				0.320529801324503	-0.0965298013245033	-0.741721854304636	31.6029139072848	65.7035761589404	19.8243708609272				0.852026490066225	-0.0605033112582781	0.325933774834437	-7.8882119205298	-11.9880794701987	2.46251655629139				0.287788079470199	-0.254834437086093	-0.724238410596026	-32.1796026490066	83.8776158940397	-8.59470198675497			
105	2300	0.295841059602649	0.114754966887417	-0.791523178807947	5.63337748344371	111.855364238411	14.4950993377483				0.704953642384106	0.0477880794701987	-0.306860927152318	5.75390728476821	-48.6921854304636	-18.7859602649007				0.325827814569536	0.0467284768211921	-0.74394701986755	8.96741721854305	118.586490066225	-9.72026490066225				0.384529801324503	-0.176529801324503	-0.677721854304636	47.8429139072848	58.1435761589404	22.3443708609272				0.756026490066225	-0.0285033112582781	0.309933774834437	-20.2082119205298	-22.9080794701987	2.18251655629139				0.367788079470199	-0.238834437086093	-0.772238410596026	-31.3396026490066	77.7176158940397	-18.674701986755			
106	2320	0.423841059602649	0.0987549668874172	-0.791523178807947	-0.806622516556291	110.175364238411	8.61509933774835				0.976953642384106	0.191788079470199	0.221139072847682	10.5139072847682	-2.21218543046358	-7.02596026490066				0.373827814569536	-0.00127152317880793	-0.75994701986755	6.16741721854305	114.666490066225	-11.9602649006623				0.528529801324503	-0.368529801324503	-0.709721854304636	24.0429139072848	36.3035761589404	20.6643708609272				0.724026490066225	0.0994966887417219	0.229933774834437	-34.4882119205298	-25.4280794701987	-3.41748344370861				0.303788079470199	-0.270834437086093	-0.708238410596026	-22.0996026490066	71.8376158940397	-23.434701986755			
107	2340	0.551841059602649	0.130754966887417	-0.727523178807947	-6.12662251655629	108.775364238411	6.65509933774834				0.928953642384106	0.0637880794701987	0.381139072847682	34.5939072847682	-47.0121854304636	0.25403973509934				0.437827814569536	0.0307284768211921	-0.75994701986755	12.607417218543	119.146490066225	-13.6402649006623				0.544529801324503	-0.288529801324503	-0.693721854304636	1.36291390728477	29.5835761589404	8.06437086092715				0.788026490066225	0.115496688741722	0.261933774834437	-23.8482119205298	-10.8680794701987	-6.21748344370861				0.335788079470199	-0.286834437086093	-0.740238410596026	-43.3796026490066	72.1176158940397	-12.514701986755			
108	2360	0.583841059602649	0.194754966887417	-0.631523178807947	-0.246622516556291	107.095364238411	8.33509933774834				0.800953642384106	-0.0482119205298013	-0.00286092715231785	22.2739072847682	-63.5321854304636	-6.74596026490066				0.485827814569536	0.0307284768211921	-0.66394701986755	17.647417218543	119.986490066225	-13.9202649006623				0.480529801324503	-0.160529801324503	-0.613721854304636	15.9229139072848	36.0235761589404	0.504370860927152				0.852026490066225	0.0194966887417219	0.293933774834437	-7.6082119205298	-13.1080794701987	-2.01748344370861				0.367788079470199	-0.206834437086093	-0.756238410596026	-48.6996026490066	63.4376158940397	-9.99470198675497			
109	2380	0.567841059602649	0.162754966887417	-0.679523178807947	-5.28662251655629	109.055364238411	12.5350993377483				0.656953642384106	0.127788079470199	-0.00286092715231785	13.0339072847682	-65.4921854304636	-22.9859602649007				0.453827814569536	-0.0172715231788079	-0.64794701986755	0.847417218543046	121.946490066225	-15.8802649006623				0.464529801324503	-0.176529801324503	-0.645721854304636	28.2429139072848	30.9835761589404	3.58437086092715				0.804026490066225	0.0674966887417219	0.261933774834437	-25.5282119205298	-23.4680794701987	-2.29748344370861				0.383788079470199	-0.126834437086093	-0.740238410596026	-33.8596026490066	53.0776158940397	-16.714701986755			
110	2400	0.551841059602649	0.0827549668874172	-0.695523178807947	-13.9666225165563	111.295364238411	14.2150993377483				0.688953642384106	0.191788079470199	0.237139072847682	3.51390728476821	-44.4921854304636	-15.7059602649007				0.485827814569536	0.0467284768211921	-0.56794701986755	-5.03258278145695	119.706490066225	-15.0402649006623				0.480529801324503	-0.240529801324503	-0.597721854304636	17.3229139072848	20.9035761589404	4.42437086092715				0.676026490066225	0.0994966887417219	0.245933774834437	-33.6482119205298	-41.6680794701987	-2.57748344370861				0.351788079470199	-0.174834437086093	-0.756238410596026	-2.21960264900662	35.9976158940397	-16.154701986755			
111	2420	0.615841059602649	0.194754966887417	-0.615523178807947	-3.60662251655629	109.055364238411	8.61509933774835				0.992953642384106	0.0637880794701987	0.237139072847682	24.2339072847682	-43.0921854304636	-3.10596026490066				0.517827814569536	0.0307284768211921	-0.51994701986755	-0.272582781456954	119.426490066225	-11.9602649006623				0.464529801324503	-0.224529801324503	-0.565721854304636	14.5229139072848	18.1035761589404	-2.57562913907285				0.724026490066225	0.131496688741722	0.261933774834437	-19.6482119205298	-31.5880794701987	-4.25748344370861				0.335788079470199	-0.206834437086093	-0.756238410596026	-18.1796026490066	29.8376158940397	-5.23470198675497			
112	2440	0.583841059602649	0.226754966887417	-0.535523178807947	13.1933774834437	107.375364238411	8.33509933774834				0.816953642384106	-0.0962119205298013	-0.114860927152318	40.1939072847682	-64.6521854304636	1.37403973509934				0.517827814569536	-0.0492715231788079	-0.51994701986755	-6.99258278145695	119.426490066225	-8.32026490066225				0.432529801324503	-0.160529801324503	-0.549721854304636	22.9229139072848	15.8635761589404	-7.33562913907285				0.756026490066225	0.0674966887417219	0.149933774834437	-7.3282119205298	-31.0280794701987	1.62251655629139				0.367788079470199	-0.126834437086093	-0.676238410596026	-34.4196026490066	31.2376158940397	-1.03470198675497			
113	2460	0.519841059602649	0.178754966887417	-0.519523178807947	24.3933774834437	103.175364238411	7.77509933774834				0.576953642384106	0.143788079470199	-0.210860927152318	21.9939072847682	-67.4521854304636	-7.30596026490066				0.549827814569536	-0.0652715231788079	-0.66394701986755	-3.35258278145695	117.466490066225	-10.5602649006623				0.416529801324503	-0.176529801324503	-0.533721854304636	22.0829139072848	5.7835761589404	-2.29562913907285				0.692026490066225	0.00349668874172187	0.117933774834437	3.3117880794702	-32.9880794701987	9.46251655629139				0.335788079470199	-0.0308344370860927	-0.612238410596026	-28.2596026490066	26.7576158940397	-6.91470198675497			
114	2480	0.567841059602649	0.130754966887417	-0.503523178807947	17.6733774834437	104.295364238411	5.81509933774834				0.672953642384106	0.175788079470199	0.109139072847682	12.7539072847682	-50.0921854304636	-6.18596026490066				0.501827814569536	-0.0812715231788079	-0.55194701986755	-4.19258278145695	105.986490066225	-9.16026490066225				0.400529801324503	-0.256529801324503	-0.533721854304636	21.2429139072848	-3.1764238410596	2.74437086092715				0.628026490066225	0.0514966887417219	0.245933774834437	-11.5282119205298	-36.0680794701987	3.86251655629139				0.319788079470199	-0.0628344370860927	-0.660238410596027	-11.4596026490066	12.7576158940397	-11.954701986755			
115	2500	0.663841059602649	0.0667549668874172	-0.503523178807947	9.83337748344371	106.535364238411	3.57509933774835				0.688953642384106	0.143788079470199	0.221139072847682	16.9539072847682	-55.9721854304636	-8.42596026490066				0.501827814569536	-0.0332715231788079	-0.50394701986755	-8.67258278145695	102.066490066225	-11.1202649006623				0.400529801324503	-0.240529801324503	-0.581721854304636	26.5629139072848	-4.0164238410596	-7.33562913907285				0.708026490066225	0.115496688741722	0.213933774834437	-5.9282119205298	-41.3880794701987	2.74251655629139				0.367788079470199	-0.222834437086093	-0.708238410596026	-26.0196026490066	10.2376158940397	-3.55470198675497			
116	2520	0.727841059602649	0.0827549668874172	-0.567523178807947	18.5133774834437	90.2953642384106	1.89509933774834				0.672953642384106	0.0317880794701987	-0.0188609271523178	32.3539072847682	-51.4921854304636	-6.74596026490066				0.517827814569536	-0.0332715231788079	-0.43994701986755	-19.872582781457	108.506490066225	-7.48026490066225				0.320529801324503	-0.256529801324503	-0.517721854304636	20.4029139072848	4.1035761589404	-15.1756291390728				0.708026490066225	0.0994966887417219	-0.0100662251655629	-10.1282119205298	-36.6280794701987	7.78251655629139				0.367788079470199	-0.110834437086093	-0.564238410596026	-43.0996026490066	21.9976158940397	-7.75470198675497			
117	2540	0.727841059602649	0.114754966887417	-0.503523178807947	15.1533774834437	89.7353642384106	1.61509933774834				0.752953642384106	-0.0642119205298013	-0.130860927152318	29.5539072847682	-43.3721854304636	-1.42596026490066				0.581827814569536	-0.0492715231788079	-0.48794701986755	-30.232582781457	117.746490066225	-9.16026490066225				0.320529801324503	-0.176529801324503	-0.485721854304636	13.9629139072848	-3.1764238410596	-13.7756291390728				0.644026490066225	-0.0285033112582781	0.0859337748344371	7.2317880794702	-19.5480794701987	9.18251655629139				0.303788079470199	0.113165562913907	-0.564238410596026	-18.7396026490066	12.7576158940397	-20.634701986755			
118	2560	0.711841059602649	0.114754966887417	-0.487523178807947	26.9133774834437	83.0153642384106	-3.42490066225166				0.784953642384106	-0.000211920529801304	-0.00286092715231785	-0.966092715231788	-41.4121854304636	-7.58596026490066				0.725827814569536	-0.0172715231788079	-0.55194701986755	-40.592582781457	109.346490066225	-9.16026490066225				0.416529801324503	-0.144529801324503	-0.533721854304636	28.5229139072848	-7.3764238410596	-9.01562913907285				0.692026490066225	-0.0125033112582781	0.325933774834437	13.1117880794702	-18.4280794701987	8.62251655629139				0.319788079470199	-0.0148344370860927	-0.692238410596026	3.94039735099338	6.31761589403974	-20.354701986755			
119	2580	0.727841059602649	0.114754966887417	-0.487523178807947	31.9533774834437	74.3353642384106	-6.78490066225166				0.672953642384106	0.143788079470199	0.0771390728476822	5.47390728476821	-49.8121854304636	-14.3059602649007				0.869827814569536	0.0627284768211921	-0.53594701986755	-13.152582781457	91.1464900662252	-13.9202649006623				0.448529801324503	-0.304529801324503	-0.533721854304636	39.7229139072848	2.7035761589404	-4.25562913907285				0.772026490066225	0.0674966887417219	0.213933774834437	12.2717880794702	-41.6680794701987	11.1425165562914				0.383788079470199	-0.222834437086093	-0.756238410596026	-4.73960264900662	16.1176158940397	-16.154701986755			
120	2600	0.743841059602649	-0.0452450331125828	-0.455523178807947	33.9133774834437	78.2553642384106	-3.70490066225166				0.864953642384106	0.127788079470199	0.0611390728476822	18.3539072847682	-28.8121854304636	-4.22596026490066				0.949827814569536	0.110728476821192	-0.47194701986755	5.60741721854305	85.8264900662252	-14.7602649006622				0.400529801324503	-0.416529801324503	-0.597721854304636	26.8429139072848	4.9435761589404	-3.69562913907285				0.804026490066225	0.0514966887417219	0.0379337748344371	10.0317880794702	-28.5080794701987	11.1425165562914				0.431788079470199	-0.158834437086093	-0.644238410596026	-7.25960264900662	16.9576158940397	-17.274701986755			
121	2620	0.807841059602649	-0.157245033112583	-0.391523178807947	30.2733774834437	76.5753642384106	0.215099337748344				0.864953642384106	0.0157880794701987	-0.0188609271523178	17.2339072847682	-32.1721854304636	1.09403973509934				0.821827814569536	-0.0332715231788079	-0.45594701986755	5.04741721854305	75.4664900662252	-2.44026490066225				0.384529801324503	-0.320529801324503	-0.661721854304636	28.8029139072848	4.3835761589404	-5.09562913907285				0.804026490066225	-0.0285033112582781	0.165933774834437	16.7517880794702	-12.2680794701987	9.74251655629139				0.399788079470199	-0.0788344370860927	-0.596238410596026	-8.93960264900662	10.7976158940397	-18.394701986755			
122	2640	0.935841059602649	-0.141245033112583	-0.375523178807947	8.71337748344371	71.8153642384106	2.73509933774834				0.768953642384106	0.0797880794701987	-0.0828609271523179	5.75390728476821	-33.2921854304636	-10.6659602649007				0.789827814569536	-0.129271523178808	-0.45594701986755	-6.15258278145695	59.7864900662252	4.55973509933775				0.480529801324503	-0.288529801324503	-0.645721854304636	36.0829139072848	7.1835761589404	-10.4156291390728				0.820026490066225	-0.0285033112582781	0.245933774834437	17.0317880794702	-20.1080794701987	7.22251655629139				0.431788079470199	-0.174834437086093	-0.692238410596026	-8.93960264900662	11.6376158940397	-14.754701986755			
123	2660	0.871841059602649	-0.0132450331125828	-0.439523178807947	-10.6066225165563	58.9353642384106	6.65509933774834				0.848953642384106	0.143788079470199	-0.0188609271523178	-1.80609271523179	-22.0921854304636	-17.6659602649007				0.837827814569536	-0.0972715231788079	-0.37594701986755	-10.352582781457	56.4264900662252	10.4397350993378				0.480529801324503	-0.384529801324503	-0.645721854304636	21.8029139072848	4.1035761589404	-14.0556291390728				0.820026490066225	0.0674966887417219	0.133933774834437	6.1117880794702	-29.9080794701987	3.58251655629139				0.479788079470199	-0.142834437086093	-0.740238410596026	-9.21960264900662	4.07761589403974	-17.834701986755			
124	2680	0.791841059602649	0.0987549668874172	-0.471523178807947	-6.96662251655629	56.4153642384106	7.21509933774835				0.896953642384106	0.127788079470199	0.0771390728476822	6.03390728476821	-12.8521854304636	-10.1059602649007				0.933827814569536	0.0147284768211921	-0.32794701986755	0.00741721854304636	45.5064900662252	13.2397350993378				0.480529801324503	-0.336529801324503	-0.629721854304636	10.3229139072848	-3.1764238410596	-9.85562913907285				0.804026490066225	0.0994966887417219	0.0539337748344371	1.3517880794702	-24.0280794701987	3.86251655629139				0.479788079470199	-0.0308344370860927	-0.708238410596026	-12.5796026490066	5.75761589403974	-23.994701986755			
125	2700	0.791841059602649	0.130754966887417	-0.375523178807947	9.27337748344371	54.1753642384106	3.57509933774835				0.864953642384106	0.0637880794701987	0.0291390728476822	9.95390728476821	-12.0121854304636	-1.70596026490066				0.917827814569536	-0.0172715231788079	-0.34394701986755	-5.87258278145695	34.8664900662252	10.9997350993378				0.496529801324503	-0.272529801324503	-0.661721854304636	24.0429139072848	-4.8564238410596	-7.33562913907285				0.820026490066225	0.0354966887417219	0.197933774834437	6.1117880794702	-11.1480794701987	3.02251655629139				0.415788079470199	-0.0628344370860927	-0.644238410596026	-3.33960264900662	11.3576158940397	-14.474701986755			
126	2720	0.967841059602649	0.0187549668874172	-0.183523178807947	-1.36662251655629	1.5353642384106	-0.624900662251656				1.00895364238411	0.0477880794701987	0.0451390728476822	-1.24609271523179	3.38781456953642	1.65403973509934				0.917827814569536	-0.0172715231788079	-0.31194701986755	1.68741721854305	-2.65350993377483	-0.48026490066225				0.560529801324503	-0.336529801324503	-0.741721854304636	1.08291390728477	4.6635761589404	6.38437086092715				0.836026490066225	0.00349668874172187	0.197933774834437	14.2317880794702	-12.8280794701987	3.30251655629139				0.479788079470199	-0.142834437086093	-0.708238410596026	-9.77960264900662	12.7576158940397	-10.554701986755			
127	2740	0.887841059602649	0.0507549668874172	-0.343523178807947	14.0333774834437	40.1753642384106	-0.624900662251656				0.864953642384106	0.111788079470199	-0.0348609271523178	6.59390728476821	-10.8921854304636	-3.66596026490066				0.837827814569536	0.0787284768211921	-0.35994701986755	-8.11258278145695	28.1464900662252	0.63973509933775				0.480529801324503	-0.400529801324503	-0.677721854304636	13.1229139072848	2.4235761589404	-9.01562913907285				0.852026490066225	0.0514966887417219	0.149933774834437	6.9517880794702	-13.1080794701987	1.62251655629139				0.543788079470199	-0.126834437086093	-0.740238410596026	0.580397350993377	6.87761589403974	-16.994701986755			
128	2760	0.839841059602649	-0.0292450331125828	-0.359523178807947	13.1933774834437	33.7353642384106	0.775099337748344				0.976953642384106	0.0797880794701987	0.0131390728476822	0.433907284768212	-13.9721854304636	-1.98596026490066				0.933827814569536	0.0947284768211921	-0.31194701986755	3.36741721854305	27.8664900662252	-1.04026490066225				0.512529801324503	-0.352529801324503	-0.677721854304636	8.36291390728477	6.9035761589404	-6.77562913907285				0.900026490066225	0.0514966887417219	0.149933774834437	6.1117880794702	-5.54807947019868	1.06251655629139				0.607788079470199	-0.110834437086093	-0.740238410596026	-2.77960264900662	9.67761589403974	-18.954701986755			
129	2780	0.951841059602649	-0.0612450331125828	-0.327523178807947	7.03337748344371	32.8953642384106	-0.344900662251656				0.992953642384106	0.111788079470199	-0.0508609271523178	-4.60609271523179	-11.4521854304636	-5.06596026490066				0.933827814569536	0.0307284768211921	-0.32794701986755	9.52741721854305	20.3064900662252	-0.20026490066225				0.560529801324503	-0.288529801324503	-0.677721854304636	17.0429139072848	9.7035761589404	-5.37562913907285				0.964026490066225	0.0194966887417219	0.181933774834437	7.2317880794702	-3.02807947019868	3.30251655629139				0.591788079470199	-0.110834437086093	-0.772238410596026	-4.17960264900662	9.67761589403974	-15.034701986755			
130	2800	0.983841059602649	-0.0292450331125828	-0.311523178807947	2.27337748344371	33.7353642384106	1.05509933774834				0.944953642384106	0.207788079470199	-0.0828609271523179	1.27390728476821	-10.6121854304636	-7.58596026490066				0.917827814569536	0.0147284768211921	-0.29594701986755	3.08741721854305	18.6264900662252	1.75973509933775				0.544529801324503	-0.336529801324503	-0.709721854304636	24.0429139072848	8.5835761589404	-3.69562913907285				0.980026490066225	0.0354966887417219	0.165933774834437	4.4317880794702	-8.34807947019868	3.30251655629139				0.575788079470199	-0.126834437086093	-0.788238410596027	-1.93960264900662	7.99761589403974	-13.354701986755			
131	2820	0.903841059602649	0.0987549668874172	-0.231523178807947	-1.92662251655629	31.2153642384106	4.13509933774834				0.944953642384106	0.127788079470199	-0.0668609271523178	6.31390728476821	-6.69218543046358	-6.18596026490066				0.917827814569536	-0.00127152317880793	-0.27994701986755	-1.95258278145695	15.8264900662252	3.71973509933775				0.560529801324503	-0.432529801324503	-0.725721854304636	11.7229139072848	2.9835761589404	-2.57562913907285				0.948026490066225	0.0834966887417219	0.117933774834437	-1.7282119205298	-7.78807947019868	3.02251655629139				0.607788079470199	-0.126834437086093	-0.788238410596027	3.38039735099338	5.75761589403974	-14.474701986755			
132	2840	0.919841059602649	0.114754966887417	-0.231523178807947	0.0333774834437086	29.2553642384106	3.01509933774834				0.944953642384106	0.0157880794701987	-0.0348609271523178	6.03390728476821	-2.49218543046358	-4.78596026490066				0.917827814569536	0.0147284768211921	-0.24794701986755	-6.71258278145695	9.38649006622517	2.31973509933775				0.608529801324503	-0.432529801324503	-0.741721854304636	5.84291390728477	1.0235761589404	-4.25562913907285				0.948026490066225	0.0194966887417219	0.181933774834437	2.7517880794702	0.0519205298013249	3.02251655629139				0.575788079470199	-0.110834437086093	-0.772238410596026	-0.539602649006623	3.23761589403974	-11.394701986755			
133	2860	0.951841059602649	0.0507549668874172	-0.263523178807947	1.71337748344371	25.8953642384106	-1.46490066225166				0.944953642384106	0.111788079470199	-0.0348609271523178	-1.24609271523179	0.307814569536424	-5.34596026490066				0.901827814569536	0.0307284768211921	-0.24794701986755	-6.15258278145695	7.98649006622517	0.63973509933775				0.592529801324503	-0.400529801324503	-0.709721854304636	3.04291390728477	3.5435761589404	-3.13562913907285				0.996026490066225	0.00349668874172187	0.197933774834437	3.5917880794702	-3.30807947019868	2.18251655629139				0.559788079470199	-0.110834437086093	-0.772238410596026	-6.13960264900662	2.11761589403974	-7.75470198675497			
134	2880	0.935841059602649	0.0667549668874172	-0.231523178807947	1.99337748344371	22.8153642384106	-3.98490066225166				0.960953642384106	0.175788079470199	-0.0668609271523178	0.713907284768212	-4.73218543046358	-5.62596026490066				0.917827814569536	0.0467284768211921	-0.24794701986755	-4.47258278145695	5.74649006622517	-0.48026490066225				0.544529801324503	-0.368529801324503	-0.677721854304636	-0.317086092715232	0.4635761589404	-6.21562913907285				0.964026490066225	0.0514966887417219	0.101933774834437	-4.2482119205298	-6.38807947019868	1.06251655629139				0.559788079470199	-0.110834437086093	-0.788238410596027	-4.73960264900662	3.51761589403974	-3.83470198675497			
135	2900	0.919841059602649	0.0827549668874172	-0.151523178807947	4.79337748344371	25.8953642384106	-4.26490066225166				0.928953642384106	0.143788079470199	-0.0668609271523178	7.43390728476821	0.307814569536424	-4.78596026490066				0.901827814569536	0.0467284768211921	-0.26394701986755	5.32741721854305	4.90649006622517	-0.48026490066225				0.528529801324503	-0.304529801324503	-0.661721854304636	-4.23708609271523	-0.3764238410596	-7.61562913907285				0.884026490066225	0.0834966887417219	0.133933774834437	-4.2482119205298	-2.46807947019868	1.62251655629139				0.575788079470199	-0.0148344370860927	-0.804238410596027	-5.01960264900662	1.55761589403974	-7.47470198675497			
136	2920	0.903841059602649	0.0187549668874172	-0.183523178807947	-3.04662251655629	18.3353642384106	-0.904900662251656				0.960953642384106	0.111788079470199	-0.130860927152318	11.3539072847682	-1.93218543046358	-4.22596026490066				0.933827814569536	0.0147284768211921	-0.24794701986755	5.60741721854305	6.86649006622517	-0.20026490066225				0.576529801324503	-0.288529801324503	-0.645721854304636	0.802913907284768	2.9835761589404	-6.49562913907285				0.916026490066225	0.0514966887417219	0.149933774834437	3.3117880794702	-2.18807947019868	3.86251655629139				0.543788079470199	0.0491655629139073	-0.788238410596027	3.94039735099338	-1.24238410596026	-13.634701986755			
137	2940	0.951841059602649	-0.0292450331125828	-0.199523178807947	-1.36662251655629	22.2553642384106	1.05509933774834				0.992953642384106	0.175788079470199	-0.0988609271523179	8.27390728476821	0.867814569536424	0.25403973509934				0.965827814569536	0.0147284768211921	-0.24794701986755	-2.79258278145695	6.30649006622517	1.75973509933775				0.608529801324503	-0.304529801324503	-0.645721854304636	14.2429139072848	2.7035761589404	-2.57562913907285				0.964026490066225	0.0834966887417219	0.149933774834437	5.8317880794702	-1.90807947019868	6.94251655629139				0.527788079470199	-0.0948344370860927	-0.756238410596026	8.14039735099338	4.35761589403974	-7.19470198675497			
138	2960	0.999841059602649	0.00275496688741723	-0.215523178807947	-1.08662251655629	23.6553642384106	0.215099337748344				0	0	0	0	0	0				0	0	0	0	0	0				0.624529801324503	-0.384529801324503	-0.693721854304636	12.2829139072848	2.7035761589404	0.224370860927152				0	0	0	0	0	0				0.543788079470199	-0.174834437086093	-0.788238410596027	2.82039735099338	5.19761589403974	1.20529801324503			
