No	Time	12-AccX	12-AccY	12-AccZ	12-GyroX	12-GyroY	12-GyroZ	13-AccX	13-AccY	13-AccZ	13-GyroX	13-GyroY	13-GyroZ	14-AccX	14-AccY	14-AccZ	14-GyroX	14-GyroY	14-GyroZ	15-AccX	15-AccY	15-AccZ	15-GyroX	15-GyroY	15-GyroZ	16-AccX	16-AccY	16-AccZ	16-GyroX	16-GyroY	16-GyroZ	17-AccX	17-AccY	17-AccZ	17-GyroX	17-GyroY	17-GyroZ
0	80	0	0	0	0	0	0				0.944953642384106	0.0957880794701987	0.0291390728476822	-0.966092715231788	9.54781456953642	-0.0259602649006601				-0.266172185430464	-0.177271523178808	-0.82394701986755	-8.67258278145695	13.8664900662252	9.03973509933775				0	0	0	0	0	0				0	0	0	0	0	0				0	0	0	0	0	0			
1	100	-0.248158940397351	0.0827549668874172	-0.951523178807947	-0.246622516556291	0.135364238410596	-2.30490066225166				0.896953642384106	0.0797880794701987	0.0611390728476822	-8.52609271523179	17.9478145695364	0.25403973509934				-0.202172185430464	-0.193271523178808	-0.93594701986755	-12.592582781457	10.7864900662252	11.8397350993378				0	0	0	0	0	0				0	0	0	0	0	0				0	0	0	0	0	0			
2	120	-0.248158940397351	0.0667549668874172	-0.951523178807947	3.67337748344371	2.3753642384106	-4.54490066225166				0.960953642384106	0.111788079470199	0.0611390728476822	-13.2860927152318	24.1078145695364	-2.54596026490066				-0.314172185430464	-0.193271523178808	-0.96794701986755	-26.032582781457	9.66649006622517	13.2397350993378				0	0	0	0	0	0				0.884026490066225	0.0834966887417219	0.309933774834437	0.511788079470198	2.29192052980133	-6.49748344370861				0.0797880794701987	-0.446834437086093	-0.788238410596027	-2.49960264900662	-0.682384105960265	-2.71470198675497			
3	140	-0.200158940397351	0.0667549668874172	-0.967523178807947	1.43337748344371	3.7753642384106	-5.66490066225166				1.02495364238411	0.175788079470199	0.0451390728476822	-6.28609271523179	16.2678145695364	-3.10596026490066				-0.282172185430464	-0.129271523178808	-0.91994701986755	-34.432582781457	12.4664900662252	12.9597350993378				0.256529801324503	-0.000529801324503289	-0.869721854304636	-8.71708609271523	-2.6164238410596	1.90437086092715				0.836026490066225	0.0994966887417219	0.325933774834437	4.9917880794702	2.01192052980133	-4.81748344370861				0.0797880794701987	-0.462834437086093	-0.788238410596027	-2.49960264900662	-2.08238410596027	-1.03470198675497			
4	160	-0.152158940397351	0.0827549668874172	-0.935523178807947	-0.526622516556291	4.6153642384106	-4.26490066225166				1.02495364238411	0.159788079470199	0.0611390728476822	4.91390728476821	3.94781456953642	0.53403973509934				-0.170172185430464	-0.00127152317880793	-0.88794701986755	-23.512582781457	7.14649006622517	11.2797350993378				0.272529801324503	0.0154701986754967	-0.885721854304636	-4.51708609271523	-1.2164238410596	3.86437086092715				0.916026490066225	0.131496688741722	0.341933774834437	1.9117880794702	4.25192052980133	-3.97748344370861				0.0797880794701987	-0.478834437086093	-0.788238410596027	-1.09960264900662	-2.08238410596027	0.365298013245032			
5	180	-0.120158940397351	0.0827549668874172	-0.903523178807947	-1.64662251655629	2.6553642384106	-3.98490066225166				0.944953642384106	0.0477880794701987	0.0771390728476822	4.63390728476821	1.14781456953642	1.93403973509934				-0.122172185430464	0.0307284768211921	-0.83994701986755	-9.79258278145695	-6.57350993377483	9.31973509933775				0.304529801324503	-0.0325298013245033	-0.901721854304636	-0.0370860927152318	1.3035761589404	7.78437086092715				0.964026490066225	0.0834966887417219	0.325933774834437	-0.0482119205298018	3.13192052980133	-3.41748344370861				0.0317880794701987	-0.494834437086093	-0.804238410596027	-2.49960264900662	0.157615894039735	-1.03470198675497			
6	200	-0.152158940397351	0.0667549668874172	-0.919523178807947	3.67337748344371	-3.2246357615894	-4.26490066225166				0.992953642384106	0.111788079470199	0.0451390728476822	4.91390728476821	3.10781456953642	0.25403973509934				-0.186172185430464	-0.0492715231788079	-0.87194701986755	0.847417218543046	-5.17350993377483	5.67973509933775				0.320529801324503	-0.0645298013245033	-0.917721854304636	-0.317086092715232	4.9435761589404	10.8643708609272				0.948026490066225	0.0514966887417219	0.325933774834437	0.511788079470198	2.01192052980133	-3.69748344370861				0.0317880794701987	-0.494834437086093	-0.820238410596026	-6.69960264900662	5.75761589403974	-3.27470198675497			
7	220	-0.184158940397351	0.0827549668874172	-0.999523178807947	3.67337748344371	-3.7846357615894	-3.42490066225166				1.00895364238411	0.111788079470199	0.0931390728476822	2.11390728476821	12.3478145695364	-0.585960264900661				-0.282172185430464	-0.129271523178808	-0.93594701986755	-1.67258278145695	-0.413509933774833	4.83973509933775				0.320529801324503	-0.0645298013245033	-0.949721854304636	2.76291390728477	6.6235761589404	13.9443708609272				0.900026490066225	0.0834966887417219	0.325933774834437	3.8717880794702	2.01192052980133	-3.41748344370861				0.0477880794701987	-0.494834437086093	-0.820238410596026	-7.81960264900662	8.83761589403974	-1.87470198675497			
8	240	-0.200158940397351	0.0987549668874172	-1.01552317880795	1.71337748344371	-0.144635761589404	-2.02490066225166				0.992953642384106	0.0957880794701987	0.141139072847682	-7.12609271523179	15.9878145695364	-4.22596026490066				-0.266172185430464	-0.113271523178808	-0.93594701986755	-8.95258278145695	4.90649006622517	3.99973509933775				0.304529801324503	-0.0645298013245033	-0.949721854304636	1.64291390728477	7.1835761589404	14.5043708609272				0.884026490066225	0.0994966887417219	0.341933774834437	10.0317880794702	4.81192052980133	-2.01748344370861				0.0477880794701987	-0.494834437086093	-0.804238410596027	-4.73960264900662	6.59761589403974	0.365298013245032			
9	260	-0.200158940397351	0.0667549668874172	-0.999523178807947	4.51337748344371	2.3753642384106	-1.18490066225166				1.00895364238411	0.0637880794701987	0.141139072847682	-13.8460927152318	19.9078145695364	-5.06596026490066				-0.234172185430464	-0.0652715231788079	-0.91994701986755	-13.152582781457	4.62649006622517	2.87973509933775				0.304529801324503	-0.0645298013245033	-0.949721854304636	-5.07708609271523	5.2235761589404	14.2243708609272				0.884026490066225	0.0994966887417219	0.341933774834437	12.2717880794702	10.6919205298013	-5.37748344370861				0.0637880794701987	-0.494834437086093	-0.804238410596027	-5.29960264900662	6.59761589403974	3.72529801324503			
10	280	-0.184158940397351	0.0507549668874172	-0.935523178807947	4.79337748344371	4.6153642384106	-0.904900662251656				0.992953642384106	0.0637880794701987	0.125139072847682	-19.7260927152318	19.9078145695364	-5.62596026490066				-0.202172185430464	-0.0172715231788079	-0.88794701986755	-6.99258278145695	4.06649006622517	0.35973509933775				0.304529801324503	-0.0325298013245033	-0.933721854304636	-9.55708609271523	4.9435761589404	13.9443708609272				0.916026490066225	0.0994966887417219	0.357933774834437	9.4717880794702	14.0519205298013	-6.77748344370861				0.0797880794701987	-0.494834437086093	-0.804238410596027	-6.13960264900662	6.87761589403974	6.80529801324503			
11	300	-0.168158940397351	0.0347549668874172	-0.919523178807947	2.27337748344371	2.0953642384106	-2.30490066225166				0.992953642384106	0.0957880794701987	0.109139072847682	-19.1660927152318	8.98781456953643	-5.34596026490066				-0.218172185430464	-0.0332715231788079	-0.85594701986755	-2.79258278145695	2.38649006622517	-1.88026490066225				0.288529801324503	-0.000529801324503289	-0.917721854304636	-6.19708609271523	5.7835761589404	13.9443708609272				0.948026490066225	0.0674966887417219	0.357933774834437	10.0317880794702	12.3719205298013	-6.49748344370861				0.111788079470199	-0.494834437086093	-0.804238410596027	-6.69960264900662	8.83761589403974	8.20529801324503			
12	320	-0.184158940397351	0.0347549668874172	-0.919523178807947	1.43337748344371	0.975364238410596	-3.42490066225166				1.00895364238411	0.0957880794701987	0.0611390728476822	-16.0860927152318	-4.17218543046358	-3.94596026490066				-0.250172185430464	-0.0492715231788079	-0.83994701986755	2.80741721854305	2.66649006622517	-4.12026490066225				0.304529801324503	-0.000529801324503289	-0.901721854304636	-4.79708609271523	4.6635761589404	11.7043708609272				0.948026490066225	0.0514966887417219	0.341933774834437	12.2717880794702	7.89192052980133	-5.93748344370861				0.127788079470199	-0.478834437086093	-0.804238410596027	-8.37960264900662	11.9176158940397	7.08529801324503			
13	340	-0.200158940397351	0.0507549668874172	-0.951523178807947	0.0333774834437086	-0.424635761589404	-3.14490066225166				0.976953642384106	0.0957880794701987	0.0451390728476822	-18.3260927152318	-3.61218543046358	-4.22596026490066				-0.250172185430464	-0.113271523178808	-0.87194701986755	1.12741721854305	2.66649006622517	-4.40026490066225				0.288529801324503	-0.0165298013245033	-0.885721854304636	-5.63708609271523	1.3035761589404	10.8643708609272				0.916026490066225	0.0674966887417219	0.325933774834437	11.1517880794702	7.89192052980133	-5.37748344370861				0.143788079470199	-0.446834437086093	-0.820238410596026	-6.97960264900662	12.4776158940397	7.08529801324503			
14	360	-0.200158940397351	0.0507549668874172	-0.967523178807947	-1.92662251655629	-0.424635761589404	-2.30490066225166				0.976953642384106	0.0957880794701987	0.0771390728476822	-18.8860927152318	-4.17218543046358	-5.34596026490066				-0.250172185430464	-0.113271523178808	-0.88794701986755	0.00741721854304636	2.66649006622517	-4.12026490066225				0.272529801324503	-0.0165298013245033	-0.869721854304636	-6.75708609271523	-1.2164238410596	10.5843708609272				0.900026490066225	0.0674966887417219	0.325933774834437	2.1917880794702	3.69192052980133	-5.65748344370861				0.127788079470199	-0.462834437086093	-0.804238410596027	-3.89960264900662	11.6376158940397	4.56529801324503			
15	380	-0.200158940397351	0.0507549668874172	-0.919523178807947	-1.36662251655629	0.415364238410596	-2.02490066225166				0.960953642384106	0.143788079470199	0.109139072847682	-15.5260927152318	-4.73218543046358	-7.30596026490066				-0.234172185430464	-0.0812715231788079	-0.87194701986755	-4.75258278145695	-5.73350993377484	-3.56026490066225				0.240529801324503	-0.0165298013245033	-0.885721854304636	-4.23708609271523	1.3035761589404	11.4243708609272				0.900026490066225	0.0834966887417219	0.341933774834437	-2.8482119205298	0.891920529801325	-5.93748344370861				0.111788079470199	-0.478834437086093	-0.836238410596026	-5.01960264900662	12.7576158940397	3.44529801324503			
16	400	-0.200158940397351	0.0507549668874172	-0.935523178807947	0.0333774834437086	-0.424635761589404	-0.0649006622516557				0.992953642384106	0.143788079470199	0.0931390728476822	-7.40609271523179	-13.1321854304636	-6.18596026490066				-0.266172185430464	-0.0492715231788079	-0.85594701986755	-2.51258278145695	-3.77350993377483	-1.32026490066225				0.224529801324503	-0.000529801324503289	-0.885721854304636	-0.877086092715232	4.6635761589404	13.1043708609272				0.900026490066225	0.131496688741722	0.373933774834437	-9.2882119205298	2.01192052980133	-6.21748344370861				0.0797880794701987	-0.462834437086093	-0.836238410596026	-5.57960264900662	10.5176158940397	2.32529801324503			
17	420	-0.216158940397351	0.0507549668874172	-0.951523178807947	-1.08662251655629	-1.2646357615894	0.775099337748344				1.00895364238411	0.111788079470199	0.0611390728476822	-5.16609271523179	-18.4521854304636	-5.06596026490066				-0.266172185430464	-0.0812715231788079	-0.87194701986755	1.68741721854305	-2.09350993377483	-0.20026490066225				0.256529801324503	-0.0325298013245033	-0.901721854304636	2.48291390728477	5.2235761589404	13.9443708609272				0.916026490066225	0.115496688741722	0.309933774834437	-12.0882119205298	0.611920529801325	-2.85748344370861				0.0637880794701987	-0.446834437086093	-0.836238410596026	-6.97960264900662	11.3576158940397	1.76529801324503			
18	440	-0.216158940397351	0.0507549668874172	-0.967523178807947	-3.04662251655629	-0.984635761589404	1.33509933774834				0.992953642384106	0.111788079470199	0.0771390728476822	-5.72609271523179	-14.5321854304636	-7.02596026490066				-0.266172185430464	-0.129271523178808	-0.91994701986755	1.68741721854305	0.146490066225167	0.63973509933775				0.288529801324503	-0.0325298013245033	-0.901721854304636	2.48291390728477	6.9035761589404	14.5043708609272				0.932026490066225	0.0994966887417219	0.325933774834437	-10.4082119205298	2.01192052980133	-1.73748344370861				0.0637880794701987	-0.462834437086093	-0.852238410596026	-5.57960264900662	10.7976158940397	1.76529801324503			
19	460	-0.200158940397351	0.0507549668874172	-0.967523178807947	-3.60662251655629	0.695364238410596	1.05509933774834				0.992953642384106	0.143788079470199	0.0771390728476822	-1.80609271523179	-12.5721854304636	-6.46596026490066				-0.266172185430464	-0.129271523178808	-0.90394701986755	-0.832582781456954	1.26649006622517	2.31973509933775				0.304529801324503	-0.0325298013245033	-0.933721854304636	6.12291390728477	8.0235761589404	15.0643708609272				0.948026490066225	0.0994966887417219	0.325933774834437	-13.2082119205298	1.45192052980132	-2.85748344370861				0.0637880794701987	-0.478834437086093	-0.868238410596026	-2.77960264900662	11.6376158940397	1.20529801324503			
20	480	-0.200158940397351	0.0667549668874172	-0.951523178807947	-3.32662251655629	1.2553642384106	1.33509933774834				0.976953642384106	0.143788079470199	0.0451390728476822	0.433907284768212	-12.8521854304636	-3.94596026490066				-0.266172185430464	-0.113271523178808	-0.88794701986755	-3.91258278145695	2.94649006622517	3.43973509933775				0.304529801324503	-0.0325298013245033	-0.981721854304636	6.12291390728477	8.5835761589404	15.3443708609272				0.948026490066225	0.131496688741722	0.325933774834437	-12.9282119205298	-1.06807947019868	-1.45748344370861				0.0637880794701987	-0.494834437086093	-0.852238410596026	-4.73960264900662	12.1976158940397	2.04529801324503			
21	500	-0.200158940397351	0.0987549668874172	-0.951523178807947	-4.44662251655629	1.2553642384106	1.05509933774834				0.992953642384106	0.111788079470199	0.0451390728476822	-2.08609271523179	-10.3321854304636	-3.38596026490066				-0.250172185430464	-0.0812715231788079	-0.85594701986755	-7.83258278145695	3.22649006622517	4.55973509933775				0.304529801324503	-0.0645298013245033	-0.981721854304636	6.40291390728477	10.5435761589404	15.9043708609272				0.948026490066225	0.115496688741722	0.341933774834437	-7.0482119205298	-1.06807947019868	-0.337483443708608				0.0637880794701987	-0.478834437086093	-0.884238410596026	-8.37960264900662	11.9176158940397	4.84529801324503			
22	520	-0.200158940397351	0.0827549668874172	-0.967523178807947	-3.60662251655629	1.2553642384106	1.05509933774834				0.992953642384106	0.143788079470199	0.0611390728476822	-5.44609271523179	-10.6121854304636	-4.50596026490066				-0.250172185430464	-0.0652715231788079	-0.88794701986755	-8.11258278145695	2.66649006622517	4.27973509933775				0.304529801324503	-0.0805298013245033	-0.965721854304636	4.72291390728477	9.1435761589404	13.9443708609272				0.948026490066225	0.0834966887417219	0.325933774834437	-4.5282119205298	0.611920529801325	-1.17748344370861				0.0637880794701987	-0.446834437086093	-0.884238410596026	-3.05960264900662	7.71761589403974	5.96529801324503			
23	540	-0.184158940397351	0.0827549668874172	-0.951523178807947	-1.08662251655629	1.2553642384106	-0.0649006622516557				0.992953642384106	0.143788079470199	0.0451390728476822	-4.60609271523179	-10.0521854304636	-2.82596026490066				-0.234172185430464	-0.0492715231788079	-0.88794701986755	-9.23258278145695	2.94649006622517	3.43973509933775				0.320529801324503	-0.0645298013245033	-0.933721854304636	1.36291390728477	6.9035761589404	13.6643708609272				0.948026490066225	0.0834966887417219	0.309933774834437	-6.2082119205298	-1.34807947019868	-0.897483443708608				0.0637880794701987	-0.446834437086093	-0.852238410596026	-2.21960264900662	9.39761589403974	5.96529801324503			
24	560	-0.168158940397351	0.0987549668874172	-0.919523178807947	-2.48662251655629	-0.144635761589404	-1.18490066225166				0.976953642384106	0.143788079470199	0.0451390728476822	-2.36609271523179	-9.77218543046358	-1.98596026490066				-0.234172185430464	-0.0172715231788079	-0.88794701986755	-5.59258278145695	2.66649006622517	1.75973509933775				0.288529801324503	-0.0325298013245033	-0.933721854304636	1.36291390728477	6.9035761589404	14.2243708609272				0.964026490066225	0.0994966887417219	0.309933774834437	-7.3282119205298	-1.62807947019868	-0.897483443708608				0.0477880794701987	-0.462834437086093	-0.852238410596026	-2.21960264900662	9.95761589403974	5.12529801324503			
25	580	-0.184158940397351	0.0987549668874172	-0.935523178807947	-1.36662251655629	-1.2646357615894	-1.46490066225166				0.976953642384106	0.159788079470199	0.0131390728476822	-1.80609271523179	-9.77218543046358	-2.54596026490066				-0.250172185430464	-0.00127152317880793	-0.88794701986755	-4.75258278145695	2.38649006622517	0.63973509933775				0.272529801324503	-0.0485298013245033	-0.917721854304636	2.76291390728477	8.5835761589404	15.0643708609272				0.948026490066225	0.0834966887417219	0.309933774834437	-5.0882119205298	-3.86807947019868	-0.617483443708608				0.0477880794701987	-0.462834437086093	-0.852238410596026	-3.05960264900662	9.95761589403974	2.32529801324503			
26	600	-0.200158940397351	0.0987549668874172	-0.967523178807947	-1.08662251655629	-0.704635761589404	-1.18490066225166				0.976953642384106	0.159788079470199	-0.00286092715231785	-4.04609271523179	-3.89218543046358	-3.10596026490066				-0.234172185430464	-0.0172715231788079	-0.90394701986755	-2.23258278145695	2.10649006622517	-0.20026490066225				0.256529801324503	-0.0805298013245033	-0.933721854304636	4.44291390728477	9.1435761589404	14.2243708609272				0.932026490066225	0.0834966887417219	0.261933774834437	-8.1682119205298	-5.82807947019868	-1.17748344370861				0.0317880794701987	-0.430834437086093	-0.868238410596026	-6.13960264900662	9.39761589403974	0.925298013245032			
27	620	-0.184158940397351	0.0987549668874172	-0.967523178807947	-1.36662251655629	1.2553642384106	-1.46490066225166				0.960953642384106	0.159788079470199	0.0291390728476822	-6.28609271523179	3.10781456953642	-3.38596026490066				-0.250172185430464	-0.0332715231788079	-0.90394701986755	-1.39258278145695	2.38649006622517	-0.76026490066225				0.240529801324503	-0.0805298013245033	-0.965721854304636	8.36291390728477	8.5835761589404	13.3843708609272				0.916026490066225	0.0834966887417219	0.293933774834437	-3.9682119205298	-3.02807947019868	-1.45748344370861				0.0317880794701987	-0.430834437086093	-0.868238410596026	-8.93960264900662	7.99761589403974	0.645298013245032			
28	640	-0.200158940397351	0.0827549668874172	-0.935523178807947	0.873377483443709	2.0953642384106	-0.904900662251656				0.976953642384106	0.143788079470199	0.0451390728476822	-5.44609271523179	2.54781456953642	-2.26596026490066				-0.250172185430464	-0.0492715231788079	-0.87194701986755	1.40741721854305	1.82649006622517	-0.48026490066225				0.256529801324503	-0.0645298013245033	-0.949721854304636	7.24291390728477	8.3035761589404	10.5843708609272				0.900026490066225	0.0994966887417219	0.277933774834437	-5.6482119205298	-0.788079470198675	-3.13748344370861				0.0317880794701987	-0.398834437086093	-0.868238410596026	-5.85960264900662	2.95761589403974	0.0852980132450323			
29	660	-0.184158940397351	0.0667549668874172	-0.935523178807947	1.43337748344371	1.2553642384106	-0.0649006622516557				0.976953642384106	0.159788079470199	0.0771390728476822	-4.88609271523179	-8.65218543046358	-3.38596026490066				-0.250172185430464	-0.0652715231788079	-0.83994701986755	2.24741721854305	0.426490066225167	0.35973509933775				0.288529801324503	-0.0645298013245033	-0.965721854304636	5.00291390728477	4.9435761589404	5.82437086092715				0.932026490066225	0.0834966887417219	0.277933774834437	-5.0882119205298	0.891920529801325	-3.97748344370861				0.0637880794701987	-0.430834437086093	-0.852238410596026	-2.49960264900662	0.717615894039735	-1.03470198675497			
30	680	-0.184158940397351	0.0667549668874172	-0.951523178807947	-1.92662251655629	-0.144635761589404	-0.624900662251656				0.976953642384106	0.143788079470199	0.0131390728476822	-3.48609271523179	-8.37218543046358	-3.94596026490066				-0.250172185430464	-0.0812715231788079	-0.87194701986755	0.567417218543046	-0.413509933774833	1.75973509933775				0.304529801324503	-0.0805298013245033	-0.965721854304636	2.20291390728477	2.7035761589404	0.784370860927152				0.916026490066225	0.0994966887417219	0.293933774834437	-3.1282119205298	-0.228079470198675	-3.97748344370861				0.0637880794701987	-0.462834437086093	-0.868238410596026	-1.37960264900662	-1.80238410596026	-1.31470198675497			
31	700	-0.184158940397351	0.0667549668874172	-0.951523178807947	-1.08662251655629	-0.424635761589404	-0.624900662251656				0.960953642384106	0.159788079470199	0.0131390728476822	-4.88609271523179	-1.09218543046358	-2.82596026490066				-0.234172185430464	-0.0972715231788079	-0.88794701986755	0.00741721854304636	0.146490066225167	3.43973509933775				0.304529801324503	-0.0965298013245033	-0.933721854304636	-1.43708609271523	1.5835761589404	-3.41562913907285				0.932026490066225	0.0994966887417219	0.309933774834437	-7.0482119205298	-2.74807947019868	-5.09748344370861				0.0477880794701987	-0.462834437086093	-0.836238410596026	-4.73960264900662	-2.64238410596027	-2.43470198675497			
32	720	-0.200158940397351	0.0667549668874172	-0.951523178807947	-0.246622516556291	0.135364238410596	-0.0649006622516557				0.960953642384106	0.111788079470199	0.0611390728476822	-7.40609271523179	3.66781456953642	-1.42596026490066				-0.250172185430464	-0.0972715231788079	-0.90394701986755	-3.35258278145695	2.10649006622517	4.27973509933775				0.336529801324503	-0.0805298013245033	-0.901721854304636	-6.19708609271523	-2.0564238410596	-7.33562913907285				0.900026490066225	0.0834966887417219	0.309933774834437	-9.0082119205298	-1.06807947019868	-5.93748344370861				0.0637880794701987	-0.446834437086093	-0.836238410596026	-8.65960264900662	-2.36238410596027	-2.99470198675497			
33	740	-0.200158940397351	0.0507549668874172	-0.919523178807947	-0.806622516556291	0.975364238410596	-0.624900662251656				0.928953642384106	0.111788079470199	0.0771390728476822	-5.72609271523179	9.54781456953642	-3.66596026490066				-0.234172185430464	-0.0812715231788079	-0.87194701986755	-5.87258278145695	2.10649006622517	4.27973509933775				0.336529801324503	-0.0485298013245033	-0.869721854304636	-7.31708609271523	-0.6564238410596	-8.45562913907285				0.852026490066225	0.0994966887417219	0.293933774834437	-3.4082119205298	-1.90807947019868	-5.37748344370861				0.0637880794701987	-0.398834437086093	-0.836238410596026	-6.41960264900662	-0.682384105960265	-0.474701986754968			
34	760	-0.168158940397351	0.0667549668874172	-0.951523178807947	-3.04662251655629	1.5353642384106	-0.0649006622516557				0.976953642384106	0.127788079470199	0.109139072847682	1.55390728476821	8.42781456953642	-1.98596026490066				-0.218172185430464	-0.0652715231788079	-0.85594701986755	-6.43258278145695	1.54649006622517	5.39973509933775				0.272529801324503	-0.0165298013245033	-0.853721854304636	-6.47708609271523	-1.4964238410596	-4.81562913907285				0.852026490066225	0.131496688741722	0.325933774834437	2.4717880794702	0.611920529801325	-3.13748344370861				0.0477880794701987	-0.366834437086093	-0.852238410596026	3.66039735099338	-1.24238410596026	3.16529801324503			
35	780	-0.152158940397351	0.0667549668874172	-0.935523178807947	-1.92662251655629	0.975364238410596	-0.0649006622516557				0.992953642384106	0.127788079470199	0.0291390728476822	6.87390728476821	0.867814569536424	0.81403973509934				-0.218172185430464	-0.0492715231788079	-0.87194701986755	-5.31258278145695	1.54649006622517	5.39973509933775				0.224529801324503	-0.0165298013245033	-0.869721854304636	-4.79708609271523	-4.0164238410596	0.784370860927152				0.884026490066225	0.163496688741722	0.309933774834437	6.6717880794702	-1.62807947019868	0.502516556291392				0.0317880794701987	-0.398834437086093	-0.868238410596026	5.90039735099338	-0.682384105960265	5.68529801324503			
36	800	-0.168158940397351	0.0507549668874172	-0.935523178807947	-1.92662251655629	0.135364238410596	0.215099337748344				0.944953642384106	0.143788079470199	-0.00286092715231785	4.07390728476821	-2.21218543046358	3.89403973509934				-0.234172185430464	-0.0492715231788079	-0.88794701986755	-6.43258278145695	1.26649006622517	5.11973509933775				0.224529801324503	-0.0325298013245033	-0.885721854304636	-1.43708609271523	-2.0564238410596	4.98437086092715				0.900026490066225	0.147496688741722	0.277933774834437	6.9517880794702	-1.34807947019868	4.70251655629139				0.0477880794701987	-0.398834437086093	-0.868238410596026	7.86039735099338	1.55761589403974	7.08529801324503			
37	820	-0.184158940397351	0.0827549668874172	-0.935523178807947	-4.16662251655629	-0.704635761589404	-0.904900662251656				0.928953642384106	0.159788079470199	-0.00286092715231785	3.23390728476821	1.14781456953642	5.85403973509934				-0.250172185430464	-0.0332715231788079	-0.87194701986755	-6.99258278145695	-0.133509933774833	4.27973509933775				0.240529801324503	-0.0325298013245033	-0.901721854304636	1.36291390728477	1.3035761589404	6.94437086092715				0.916026490066225	0.115496688741722	0.293933774834437	4.7117880794702	4.81192052980133	7.22251655629139				0.0797880794701987	-0.414834437086093	-0.884238410596026	10.3803973509934	3.51761589403974	9.32529801324503			
38	840	-0.200158940397351	0.0987549668874172	-0.935523178807947	-5.28662251655629	-1.5446357615894	-0.624900662251656				0.976953642384106	0.175788079470199	0.0131390728476822	7.71390728476821	1.98781456953642	6.97403973509934				-0.266172185430464	-0.0172715231788079	-0.87194701986755	-7.83258278145695	0.426490066225167	3.43973509933775				0.256529801324503	-0.000529801324503289	-0.901721854304636	3.88291390728477	3.2635761589404	9.18437086092715				0.932026490066225	0.115496688741722	0.325933774834437	5.5517880794702	3.97192052980133	10.3025165562914				0.0957880794701987	-0.446834437086093	-0.852238410596026	9.54039735099338	3.79761589403974	10.445298013245			
39	860	-0.232158940397351	0.114754966887417	-0.967523178807947	-4.72662251655629	-1.5446357615894	-0.344900662251656				0.992953642384106	0.175788079470199	0.0451390728476822	0.993907284768212	7.86781456953642	5.29403973509934				-0.266172185430464	0.0147284768211921	-0.90394701986755	-7.83258278145695	1.26649006622517	3.43973509933775				0.272529801324503	-0.0485298013245033	-0.933721854304636	7.52291390728477	6.0635761589404	9.74437086092715				0.964026490066225	0.0834966887417219	0.309933774834437	3.3117880794702	1.45192052980132	10.0225165562914				0.0957880794701987	-0.446834437086093	-0.868238410596026	8.70039735099338	4.07761589403974	9.60529801324503			
40	880	-0.232158940397351	0.130754966887417	-0.935523178807947	-1.64662251655629	-0.144635761589404	0.215099337748344				1.00895364238411	0.175788079470199	0.0931390728476822	-5.16609271523179	9.54781456953642	4.45403973509934				-0.266172185430464	0.0307284768211921	-0.91994701986755	-2.79258278145695	1.26649006622517	3.43973509933775				0.288529801324503	-0.0645298013245033	-0.949721854304636	7.80291390728477	9.1435761589404	9.74437086092715				0.916026490066225	0.0994966887417219	0.309933774834437	-0.328211920529802	1.17192052980133	6.94251655629139				0.0797880794701987	-0.446834437086093	-0.852238410596026	9.54039735099338	5.19761589403974	6.52529801324503			
41	900	-0.232158940397351	0.114754966887417	-0.935523178807947	0.873377483443709	0.975364238410596	-0.344900662251656				1.00895364238411	0.143788079470199	0.109139072847682	-0.686092715231788	7.02781456953642	2.21403973509934				-0.266172185430464	0.0307284768211921	-0.91994701986755	-0.832582781456954	2.66649006622517	2.59973509933775				0.288529801324503	-0.0485298013245033	-0.965721854304636	9.48291390728477	9.4235761589404	9.18437086092715				0.900026490066225	0.0994966887417219	0.373933774834437	-0.0482119205298018	5.65192052980133	6.94251655629139				0.0957880794701987	-0.446834437086093	-0.820238410596026	8.98039735099338	6.03761589403974	5.12529801324503			
42	920	-0.200158940397351	0.114754966887417	-0.935523178807947	0.593377483443709	1.2553642384106	-1.46490066225166				1.00895364238411	0.175788079470199	0.125139072847682	4.35390728476821	-3.05218543046358	0.25403973509934				-0.250172185430464	0.0147284768211921	-0.88794701986755	-0.552582781456954	2.94649006622517	1.19973509933775				0.352529801324503	-0.0645298013245033	-0.965721854304636	8.92291390728477	8.3035761589404	9.46437086092715				0.916026490066225	0.115496688741722	0.357933774834437	-2.0082119205298	10.1319205298013	4.98251655629139				0.127788079470199	-0.462834437086093	-0.836238410596026	7.86039735099338	6.59761589403974	5.40529801324503			
43	940	-0.168158940397351	0.114754966887417	-0.951523178807947	1.99337748344371	0.695364238410596	-2.02490066225166				0.992953642384106	0.191788079470199	-0.00286092715231785	7.43390728476821	-9.77218543046358	1.65403973509934				-0.234172185430464	0.0147284768211921	-0.88794701986755	3.64741721854305	2.66649006622517	-0.48026490066225				0.384529801324503	-0.112529801324503	-0.965721854304636	1.64291390728477	3.2635761589404	8.62437086092715				0	0	0	0	0	0				0.111788079470199	-0.462834437086093	-0.804238410596027	5.90039735099338	7.43761589403974	4.84529801324503			
44	1020	0	0	0	0	0	0				0.992953642384106	0.159788079470199	0.0611390728476822	4.63390728476821	0.307814569536424	4.45403973509934				-0.250172185430464	-0.0492715231788079	-0.87194701986755	3.64741721854305	0.986490066225167	-2.44026490066225				0	0	0	0	0	0				0	0	0	0	0	0				0	0	0	0	0	0			
45	1040	-0.200158940397351	0.0987549668874172	-0.935523178807947	3.67337748344371	-0.424635761589404	-2.58490066225166				0.992953642384106	0.143788079470199	0.0611390728476822	0.713907284768212	-1.09218543046358	4.17403973509934				-0.234172185430464	-0.0652715231788079	-0.88794701986755	4.20741721854305	0.426490066225167	-1.04026490066225				0	0	0	0	0	0				0	0	0	0	0	0				0	0	0	0	0	0			
46	1060	-0.216158940397351	0.0827549668874172	-0.951523178807947	3.95337748344371	-0.984635761589404	-2.86490066225166				0.992953642384106	0.143788079470199	0.0451390728476822	-0.686092715231788	-2.49218543046358	3.05403973509934				-0.250172185430464	-0.0492715231788079	-0.90394701986755	5.32741721854305	-0.133509933774833	0.0797350993377501				0	0	0	0	0	0				0	0	0	0	0	0				0	0	0	0	0	0			
47	1080	-0.200158940397351	0.0667549668874172	-0.935523178807947	5.35337748344371	-0.424635761589404	-2.58490066225166				0.992953642384106	0.111788079470199	0.0451390728476822	-1.80609271523179	-1.37218543046358	3.61403973509934				-0.250172185430464	-0.0812715231788079	-0.87194701986755	3.92741721854305	1.82649006622517	1.19973509933775				0	0	0	0	0	0				0	0	0	0	0	0				0	0	0	0	0	0			
48	1100	-0.184158940397351	0.0507549668874172	-0.951523178807947	4.51337748344371	-0.424635761589404	-3.14490066225166				0.976953642384106	0.111788079470199	0.0611390728476822	-0.966092715231788	-1.37218543046358	3.61403973509934				-0.250172185430464	-0.0652715231788079	-0.87194701986755	2.80741721854305	1.54649006622517	1.19973509933775				0.352529801324503	-0.0645298013245033	-0.901721854304636	-1.99708609271523	-2.8964238410596	10.8643708609272				0.932026490066225	0.0834966887417219	0.373933774834437	8.0717880794702	-1.34807947019868	3.86251655629139				0.111788079470199	-0.494834437086093	-0.820238410596026	0.0203973509933773	1.83761589403974	3.44529801324503			
49	1120	-0.200158940397351	0.0667549668874172	-0.951523178807947	1.99337748344371	-0.704635761589404	-2.30490066225166				0.976953642384106	0.143788079470199	0.0771390728476822	0.713907284768212	-3.33218543046358	1.93403973509934				-0.234172185430464	-0.0492715231788079	-0.88794701986755	3.08741721854305	1.54649006622517	1.19973509933775				0.336529801324503	-0.0805298013245033	-0.917721854304636	-1.15708609271523	-1.2164238410596	10.5843708609272				0.900026490066225	0.0674966887417219	0.357933774834437	11.9917880794702	-5.54807947019868	3.86251655629139				0.111788079470199	-0.478834437086093	-0.820238410596026	0.0203973509933773	1.27761589403974	0.365298013245032			
50	1140	-0.200158940397351	0.0667549668874172	-0.951523178807947	0.873377483443709	-0.144635761589404	-2.02490066225166				0.976953642384106	0.127788079470199	0.0611390728476822	4.07390728476821	-8.37218543046358	1.93403973509934				-0.234172185430464	-0.0332715231788079	-0.88794701986755	1.40741721854305	2.38649006622517	2.03973509933775				0.304529801324503	-0.0805298013245033	-0.901721854304636	-0.317086092715232	-2.3364238410596	10.0243708609272				0.900026490066225	0.0674966887417219	0.341933774834437	9.7517880794702	-5.82807947019868	3.58251655629139				0.0957880794701987	-0.494834437086093	-0.804238410596027	-1.09960264900662	1.55761589403974	-0.474701986754968			
51	1160	-0.200158940397351	0.0667549668874172	-0.951523178807947	2.55337748344371	-0.704635761589404	-1.74490066225166				0.992953642384106	0.127788079470199	0.0291390728476822	4.07390728476821	-5.29218543046358	2.49403973509934				-0.234172185430464	-0.0332715231788079	-0.88794701986755	-1.39258278145695	1.26649006622517	1.47973509933775				0.304529801324503	-0.0965298013245033	-0.901721854304636	0.802913907284768	-0.0964238410596001	8.90437086092715				0.900026490066225	0.0514966887417219	0.357933774834437	8.6317880794702	-5.54807947019868	3.02251655629139				0.111788079470199	-0.510834437086093	-0.788238410596027	-3.05960264900662	-0.402384105960265	0.0852980132450323			
52	1180	-0.184158940397351	0.0667549668874172	-0.951523178807947	3.95337748344371	0.135364238410596	-0.904900662251656				0.992953642384106	0.111788079470199	0.0451390728476822	4.91390728476821	-5.29218543046358	2.49403973509934				-0.250172185430464	-0.0332715231788079	-0.88794701986755	-0.832582781456954	1.54649006622517	1.47973509933775				0.304529801324503	-0.0965298013245033	-0.901721854304636	-2.83708609271523	-0.9364238410596	7.22437086092715				0.900026490066225	0.0514966887417219	0.341933774834437	9.4717880794702	-4.70807947019868	2.46251655629139				0.0957880794701987	-0.462834437086093	-0.788238410596027	-4.73960264900662	-0.682384105960265	0.0852980132450323			
53	1200	-0.184158940397351	0.0507549668874172	-0.935523178807947	2.83337748344371	0.135364238410596	-0.904900662251656				0.992953642384106	0.0957880794701987	0.0291390728476822	4.63390728476821	-7.25218543046358	1.09403973509934				-0.234172185430464	-0.0332715231788079	-0.88794701986755	1.96741721854305	0.706490066225167	0.0797350993377501				0.272529801324503	-0.0805298013245033	-0.885721854304636	-3.67708609271523	-2.6164238410596	6.38437086092715				0.900026490066225	0.0674966887417219	0.325933774834437	4.7117880794702	-1.06807947019868	1.62251655629139				0.0957880794701987	-0.478834437086093	-0.788238410596027	-0.539602649006623	-1.80238410596026	0.0852980132450323			
54	1220	-0.184158940397351	0.0507549668874172	-0.951523178807947	0.873377483443709	-0.144635761589404	-0.624900662251656				0.960953642384106	0.111788079470199	0.0291390728476822	1.83390728476821	-5.57218543046358	-0.585960264900661				-0.218172185430464	-0.0332715231788079	-0.88794701986755	2.52741721854305	0.146490066225167	-1.32026490066225				0.272529801324503	-0.0645298013245033	-0.901721854304636	0.242913907284768	0.7435761589404	4.70437086092715				0.916026490066225	0.0674966887417219	0.341933774834437	4.4317880794702	-1.90807947019868	1.34251655629139				0.0797880794701987	-0.478834437086093	-0.804238410596027	-1.09960264900662	-1.52238410596026	-1.59470198675497			
55	1240	-0.200158940397351	0.0667549668874172	-0.951523178807947	0.593377483443709	0.135364238410596	-0.344900662251656				0.976953642384106	0.0957880794701987	0.0131390728476822	1.27390728476821	-4.45218543046358	-0.30596026490066				-0.234172185430464	-0.0332715231788079	-0.87194701986755	0.287417218543046	-0.133509933774833	-1.88026490066225				0.288529801324503	-0.0805298013245033	-0.917721854304636	3.60291390728477	1.8635761589404	3.58437086092715				0.932026490066225	0.0514966887417219	0.325933774834437	5.5517880794702	-2.46807947019868	1.62251655629139				0.0797880794701987	-0.478834437086093	-0.820238410596026	0.580397350993377	-0.122384105960265	-1.87470198675497			
56	1260	-0.200158940397351	0.0667549668874172	-0.951523178807947	0.593377483443709	-0.424635761589404	-0.624900662251656				0.976953642384106	0.127788079470199	0.0291390728476822	-1.80609271523179	-2.21218543046358	-3.10596026490066				-0.250172185430464	-0.0332715231788079	-0.87194701986755	-1.67258278145695	-0.693509933774834	-1.32026490066225				0.288529801324503	-0.0965298013245033	-0.917721854304636	-0.317086092715232	-1.7764238410596	3.58437086092715				0.916026490066225	0.0514966887417219	0.325933774834437	3.8717880794702	-4.42807947019868	2.18251655629139				0.0797880794701987	-0.478834437086093	-0.820238410596026	-3.61960264900662	1.27761589403974	-1.87470198675497			
57	1280	-0.200158940397351	0.0667549668874172	-0.951523178807947	1.15337748344371	0.135364238410596	0.495099337748344				0.960953642384106	0.127788079470199	0.0451390728476822	-1.80609271523179	-0.532185430463576	-2.82596026490066				-0.250172185430464	-0.0492715231788079	-0.88794701986755	0.567417218543046	-0.413509933774833	-1.04026490066225				0.288529801324503	-0.0965298013245033	-0.917721854304636	0.242913907284768	-1.7764238410596	1.34437086092715				0.916026490066225	0.0674966887417219	0.309933774834437	-0.328211920529802	-2.74807947019868	0.222516556291392				0.0957880794701987	-0.478834437086093	-0.820238410596026	-3.05960264900662	-0.962384105960265	-1.87470198675497			
58	1300	-0.200158940397351	0.0667549668874172	-0.951523178807947	-0.246622516556291	0.415364238410596	0.775099337748344				0.992953642384106	0.143788079470199	0.0291390728476822	1.83390728476821	-2.77218543046358	-0.585960264900661				-0.250172185430464	-0.0492715231788079	-0.88794701986755	-0.272582781456954	-0.413509933774833	-1.32026490066225				0.272529801324503	-0.0805298013245033	-0.933721854304636	2.76291390728477	0.4635761589404	0.504370860927152				0.900026490066225	0.0674966887417219	0.325933774834437	-1.1682119205298	-3.30807947019868	-0.897483443708608				0.0957880794701987	-0.478834437086093	-0.820238410596026	-1.37960264900662	-2.36238410596027	-2.71470198675497			
59	1320	-0.200158940397351	0.0667549668874172	-0.967523178807947	-1.08662251655629	0.695364238410596	1.05509933774834				0.976953642384106	0.159788079470199	0.0131390728476822	7.15390728476821	-1.65218543046358	0.53403973509934				-0.250172185430464	-0.0492715231788079	-0.88794701986755	-1.39258278145695	0.146490066225167	-0.48026490066225				0.272529801324503	-0.0965298013245033	-0.901721854304636	2.48291390728477	2.4235761589404	-0.615629139072848				0.916026490066225	0.0674966887417219	0.309933774834437	0.511788079470198	-4.14807947019868	0.222516556291392				0.0637880794701987	-0.478834437086093	-0.804238410596027	-1.09960264900662	-1.52238410596026	-3.55470198675497			
60	1340	-0.200158940397351	0.0827549668874172	-0.951523178807947	0.0333774834437086	0.975364238410596	0.775099337748344				0.992953642384106	0.143788079470199	0.0131390728476822	10.7939072847682	0.587814569536424	0.53403973509934				-0.250172185430464	-0.0332715231788079	-0.88794701986755	-1.39258278145695	2.10649006622517	-0.20026490066225				0.288529801324503	-0.0965298013245033	-0.885721854304636	2.20291390728477	0.1835761589404	-1.73562913907285				0.900026490066225	0.0674966887417219	0.309933774834437	-1.1682119205298	-2.18807947019868	0.222516556291392				0.0637880794701987	-0.462834437086093	-0.804238410596027	-2.49960264900662	-0.682384105960265	-3.83470198675497			
61	1360	-0.200158940397351	0.0827549668874172	-0.967523178807947	-0.246622516556291	0.415364238410596	0.495099337748344				0.992953642384106	0.127788079470199	0.0291390728476822	9.95390728476821	-2.77218543046358	0.81403973509934				-0.250172185430464	-0.0332715231788079	-0.88794701986755	-0.552582781456954	0.426490066225167	0.35973509933775				0.288529801324503	-0.0805298013245033	-0.917721854304636	-0.877086092715232	-2.6164238410596	-0.615629139072848				0.916026490066225	0.0834966887417219	0.309933774834437	-2.0082119205298	-1.62807947019868	-0.617483443708608				0.0637880794701987	-0.446834437086093	-0.836238410596026	-3.61960264900662	0.717615894039735	-4.11470198675497			
62	1380	-0.184158940397351	0.0667549668874172	-0.951523178807947	0.313377483443709	1.5353642384106	-0.0649006622516557				0.976953642384106	0.111788079470199	0.0131390728476822	5.75390728476821	-8.09218543046358	-0.86596026490066				-0.234172185430464	-0.0492715231788079	-0.87194701986755	0.847417218543046	0.706490066225167	0.63973509933775				0.304529801324503	-0.0805298013245033	-0.917721854304636	2.76291390728477	0.7435761589404	-0.615629139072848				0.932026490066225	0.0994966887417219	0.309933774834437	0.231788079470198	-1.62807947019868	-0.0574834437086077				0.0797880794701987	-0.446834437086093	-0.852238410596026	-0.819602649006623	0.157615894039735	-4.67470198675497			
63	1400	-0.200158940397351	0.0507549668874172	-0.935523178807947	-0.806622516556291	1.2553642384106	-0.624900662251656				0.960953642384106	0.127788079470199	-0.00286092715231785	2.39390728476821	-6.41218543046358	-0.30596026490066				-0.218172185430464	-0.0332715231788079	-0.87194701986755	-0.832582781456954	-0.693509933774834	0.0797350993377501				0.304529801324503	-0.0805298013245033	-0.949721854304636	6.12291390728477	2.7035761589404	-1.17562913907285				0.948026490066225	0.0674966887417219	0.325933774834437	2.1917880794702	-3.02807947019868	0.502516556291392				0.0797880794701987	-0.478834437086093	-0.836238410596026	-1.93960264900662	-0.402384105960265	-5.23470198675497			
64	1420	-0.184158940397351	0.0667549668874172	-0.935523178807947	-1.08662251655629	0.415364238410596	-0.344900662251656				0.976953642384106	0.127788079470199	-0.0188609271523178	3.51390728476821	-4.73218543046358	-0.30596026490066				-0.250172185430464	-0.0332715231788079	-0.87194701986755	-1.95258278145695	0.426490066225167	-0.20026490066225				0.288529801324503	-0.0805298013245033	-0.949721854304636	5.00291390728477	3.5435761589404	-1.45562913907285				0.948026490066225	0.0514966887417219	0.293933774834437	3.8717880794702	-6.66807947019868	0.782516556291392				0.0957880794701987	-0.478834437086093	-0.852238410596026	-5.29960264900662	0.717615894039735	-4.95470198675497			
65	1440	-0.200158940397351	0.0667549668874172	-0.935523178807947	-1.08662251655629	0.415364238410596	-1.74490066225166				0.976953642384106	0.143788079470199	0.0291390728476822	3.51390728476821	1.14781456953642	-0.86596026490066				-0.234172185430464	-0.0332715231788079	-0.90394701986755	-2.23258278145695	-0.693509933774834	-0.48026490066225				0.288529801324503	-0.0965298013245033	-0.917721854304636	1.92291390728477	-1.4964238410596	-3.13562913907285				0.868026490066225	0.0994966887417219	0.325933774834437	6.1117880794702	-5.54807947019868	1.62251655629139				0.0797880794701987	-0.462834437086093	-0.836238410596026	-4.17960264900662	-0.682384105960265	-3.83470198675497			
66	1460	-0.200158940397351	0.0667549668874172	-0.967523178807947	-0.246622516556291	0.975364238410596	-0.904900662251656				0.992953642384106	0.127788079470199	0.0771390728476822	2.95390728476821	-9.49218543046358	-2.82596026490066				-0.250172185430464	-0.0332715231788079	-0.90394701986755	-1.39258278145695	-0.413509933774833	-1.04026490066225				0.272529801324503	-0.0645298013245033	-0.901721854304636	-1.71708609271523	-7.0964238410596	-5.09562913907285				0.884026490066225	0.0514966887417219	0.325933774834437	6.6717880794702	0.891920529801325	1.34251655629139				0.0637880794701987	-0.446834437086093	-0.836238410596026	-1.37960264900662	-2.36238410596027	-3.83470198675497			
67	1480	-0.216158940397351	0.0827549668874172	-0.951523178807947	-0.806622516556291	1.2553642384106	0.775099337748344				0.992953642384106	0.127788079470199	0.0131390728476822	6.59390728476821	-11.7321854304636	-3.10596026490066				-0.250172185430464	-0.0332715231788079	-0.88794701986755	-0.552582781456954	-0.413509933774833	-0.48026490066225				0.272529801324503	-0.0645298013245033	-0.933721854304636	-0.877086092715232	-4.2964238410596	-4.25562913907285				0.948026490066225	0.0834966887417219	0.309933774834437	4.9917880794702	-1.90807947019868	1.90251655629139				0.0797880794701987	-0.462834437086093	-0.836238410596026	-0.539602649006623	-2.92238410596027	-4.95470198675497			
68	1500	-0.200158940397351	0.0667549668874172	-0.935523178807947	-0.806622516556291	0.975364238410596	0.215099337748344				0.976953642384106	0.159788079470199	-0.0348609271523178	4.07390728476821	-6.41218543046358	-3.38596026490066				-0.250172185430464	-0.0172715231788079	-0.88794701986755	0.00741721854304636	0.706490066225167	0.0797350993377501				0.288529801324503	-0.0965298013245033	-0.917721854304636	5.56291390728477	0.7435761589404	-4.53562913907285				0.948026490066225	0.0674966887417219	0.277933774834437	4.7117880794702	-2.46807947019868	0.782516556291392				0.0797880794701987	-0.462834437086093	-0.836238410596026	1.14039735099338	-2.64238410596027	-5.79470198675497			
69	1520	-0.200158940397351	0.0667549668874172	-0.951523178807947	-0.526622516556291	1.5353642384106	0.495099337748344				0.976953642384106	0.159788079470199	-0.0188609271523178	-3.20609271523179	-5.57218543046358	-3.66596026490066				-0.250172185430464	-0.0332715231788079	-0.88794701986755	0.567417218543046	0.426490066225167	-0.76026490066225				0.272529801324503	-0.112529801324503	-0.965721854304636	2.76291390728477	1.8635761589404	-5.09562913907285				0.916026490066225	0.0834966887417219	0.341933774834437	4.9917880794702	-0.228079470198675	-1.45748344370861				0.0797880794701987	-0.462834437086093	-0.836238410596026	-2.21960264900662	-2.36238410596027	-6.91470198675497			
70	1540	-0.200158940397351	0.0667549668874172	-0.951523178807947	-0.526622516556291	1.8153642384106	1.05509933774834				0.992953642384106	0.159788079470199	0.0131390728476822	-4.88609271523179	-9.77218543046358	-4.78596026490066				-0.250172185430464	-0.0332715231788079	-0.88794701986755	-0.832582781456954	1.82649006622517	-0.48026490066225				0.288529801324503	-0.0965298013245033	-0.965721854304636	1.64291390728477	0.4635761589404	-5.37562913907285				0.932026490066225	0.0674966887417219	0.293933774834437	3.8717880794702	-1.90807947019868	-2.29748344370861				0.0797880794701987	-0.462834437086093	-0.836238410596026	-3.61960264900662	-2.08238410596027	-7.47470198675497			
71	1560	-0.200158940397351	0.0667549668874172	-0.935523178807947	-0.806622516556291	1.8153642384106	1.33509933774834				0.960953642384106	0.143788079470199	-0.00286092715231785	0.713907284768212	-10.8921854304636	-2.54596026490066				-0.250172185430464	-0.0172715231788079	-0.88794701986755	-1.11258278145695	0.146490066225167	-1.04026490066225				0.304529801324503	-0.0645298013245033	-0.949721854304636	-0.877086092715232	-0.9364238410596	-7.05562913907285				0.964026490066225	0.0834966887417219	0.309933774834437	5.5517880794702	-3.02807947019868	-1.73748344370861				0.111788079470199	-0.446834437086093	-0.852238410596026	-6.41960264900662	-2.64238410596027	-8.59470198675497			
72	1580	-0.184158940397351	0.0827549668874172	-0.935523178807947	-2.76662251655629	1.2553642384106	2.17509933774834				0.976953642384106	0.159788079470199	-0.00286092715231785	4.91390728476821	-5.01218543046358	-2.82596026490066				-0.250172185430464	-0.0172715231788079	-0.87194701986755	-0.272582781456954	0.706490066225167	0.0797350993377501				0.304529801324503	-0.0805298013245033	-0.933721854304636	0.242913907284768	-2.6164238410596	-8.17562913907285				0.932026490066225	0.0994966887417219	0.309933774834437	6.6717880794702	-4.14807947019868	-1.17748344370861				0.111788079470199	-0.446834437086093	-0.852238410596026	-3.05960264900662	-2.92238410596027	-8.87470198675497			
73	1600	-0.184158940397351	0.0827549668874172	-0.935523178807947	-2.20662251655629	1.5353642384106	2.73509933774834				0.976953642384106	0.175788079470199	-0.0188609271523178	10.5139072847682	-4.17218543046358	0.25403973509934				-0.250172185430464	-0.0332715231788079	-0.88794701986755	0.567417218543046	0.146490066225167	0.35973509933775				0.288529801324503	-0.0805298013245033	-0.933721854304636	-2.27708609271523	-3.7364238410596	-9.29562913907285				0.916026490066225	0.115496688741722	0.277933774834437	5.8317880794702	-4.98807947019868	-0.897483443708608				0.0797880794701987	-0.446834437086093	-0.820238410596026	-1.37960264900662	-4.04238410596027	-10.274701986755			
74	1620	-0.200158940397351	0.0827549668874172	-0.951523178807947	0.313377483443709	0.695364238410596	3.01509933774834				0.960953642384106	0.159788079470199	-0.0188609271523178	9.67390728476821	-4.73218543046358	1.65403973509934				-0.234172185430464	-0.0332715231788079	-0.88794701986755	0.287417218543046	0.986490066225167	-0.20026490066225				0.304529801324503	-0.0965298013245033	-0.917721854304636	-4.23708609271523	-5.1364238410596	-8.45562913907285				0.916026490066225	0.0994966887417219	0.293933774834437	9.4717880794702	-3.58807947019868	0.222516556291392				0.0797880794701987	-0.462834437086093	-0.852238410596026	-2.49960264900662	-5.16238410596027	-7.75470198675497			
75	1640	-0.200158940397351	0.0667549668874172	-0.951523178807947	0.0333774834437086	0.975364238410596	1.33509933774834				0.976953642384106	0.143788079470199	-0.0348609271523178	4.35390728476821	-0.532185430463576	0.81403973509934				-0.218172185430464	-0.0332715231788079	-0.88794701986755	0.287417218543046	1.54649006622517	0.0797350993377501				0.304529801324503	-0.0805298013245033	-0.949721854304636	-6.47708609271523	-7.0964238410596	-8.17562913907285				0.932026490066225	0.115496688741722	0.293933774834437	9.1917880794702	-3.86807947019868	-0.0574834437086077				0.0637880794701987	-0.446834437086093	-0.852238410596026	-5.01960264900662	-6.56238410596027	-6.63470198675497			
76	1660	-0.184158940397351	0.0827549668874172	-0.951523178807947	-2.48662251655629	0.975364238410596	1.33509933774834				0.992953642384106	0.159788079470199	-0.0348609271523178	3.79390728476821	-5.57218543046358	1.93403973509934				-0.234172185430464	-0.0332715231788079	-0.87194701986755	-1.11258278145695	-0.133509933774833	-0.48026490066225				0.288529801324503	-0.0645298013245033	-0.917721854304636	-2.55708609271523	-3.4564238410596	-5.93562913907285				0.932026490066225	0.0994966887417219	0.277933774834437	13.6717880794702	-5.26807947019868	1.34251655629139				0.0797880794701987	-0.430834437086093	-0.852238410596026	-3.89960264900662	-6.84238410596027	-5.79470198675497			
77	1680	-0.184158940397351	0.0827549668874172	-0.951523178807947	-1.08662251655629	0.135364238410596	1.05509933774834				0.976953642384106	0.159788079470199	-0.00286092715231785	4.63390728476821	-8.09218543046358	2.49403973509934				-0.250172185430464	-0.0332715231788079	-0.87194701986755	1.12741721854305	0.146490066225167	-1.04026490066225				0.288529801324503	-0.0805298013245033	-0.901721854304636	0.522913907284768	-2.0564238410596	-5.37562913907285				0.932026490066225	0.0994966887417219	0.277933774834437	15.3517880794702	-5.82807947019868	1.62251655629139				0.0797880794701987	-0.430834437086093	-0.836238410596026	-3.33960264900662	-6.84238410596027	-6.07470198675497			
78	1700	-0.200158940397351	0.0827549668874172	-0.935523178807947	-0.806622516556291	0.135364238410596	1.61509933774834				0.976953642384106	0.159788079470199	0.0131390728476822	4.63390728476821	-8.37218543046358	3.33403973509934				-0.250172185430464	-0.0332715231788079	-0.88794701986755	0.847417218543046	0.426490066225167	-0.48026490066225				0.272529801324503	-0.0645298013245033	-0.917721854304636	-1.15708609271523	-3.7364238410596	-5.37562913907285				0.900026490066225	0.0834966887417219	0.293933774834437	15.9117880794702	-4.98807947019868	0.502516556291392				0.0637880794701987	-0.430834437086093	-0.852238410596026	-4.17960264900662	-4.88238410596027	-7.19470198675497			
79	1720	-0.200158940397351	0.0827549668874172	-0.967523178807947	-2.20662251655629	-0.424635761589404	1.89509933774834				0.992953642384106	0.143788079470199	-0.00286092715231785	6.31390728476821	-8.93218543046358	2.49403973509934				-0.234172185430464	-0.0172715231788079	-0.90394701986755	-1.11258278145695	0.706490066225167	-0.20026490066225				0.272529801324503	-0.0645298013245033	-0.917721854304636	-2.55708609271523	-4.5764238410596	-4.81562913907285				0.916026490066225	0.0834966887417219	0.293933774834437	15.6317880794702	-3.58807947019868	1.34251655629139				0.0797880794701987	-0.430834437086093	-0.852238410596026	-2.49960264900662	-4.88238410596027	-7.47470198675497			
80	1740	-0.200158940397351	0.0827549668874172	-0.967523178807947	0.0333774834437086	1.2553642384106	1.33509933774834				0.992953642384106	0.143788079470199	-0.0508609271523178	8.27390728476821	-6.97218543046358	1.09403973509934				-0.250172185430464	-0.0172715231788079	-0.90394701986755	0.567417218543046	0.146490066225167	-0.20026490066225				0.240529801324503	-0.0645298013245033	-0.949721854304636	-2.55708609271523	-4.2964238410596	-4.53562913907285				0.948026490066225	0.0834966887417219	0.261933774834437	13.3917880794702	-6.10807947019868	2.18251655629139				0.0957880794701987	-0.414834437086093	-0.884238410596026	-1.65960264900662	-3.76238410596027	-8.03470198675497			
81	1760	-0.200158940397351	0.0827549668874172	-0.951523178807947	0.313377483443709	1.5353642384106	1.33509933774834				0.992953642384106	0.143788079470199	-0.0348609271523178	4.07390728476821	-4.73218543046358	1.65403973509934				-0.250172185430464	-0.0332715231788079	-0.88794701986755	0.567417218543046	0.986490066225167	0.0797350993377501				0.224529801324503	-0.0645298013245033	-0.949721854304636	-0.317086092715232	-2.0564238410596	-5.93562913907285				0.948026490066225	0.0834966887417219	0.245933774834437	12.8317880794702	-3.58807947019868	0.502516556291392				0.0637880794701987	-0.446834437086093	-0.836238410596026	3.94039735099338	-7.12238410596027	-8.31470198675497			
82	1780	-0.184158940397351	0.0827549668874172	-0.951523178807947	0.873377483443709	1.2553642384106	1.61509933774834				0.992953642384106	0.159788079470199	-0.0508609271523178	3.79390728476821	-6.13218543046358	2.21403973509934				-0.250172185430464	-0.0332715231788079	-0.88794701986755	1.40741721854305	0.986490066225167	0.0797350993377501				0.224529801324503	-0.0805298013245033	-0.949721854304636	-0.597086092715232	-1.2164238410596	-7.05562913907285				0.932026490066225	0.0834966887417219	0.277933774834437	12.5517880794702	-2.18807947019868	0.502516556291392				0.0637880794701987	-0.462834437086093	-0.868238410596026	-0.539602649006623	-5.72238410596027	-7.75470198675497			
83	1800	-0.184158940397351	0.0827549668874172	-0.951523178807947	-1.08662251655629	0.695364238410596	1.33509933774834				0.976953642384106	0.127788079470199	-0.0348609271523178	4.35390728476821	-5.29218543046358	3.33403973509934				-0.234172185430464	-0.0332715231788079	-0.88794701986755	2.24741721854305	0.986490066225167	-1.04026490066225				0.224529801324503	-0.0645298013245033	-0.933721854304636	-4.23708609271523	-3.4564238410596	-8.17562913907285				0.932026490066225	0.0834966887417219	0.277933774834437	8.3517880794702	-0.228079470198675	0.502516556291392				0.0797880794701987	-0.462834437086093	-0.852238410596026	-1.09960264900662	-6.00238410596027	-7.19470198675497			
84	1820	-0.184158940397351	0.0827549668874172	-0.951523178807947	-2.76662251655629	0.415364238410596	0.775099337748344				0.976953642384106	0.143788079470199	-0.0508609271523178	4.07390728476821	-6.13218543046358	4.17403973509934				-0.234172185430464	-0.0332715231788079	-0.88794701986755	1.68741721854305	-0.133509933774833	-1.32026490066225				0.224529801324503	-0.0485298013245033	-0.917721854304636	-5.07708609271523	-2.8964238410596	-8.17562913907285				0.932026490066225	0.0834966887417219	0.261933774834437	3.3117880794702	0.611920529801325	-0.897483443708608				0.0957880794701987	-0.446834437086093	-0.836238410596026	-3.89960264900662	-3.20238410596026	-5.79470198675497			
85	1840	-0.200158940397351	0.0827549668874172	-0.935523178807947	-1.92662251655629	0.135364238410596	0.775099337748344				0.992953642384106	0.143788079470199	-0.0508609271523178	2.67390728476821	-6.41218543046358	6.69403973509934				-0.234172185430464	-0.0332715231788079	-0.87194701986755	0.567417218543046	0.146490066225167	-1.04026490066225				0.224529801324503	-0.0485298013245033	-0.933721854304636	0.802913907284768	-0.3764238410596	-6.49562913907285				0.964026490066225	0.0994966887417219	0.261933774834437	2.7517880794702	-1.62807947019868	-0.0574834437086077				0.0797880794701987	-0.430834437086093	-0.852238410596026	1.42039735099338	-4.60238410596027	-5.79470198675497			
86	1860	-0.200158940397351	0.0827549668874172	-0.935523178807947	-0.246622516556291	-0.424635761589404	0.495099337748344				0.976953642384106	0.143788079470199	-0.0668609271523178	1.55390728476821	-7.81218543046358	7.53403973509934				-0.250172185430464	-0.0332715231788079	-0.88794701986755	1.40741721854305	0.426490066225167	-1.32026490066225				0.240529801324503	-0.0645298013245033	-0.949721854304636	2.20291390728477	2.1435761589404	-6.77562913907285				0.964026490066225	0.0994966887417219	0.245933774834437	2.4717880794702	-2.74807947019868	0.222516556291392				0.0637880794701987	-0.446834437086093	-0.852238410596026	3.66039735099338	-3.48238410596027	-5.79470198675497			
87	1880	-0.216158940397351	0.0987549668874172	-0.951523178807947	-2.20662251655629	-0.704635761589404	-0.904900662251656				0.976953642384106	0.111788079470199	-0.0668609271523178	0.433907284768212	-1.37218543046358	4.45403973509934				-0.250172185430464	-0.0332715231788079	-0.88794701986755	1.40741721854305	0.986490066225167	-0.76026490066225				0.240529801324503	-0.0805298013245033	-0.949721854304636	-2.83708609271523	-0.3764238410596	-6.21562913907285				0.916026490066225	0.0834966887417219	0.261933774834437	3.0317880794702	-1.34807947019868	-0.617483443708608				0.0477880794701987	-0.446834437086093	-0.820238410596026	2.54039735099338	-3.76238410596027	-4.11470198675497			
88	1900	-0.200158940397351	0.0987549668874172	-0.967523178807947	-3.04662251655629	0.975364238410596	0.495099337748344				0.976953642384106	0.143788079470199	-0.0508609271523178	-0.966092715231788	-4.73218543046358	3.05403973509934				-0.250172185430464	-0.0332715231788079	-0.88794701986755	1.40741721854305	1.26649006622517	0.0797350993377501				0.224529801324503	-0.0485298013245033	-0.933721854304636	-5.35708609271523	-1.4964238410596	-6.21562913907285				0.932026490066225	0.0834966887417219	0.277933774834437	-0.0482119205298018	0.0519205298013249	-1.73748344370861				0.0317880794701987	-0.430834437086093	-0.852238410596026	-0.259602649006623	-2.92238410596027	-2.43470198675497			
89	1920	-0.200158940397351	0.0987549668874172	-0.951523178807947	-1.92662251655629	1.5353642384106	0.495099337748344				0.992953642384106	0.127788079470199	-0.0828609271523179	-1.80609271523179	-3.05218543046358	5.01403973509934				-0.250172185430464	-0.0332715231788079	-0.88794701986755	1.40741721854305	0.426490066225167	0.35973509933775				0.240529801324503	-0.0325298013245033	-0.933721854304636	-2.55708609271523	1.3035761589404	-4.53562913907285				0.948026490066225	0.0994966887417219	0.261933774834437	0.791788079470198	1.17192052980133	-0.617483443708608				0.0637880794701987	-0.446834437086093	-0.868238410596026	1.70039735099338	-0.682384105960265	-1.87470198675497			
90	1940	0	0	0	0	0	0				0	0	0	0	0	0				0	0	0	0	0	0				0.240529801324503	-0.0485298013245033	-0.949721854304636	1.64291390728477	1.0235761589404	-2.85562913907285				0.964026490066225	0.0994966887417219	0.277933774834437	1.6317880794702	1.17192052980133	0.222516556291392				0.0637880794701987	-0.446834437086093	-0.852238410596026	1.42039735099338	2.67761589403974	-1.03470198675497			
91	1960	0	0	0	0	0	0				0	0	0	0	0	0				0	0	0	0	0	0				0.240529801324503	-0.0485298013245033	-0.933721854304636	-2.27708609271523	-0.3764238410596	-0.895629139072848				0.964026490066225	0.0834966887417219	0.245933774834437	0.511788079470198	-2.18807947019868	1.06251655629139				0.0797880794701987	-0.462834437086093	-0.852238410596026	0.0203973509933773	3.79761589403974	0.645298013245032			
92	2040	0	0	0	0	0	0				0	0	0	0	0	0				0	0	0	0	0	0				0.272529801324503	-0.0325298013245033	-0.949721854304636	1.64291390728477	2.7035761589404	5.54437086092715				0.948026490066225	0.0994966887417219	0.293933774834437	-5.3682119205298	4.53192052980133	0.502516556291392				0.0797880794701987	-0.462834437086093	-0.852238410596026	5.62039735099338	4.07761589403974	7.64529801324503			
93	2060	0	0	0	0	0	0				0	0	0	0	0	0				0	0	0	0	0	0				0.272529801324503	-0.0805298013245033	-0.949721854304636	-3.11708609271523	1.3035761589404	6.10437086092715				0.948026490066225	0.0994966887417219	0.261933774834437	-4.2482119205298	3.97192052980133	1.06251655629139				0.0797880794701987	-0.462834437086093	-0.836238410596026	2.82039735099338	5.47761589403974	7.36529801324503			
94	2080	0	0	0	0	0	0				0	0	0	0	0	0				-0.234172185430464	-0.0332715231788079	-0.88794701986755	0.847417218543046	0.426490066225167	-0.48026490066225				0.304529801324503	-0.0645298013245033	-0.901721854304636	-2.27708609271523	1.5835761589404	3.02437086092715				0.916026490066225	0.0994966887417219	0.277933774834437	-7.3282119205298	6.21192052980133	1.06251655629139				0.0957880794701987	-0.446834437086093	-0.852238410596026	0.0203973509933773	6.03761589403974	8.20529801324503			
95	2100	-0.184158940397351	0.0827549668874172	-0.951523178807947	0.593377483443709	0.695364238410596	-0.904900662251656				0.992953642384106	0.111788079470199	0.0131390728476822	6.31390728476821	-2.21218543046358	7.81403973509934				-0.250172185430464	-0.0332715231788079	-0.88794701986755	2.24741721854305	0.426490066225167	-1.04026490066225				0.304529801324503	-0.0165298013245033	-0.901721854304636	1.36291390728477	2.1435761589404	3.58437086092715				0.900026490066225	0.115496688741722	0.309933774834437	-2.2882119205298	4.53192052980133	1.90251655629139				0.0797880794701987	-0.446834437086093	-0.820238410596026	1.70039735099338	6.59761589403974	8.20529801324503			
96	2120	-0.200158940397351	0.0827549668874172	-0.951523178807947	0.873377483443709	0.415364238410596	-1.46490066225166				0.960953642384106	0.0957880794701987	-0.0348609271523178	7.15390728476821	-7.53218543046358	6.69403973509934				-0.250172185430464	-0.0332715231788079	-0.88794701986755	1.68741721854305	1.26649006622517	-1.04026490066225				0.304529801324503	-0.0165298013245033	-0.869721854304636	-2.55708609271523	-1.4964238410596	3.86437086092715				0.868026490066225	0.115496688741722	0.309933774834437	-3.6882119205298	4.81192052980133	1.34251655629139				0.0637880794701987	-0.414834437086093	-0.804238410596027	-2.49960264900662	5.47761589403974	10.165298013245			
97	2140	-0.200158940397351	0.0827549668874172	-0.951523178807947	-0.526622516556291	0.415364238410596	-1.74490066225166				0.976953642384106	0.111788079470199	-0.0508609271523178	4.07390728476821	-10.8921854304636	4.45403973509934				-0.234172185430464	-0.0332715231788079	-0.88794701986755	0.00741721854304636	0.706490066225167	-1.32026490066225				0.288529801324503	-0.0165298013245033	-0.885721854304636	-4.79708609271523	-3.7364238410596	5.54437086092715				0.884026490066225	0.115496688741722	0.325933774834437	0.791788079470198	7.05192052980133	3.30251655629139				0.0797880794701987	-0.430834437086093	-0.836238410596026	-1.09960264900662	4.91761589403974	12.965298013245			
98	2160	-0.184158940397351	0.0827549668874172	-0.951523178807947	-1.92662251655629	-0.424635761589404	-2.02490066225166				0.960953642384106	0.127788079470199	-0.114860927152318	2.95390728476821	-7.81218543046358	4.73403973509934				-0.250172185430464	-0.0332715231788079	-0.88794701986755	0.847417218543046	0.426490066225167	-1.32026490066225				0.272529801324503	-0.0165298013245033	-0.917721854304636	-1.99708609271523	0.4635761589404	5.82437086092715				0.948026490066225	0.115496688741722	0.325933774834437	-0.328211920529802	7.33192052980133	4.14251655629139				0.0957880794701987	-0.446834437086093	-0.820238410596026	3.10039735099338	4.63761589403974	11.005298013245			
99	2180	-0.184158940397351	0.0987549668874172	-0.951523178807947	-0.806622516556291	-0.704635761589404	-0.904900662251656				0.976953642384106	0.111788079470199	-0.0508609271523178	0.433907284768212	-4.73218543046358	5.29403973509934				-0.234172185430464	-0.0172715231788079	-0.88794701986755	1.12741721854305	-0.133509933774833	-1.04026490066225				0.320529801324503	-0.0325298013245033	-0.917721854304636	5.56291390728477	6.0635761589404	4.98437086092715				0.948026490066225	0.0994966887417219	0.309933774834437	3.8717880794702	7.05192052980133	4.98251655629139				0.127788079470199	-0.446834437086093	-0.836238410596026	0.580397350993377	10.2376158940397	9.04529801324503			
100	2200	-0.168158940397351	0.0987549668874172	-0.951523178807947	1.15337748344371	0.975364238410596	-1.18490066225166				0.976953642384106	0.127788079470199	-0.0668609271523178	2.39390728476821	-5.01218543046358	4.73403973509934				-0.234172185430464	-0.0172715231788079	-0.88794701986755	0.287417218543046	0.426490066225167	-0.48026490066225				0.304529801324503	-0.0645298013245033	-0.949721854304636	6.12291390728477	7.4635761589404	3.30437086092715				0.916026490066225	0.0674966887417219	0.325933774834437	5.8317880794702	5.09192052980133	3.86251655629139				0.127788079470199	-0.446834437086093	-0.836238410596026	5.62039735099338	9.11761589403974	7.92529801324503			
101	2220	-0.184158940397351	0.0827549668874172	-0.935523178807947	0.593377483443709	0.135364238410596	-0.904900662251656				0.960953642384106	0.111788079470199	-0.0828609271523179	1.55390728476821	-0.812185430463576	3.33403973509934				-0.234172185430464	-0.0332715231788079	-0.90394701986755	2.80741721854305	0.706490066225167	-1.32026490066225				0.288529801324503	-0.0645298013245033	-0.901721854304636	3.32291390728477	5.5035761589404	-0.0556291390728476				0.916026490066225	0.0514966887417219	0.293933774834437	3.8717880794702	2.57192052980133	3.02251655629139				0.0957880794701987	-0.462834437086093	-0.804238410596027	5.90039735099338	6.31761589403974	7.08529801324503			
102	2240	-0.184158940397351	0.0827549668874172	-0.935523178807947	0.593377483443709	-0.424635761589404	-0.624900662251656				0.960953642384106	0.111788079470199	-0.0668609271523178	-0.406092715231788	3.94781456953642	2.49403973509934				-0.250172185430464	-0.0332715231788079	-0.88794701986755	1.96741721854305	0.426490066225167	-1.04026490066225				0.272529801324503	-0.0805298013245033	-0.933721854304636	-0.317086092715232	1.8635761589404	-1.45562913907285				0.916026490066225	0.0354966887417219	0.293933774834437	-1.1682119205298	2.57192052980133	1.34251655629139				0.0797880794701987	-0.478834437086093	-0.820238410596026	1.98039735099338	5.47761589403974	5.68529801324503			
103	2260	-0.200158940397351	0.0827549668874172	-0.967523178807947	1.43337748344371	-0.704635761589404	-1.74490066225166				0.976953642384106	0.0957880794701987	-0.0508609271523178	-0.686092715231788	5.34781456953642	2.21403973509934				-0.234172185430464	-0.0332715231788079	-0.88794701986755	0.00741721854304636	0.146490066225167	-0.48026490066225				0.240529801324503	-0.0965298013245033	-0.965721854304636	1.36291390728477	1.8635761589404	-0.335629139072848				0.900026490066225	0.0834966887417219	0.309933774834437	-2.2882119205298	1.17192052980133	0.502516556291392				0.0797880794701987	-0.446834437086093	-0.836238410596026	-1.93960264900662	6.03761589403974	6.52529801324503			
104	2280	-0.184158940397351	0.0987549668874172	-0.951523178807947	0.593377483443709	-0.704635761589404	-1.18490066225166				0.976953642384106	0.0957880794701987	-0.0508609271523178	-0.966092715231788	3.94781456953642	0.81403973509934				-0.234172185430464	-0.0332715231788079	-0.88794701986755	0.847417218543046	0.426490066225167	-0.76026490066225				0.256529801324503	-0.0965298013245033	-0.917721854304636	-0.877086092715232	2.1435761589404	2.46437086092715				0.900026490066225	0.0674966887417219	0.277933774834437	-3.6882119205298	4.53192052980133	0.782516556291392				0.0637880794701987	-0.430834437086093	-0.836238410596026	2.82039735099338	4.63761589403974	6.52529801324503			
105	2300	-0.200158940397351	0.0827549668874172	-0.951523178807947	0.873377483443709	-0.144635761589404	-1.18490066225166				0.976953642384106	0.0957880794701987	-0.0828609271523179	0.153907284768212	3.66781456953642	1.09403973509934				-0.250172185430464	-0.0332715231788079	-0.87194701986755	2.24741721854305	-0.693509933774834	-1.04026490066225				0.272529801324503	-0.0485298013245033	-0.901721854304636	-0.877086092715232	-0.9364238410596	2.46437086092715				0.932026490066225	0.0674966887417219	0.293933774834437	-1.4482119205298	4.81192052980133	-0.0574834437086077				0.0637880794701987	-0.414834437086093	-0.804238410596027	2.54039735099338	5.75761589403974	4.84529801324503			
106	2320	-0.200158940397351	0.0827549668874172	-0.951523178807947	0.313377483443709	-0.704635761589404	-1.18490066225166				0.976953642384106	0.111788079470199	-0.0668609271523178	-2.08609271523179	6.74781456953642	0.25403973509934				-0.250172185430464	-0.0332715231788079	-0.88794701986755	0.847417218543046	-0.133509933774833	-0.20026490066225				0.304529801324503	-0.0485298013245033	-0.901721854304636	0.522913907284768	1.0235761589404	3.02437086092715				0.900026490066225	0.0834966887417219	0.325933774834437	-0.0482119205298018	5.65192052980133	1.06251655629139				0.0797880794701987	-0.430834437086093	-0.788238410596027	1.98039735099338	8.83761589403974	2.60529801324503			
107	2340	0	0	0	0	0	0				0.992953642384106	0.111788079470199	-0.0828609271523179	-4.04609271523179	7.30781456953642	0.81403973509934				-0.250172185430464	-0.0492715231788079	-0.88794701986755	0.847417218543046	0.986490066225167	-0.48026490066225				0.304529801324503	-0.0325298013245033	-0.933721854304636	3.32291390728477	3.5435761589404	2.46437086092715				0.932026490066225	0.0834966887417219	0.325933774834437	-2.0082119205298	3.97192052980133	-0.617483443708608				0.0957880794701987	-0.430834437086093	-0.804238410596027	3.10039735099338	8.27761589403974	-0.754701986754968			
108	2360	-0.200158940397351	0.0827549668874172	-0.903523178807947	-0.246622516556291	0.135364238410596	-1.46490066225166				0.992953642384106	0.111788079470199	-0.0188609271523178	-6.00609271523179	9.82781456953643	0.81403973509934				-0.250172185430464	-0.0332715231788079	-0.88794701986755	0.847417218543046	0.706490066225167	-0.48026490066225				0.304529801324503	-0.0485298013245033	-0.933721854304636	4.44291390728477	4.6635761589404	0.504370860927152				0.932026490066225	0.0674966887417219	0.325933774834437	1.3517880794702	1.17192052980133	-1.17748344370861				0.0957880794701987	-0.446834437086093	-0.852238410596026	2.26039735099338	7.15761589403974	-4.67470198675497			
109	2380	-0.200158940397351	0.0667549668874172	-0.951523178807947	1.15337748344371	-0.144635761589404	-1.18490066225166				0.992953642384106	0.0957880794701987	-0.00286092715231785	-2.92609271523179	4.78781456953642	1.09403973509934				-0.234172185430464	-0.0332715231788079	-0.88794701986755	0.567417218543046	0.146490066225167	0.0797350993377501				0.320529801324503	-0.0645298013245033	-0.949721854304636	1.64291390728477	1.8635761589404	-2.01562913907285				0.932026490066225	0.0834966887417219	0.309933774834437	-0.888211920529802	2.01192052980133	-2.01748344370861				0.0957880794701987	-0.462834437086093	-0.868238410596026	1.70039735099338	5.47761589403974	-6.91470198675497			
110	2400	-0.200158940397351	0.0667549668874172	-0.967523178807947	-0.526622516556291	-0.424635761589404	-1.74490066225166				0.992953642384106	0.111788079470199	-0.0188609271523178	-1.80609271523179	2.26781456953642	0.25403973509934				-0.250172185430464	-0.0332715231788079	-0.87194701986755	0.287417218543046	0.426490066225167	-0.20026490066225				0.320529801324503	-0.0645298013245033	-0.933721854304636	2.20291390728477	0.1835761589404	-4.53562913907285				0.932026490066225	0.0834966887417219	0.325933774834437	1.3517880794702	1.45192052980132	-1.45748344370861				0.111788079470199	-0.478834437086093	-0.852238410596026	0.0203973509933773	4.35761589403974	-6.91470198675497			
111	2420	-0.200158940397351	0.0827549668874172	-0.951523178807947	-0.246622516556291	-0.144635761589404	-0.344900662251656				1.00895364238411	0.127788079470199	-0.0348609271523178	-0.406092715231788	-1.09218543046358	1.65403973509934				-0.250172185430464	-0.0332715231788079	-0.88794701986755	0.847417218543046	0.146490066225167	-0.48026490066225				0.320529801324503	-0.0485298013245033	-0.965721854304636	1.08291390728477	-2.8964238410596	-4.53562913907285				0.948026490066225	0.0994966887417219	0.325933774834437	1.0717880794702	0.331920529801325	-1.73748344370861				0.127788079470199	-0.494834437086093	-0.852238410596026	-2.49960264900662	3.23761589403974	-6.07470198675497			
112	2440	-0.200158940397351	0.0827549668874172	-0.967523178807947	0.873377483443709	0.135364238410596	-0.624900662251656				0.992953642384106	0.0957880794701987	-0.0188609271523178	1.83390728476821	-3.89218543046358	3.61403973509934				-0.266172185430464	-0.0332715231788079	-0.88794701986755	0.567417218543046	-0.693509933774834	-0.76026490066225				0.304529801324503	-0.0965298013245033	-0.949721854304636	0.522913907284768	-0.9364238410596	-2.57562913907285				0.932026490066225	0.115496688741722	0.325933774834437	3.5917880794702	-1.90807947019868	-0.337483443708608				0.111788079470199	-0.478834437086093	-0.868238410596026	-2.77960264900662	-0.402384105960265	-4.67470198675497			
113	2460	-0.200158940397351	0.0827549668874172	-0.951523178807947	-0.526622516556291	0.415364238410596	-0.904900662251656				0.992953642384106	0.111788079470199	-0.0348609271523178	4.63390728476821	-7.53218543046358	2.49403973509934				-0.250172185430464	-0.0172715231788079	-0.90394701986755	1.12741721854305	-0.693509933774834	-0.20026490066225				0.304529801324503	-0.0805298013245033	-0.917721854304636	-0.317086092715232	-3.1764238410596	-3.13562913907285				0.916026490066225	0.0834966887417219	0.309933774834437	2.7517880794702	1.17192052980133	-0.617483443708608				0.111788079470199	-0.478834437086093	-0.852238410596026	-2.77960264900662	-2.64238410596027	-3.83470198675497			
114	2480	-0.200158940397351	0.0827549668874172	-0.951523178807947	0.0333774834437086	0.695364238410596	-0.344900662251656				0.976953642384106	0.0957880794701987	-0.0508609271523178	4.07390728476821	-8.65218543046358	1.09403973509934				-0.234172185430464	-0.0332715231788079	-0.88794701986755	0.567417218543046	0.426490066225167	0.35973509933775				0.288529801324503	-0.0485298013245033	-0.917721854304636	-1.15708609271523	-4.2964238410596	-1.17562913907285				0.932026490066225	0.0674966887417219	0.325933774834437	2.4717880794702	1.17192052980133	-0.617483443708608				0.111788079470199	-0.462834437086093	-0.852238410596026	0.0203973509933773	-2.08238410596027	-3.27470198675497			
115	2500	-0.200158940397351	0.0827549668874172	-0.935523178807947	-0.246622516556291	1.2553642384106	-0.0649006622516557				0.976953642384106	0.0957880794701987	-0.0828609271523179	0.993907284768212	-7.53218543046358	1.09403973509934				-0.250172185430464	-0.0332715231788079	-0.88794701986755	0.847417218543046	0.706490066225167	0.0797350993377501				0.288529801324503	-0.0485298013245033	-0.917721854304636	1.36291390728477	-2.8964238410596	1.06437086092715				0.932026490066225	0.0834966887417219	0.309933774834437	-0.888211920529802	1.17192052980133	-1.17748344370861				0.111788079470199	-0.462834437086093	-0.836238410596026	-0.539602649006623	-0.682384105960265	-3.27470198675497			
116	2520	-0.184158940397351	0.0827549668874172	-0.951523178807947	0.313377483443709	0.975364238410596	-1.18490066225166				0.960953642384106	0.0957880794701987	-0.0828609271523179	-0.126092715231788	-6.13218543046358	0.81403973509934				-0.234172185430464	-0.0332715231788079	-0.88794701986755	0.567417218543046	0.426490066225167	-1.04026490066225				0.272529801324503	-0.0645298013245033	-0.949721854304636	3.04291390728477	-0.9364238410596	2.74437086092715				0.932026490066225	0.0834966887417219	0.325933774834437	1.3517880794702	0.611920529801325	0.222516556291392				0.127788079470199	-0.462834437086093	-0.836238410596026	1.70039735099338	-0.682384105960265	-2.99470198675497			
117	2540	-0.168158940397351	0.0827549668874172	-0.935523178807947	-1.36662251655629	0.695364238410596	-1.18490066225166				0.960953642384106	0.0797880794701987	-0.0668609271523178	0.433907284768212	-2.77218543046358	-0.0259602649006601				-0.234172185430464	-0.0332715231788079	-0.87194701986755	1.96741721854305	0.426490066225167	-1.32026490066225				0.240529801324503	-0.0645298013245033	-0.933721854304636	4.16291390728477	0.1835761589404	2.18437086092715				0.916026490066225	0.0674966887417219	0.309933774834437	3.3117880794702	0.0519205298013249	1.34251655629139				0.0957880794701987	-0.462834437086093	-0.836238410596026	1.14039735099338	-0.122384105960265	-1.87470198675497			
118	2560	-0.184158940397351	0.0827549668874172	-0.951523178807947	0.0333774834437086	-0.144635761589404	-1.18490066225166				0.960953642384106	0.0957880794701987	-0.0508609271523178	1.55390728476821	-1.37218543046358	-1.14596026490066				-0.234172185430464	-0.0332715231788079	-0.87194701986755	1.12741721854305	-0.413509933774833	-1.04026490066225				0.272529801324503	-0.0645298013245033	-0.933721854304636	1.08291390728477	-2.0564238410596	0.504370860927152				0.916026490066225	0.0674966887417219	0.309933774834437	1.0717880794702	1.45192052980132	1.06251655629139				0.111788079470199	-0.462834437086093	-0.836238410596026	-0.259602649006623	0.437615894039735	-1.87470198675497			
119	2580	-0.184158940397351	0.0987549668874172	-0.951523178807947	-1.08662251655629	0.135364238410596	-1.46490066225166				0.960953642384106	0.111788079470199	-0.0668609271523178	-0.686092715231788	1.42781456953642	-1.14596026490066				-0.234172185430464	-0.0332715231788079	-0.90394701986755	-0.552582781456954	-0.133509933774833	-0.76026490066225				0.288529801324503	-0.0645298013245033	-0.901721854304636	-1.43708609271523	-4.5764238410596	-1.17562913907285				0.900026490066225	0.0674966887417219	0.309933774834437	-1.1682119205298	1.73192052980133	0.222516556291392				0.0957880794701987	-0.446834437086093	-0.804238410596027	1.42039735099338	-0.402384105960265	-2.43470198675497			
120	2600	-0.200158940397351	0.0827549668874172	-0.951523178807947	-0.806622516556291	0.695364238410596	-1.74490066225166				0.960953642384106	0.111788079470199	-0.0828609271523179	-2.08609271523179	5.34781456953642	-1.98596026490066				-0.234172185430464	-0.0492715231788079	-0.88794701986755	-0.272582781456954	0.986490066225167	0.0797350993377501				0.288529801324503	-0.0485298013245033	-0.901721854304636	-1.71708609271523	-4.8564238410596	-0.335629139072848				0.900026490066225	0.0834966887417219	0.325933774834437	-1.4482119205298	0.331920529801325	-0.0574834437086077				0.0957880794701987	-0.446834437086093	-0.804238410596027	-0.259602649006623	1.55761589403974	-1.59470198675497			
121	2620	-0.184158940397351	0.0827549668874172	-0.935523178807947	0.873377483443709	-0.144635761589404	-1.18490066225166				0.976953642384106	0.127788079470199	-0.0508609271523178	-2.92609271523179	7.86781456953642	-0.585960264900661				-0.234172185430464	-0.0332715231788079	-0.87194701986755	0.567417218543046	0.426490066225167	-0.20026490066225				0.304529801324503	-0.0325298013245033	-0.917721854304636	1.64291390728477	-1.2164238410596	-0.335629139072848				0.916026490066225	0.0994966887417219	0.309933774834437	-4.2482119205298	-0.788079470198675	0.222516556291392				0.0957880794701987	-0.462834437086093	-0.804238410596027	-0.259602649006623	3.23761589403974	-2.43470198675497			
122	2640	-0.184158940397351	0.0827549668874172	-0.951523178807947	0.593377483443709	-0.984635761589404	-0.344900662251656				0.976953642384106	0.111788079470199	-0.0508609271523178	-1.80609271523179	9.26781456953642	-1.42596026490066				-0.250172185430464	-0.0332715231788079	-0.87194701986755	1.12741721854305	-0.133509933774833	0.63973509933775				0.288529801324503	-0.0325298013245033	-0.917721854304636	5.56291390728477	2.4235761589404	-1.73562913907285				0.916026490066225	0.0994966887417219	0.293933774834437	0.791788079470198	-3.58807947019868	0.222516556291392				0.0957880794701987	-0.430834437086093	-0.820238410596026	-1.09960264900662	4.07761589403974	-3.27470198675497			
123	2660	-0.200158940397351	0.0667549668874172	-0.967523178807947	-1.08662251655629	-0.704635761589404	-0.904900662251656				0.976953642384106	0.111788079470199	-0.0188609271523178	-5.72609271523179	8.70781456953642	-1.42596026490066				-0.250172185430464	-0.0332715231788079	-0.87194701986755	0.847417218543046	0.426490066225167	0.35973509933775				0.304529801324503	-0.0645298013245033	-0.917721854304636	2.20291390728477	-0.9364238410596	-3.13562913907285				0.900026490066225	0.0834966887417219	0.325933774834437	0.791788079470198	-1.34807947019868	-1.73748344370861				0.111788079470199	-0.430834437086093	-0.820238410596026	-2.21960264900662	2.11761589403974	-3.27470198675497			
124	2680	-0.200158940397351	0.0827549668874172	-0.951523178807947	-1.08662251655629	-0.144635761589404	-0.344900662251656				0.992953642384106	0.111788079470199	-0.0188609271523178	-4.32609271523179	3.10781456953642	-1.14596026490066				-0.234172185430464	-0.0332715231788079	-0.88794701986755	0.567417218543046	0.426490066225167	0.63973509933775				0.288529801324503	-0.0645298013245033	-0.917721854304636	0.802913907284768	-1.2164238410596	-3.41562913907285				0.900026490066225	0.0994966887417219	0.325933774834437	-2.2882119205298	-1.34807947019868	-2.01748344370861				0.127788079470199	-0.462834437086093	-0.836238410596026	-0.259602649006623	-0.682384105960265	-4.39470198675497			
125	2700	-0.200158940397351	0.0827549668874172	-0.951523178807947	0.593377483443709	0.135364238410596	-1.18490066225166				0.992953642384106	0.127788079470199	-0.0508609271523178	-4.60609271523179	1.98781456953642	-1.98596026490066				-0.250172185430464	-0.0332715231788079	-0.88794701986755	1.40741721854305	-1.25350993377483	0.0797350993377501				0.288529801324503	-0.0645298013245033	-0.917721854304636	1.64291390728477	0.7435761589404	-3.97562913907285				0.932026490066225	0.0994966887417219	0.309933774834437	1.3517880794702	-1.62807947019868	-0.617483443708608				0.127788079470199	-0.446834437086093	-0.836238410596026	-0.259602649006623	-0.402384105960265	-6.35470198675497			
126	2720	-0.184158940397351	0.0987549668874172	-0.951523178807947	-0.526622516556291	-0.144635761589404	-1.18490066225166				1.00895364238411	0.111788079470199	-0.0348609271523178	-4.32609271523179	0.867814569536424	-2.82596026490066				-0.250172185430464	-0.0172715231788079	-0.90394701986755	0.287417218543046	-1.25350993377483	0.63973509933775				0.288529801324503	-0.0645298013245033	-0.933721854304636	1.08291390728477	-0.0964238410596001	-2.57562913907285				0.932026490066225	0.0834966887417219	0.325933774834437	1.9117880794702	-2.46807947019868	-0.617483443708608				0.111788079470199	-0.462834437086093	-0.852238410596026	-3.05960264900662	0.437615894039735	-6.91470198675497			
127	2740	-0.200158940397351	0.0987549668874172	-0.951523178807947	-0.806622516556291	0.415364238410596	-0.624900662251656				1.00895364238411	0.111788079470199	-0.0348609271523178	-3.76609271523179	-1.65218543046358	-2.82596026490066				-0.250172185430464	-0.0332715231788079	-0.90394701986755	1.40741721854305	0.426490066225167	0.0797350993377501				0.288529801324503	-0.0645298013245033	-0.933721854304636	2.48291390728477	0.1835761589404	-2.85562913907285				0.948026490066225	0.0994966887417219	0.309933774834437	-0.328211920529802	-1.90807947019868	-0.0574834437086077				0.127788079470199	-0.462834437086093	-0.868238410596026	-1.65960264900662	-1.52238410596026	-5.79470198675497			
128	2760	-0.200158940397351	0.0987549668874172	-0.951523178807947	-0.246622516556291	-0.144635761589404	-1.18490066225166				0.992953642384106	0.111788079470199	-0.0508609271523178	-4.04609271523179	-2.49218543046358	-2.82596026490066				-0.250172185430464	-0.0332715231788079	-0.88794701986755	2.52741721854305	1.54649006622517	-0.48026490066225				0.288529801324503	-0.0485298013245033	-0.933721854304636	3.88291390728477	1.3035761589404	-2.01562913907285				0.932026490066225	0.0834966887417219	0.325933774834437	1.0717880794702	-0.788079470198675	-0.0574834437086077				0.111788079470199	-0.446834437086093	-0.852238410596026	-0.819602649006623	-1.80238410596026	-6.07470198675497			
129	2780	-0.200158940397351	0.0827549668874172	-0.951523178807947	1.15337748344371	1.2553642384106	-1.46490066225166				0.992953642384106	0.127788079470199	-0.0668609271523178	-4.32609271523179	-2.49218543046358	-2.26596026490066				-0.250172185430464	-0.0172715231788079	-0.88794701986755	1.96741721854305	1.26649006622517	0.0797350993377501				0.272529801324503	-0.0485298013245033	-0.949721854304636	4.72291390728477	3.2635761589404	-2.01562913907285				0.932026490066225	0.0994966887417219	0.325933774834437	1.6317880794702	-0.508079470198675	-0.0574834437086077				0.111788079470199	-0.446834437086093	-0.852238410596026	0.300397350993377	-3.48238410596027	-6.07470198675497			
130	2800	-0.184158940397351	0.0987549668874172	-0.951523178807947	0.313377483443709	1.2553642384106	-1.46490066225166				0.976953642384106	0.111788079470199	-0.0508609271523178	-6.00609271523179	-2.21218543046358	-2.54596026490066				-0.234172185430464	-0.0172715231788079	-0.88794701986755	2.52741721854305	0.426490066225167	-0.48026490066225				0.272529801324503	-0.0485298013245033	-0.933721854304636	4.44291390728477	2.9835761589404	-3.69562913907285				0.932026490066225	0.0834966887417219	0.293933774834437	0.791788079470198	-1.62807947019868	-0.337483443708608				0.111788079470199	-0.462834437086093	-0.868238410596026	0.860397350993377	-3.48238410596027	-6.07470198675497			
131	2820	-0.184158940397351	0.0827549668874172	-0.951523178807947	0.593377483443709	0.975364238410596	-1.46490066225166				0.976953642384106	0.111788079470199	-0.0508609271523178	-7.40609271523179	-1.37218543046358	-3.66596026490066				-0.234172185430464	-0.0332715231788079	-0.88794701986755	1.68741721854305	1.26649006622517	-0.48026490066225				0.272529801324503	-0.0645298013245033	-0.917721854304636	3.04291390728477	1.5835761589404	-4.25562913907285				0.932026490066225	0.0994966887417219	0.293933774834437	-0.328211920529802	-0.228079470198675	-0.0574834437086077				0.111788079470199	-0.446834437086093	-0.852238410596026	0.0203973509933773	-3.48238410596027	-5.51470198675497			
132	2840	-0.200158940397351	0.0827549668874172	-0.935523178807947	1.15337748344371	0.975364238410596	-2.02490066225166				0.976953642384106	0.111788079470199	-0.0508609271523178	-7.96609271523179	-0.812185430463576	-2.26596026490066				-0.234172185430464	-0.0492715231788079	-0.87194701986755	1.68741721854305	0.706490066225167	-0.20026490066225				0.272529801324503	-0.0645298013245033	-0.917721854304636	0.802913907284768	0.4635761589404	-4.53562913907285				0.916026490066225	0.0994966887417219	0.309933774834437	-2.2882119205298	-0.228079470198675	0.782516556291392				0.111788079470199	-0.446834437086093	-0.836238410596026	-0.259602649006623	-3.48238410596027	-4.67470198675497			
133	2860	-0.184158940397351	0.0827549668874172	-0.951523178807947	1.15337748344371	0.135364238410596	-1.46490066225166				0.960953642384106	0.111788079470199	-0.0668609271523178	-7.68609271523179	1.42781456953642	-0.86596026490066				-0.234172185430464	-0.0492715231788079	-0.87194701986755	2.24741721854305	-0.693509933774834	-1.04026490066225				0.256529801324503	-0.0485298013245033	-0.901721854304636	3.60291390728477	2.1435761589404	-3.13562913907285				0.916026490066225	0.0994966887417219	0.309933774834437	-2.5682119205298	0.611920529801325	1.34251655629139				0.111788079470199	-0.446834437086093	-0.836238410596026	1.70039735099338	-4.32238410596027	-5.51470198675497			
134	2880	-0.200158940397351	0.0827549668874172	-0.951523178807947	0.873377483443709	0.135364238410596	-1.18490066225166				0.944953642384106	0.127788079470199	-0.0508609271523178	-7.96609271523179	6.18781456953642	-1.42596026490066				-0.234172185430464	-0.0332715231788079	-0.88794701986755	1.96741721854305	0.986490066225167	-0.48026490066225				0.256529801324503	-0.0645298013245033	-0.917721854304636	6.68291390728477	3.5435761589404	-2.01562913907285				0.900026490066225	0.0834966887417219	0.325933774834437	-0.0482119205298018	-0.508079470198675	1.90251655629139				0.111788079470199	-0.462834437086093	-0.820238410596026	1.70039735099338	-3.76238410596027	-2.71470198675497			
135	2900	-0.200158940397351	0.0827549668874172	-0.951523178807947	-0.246622516556291	-0.424635761589404	-1.74490066225166				0.976953642384106	0.111788079470199	-0.0188609271523178	-8.24609271523179	7.02781456953642	-1.42596026490066				-0.234172185430464	-0.0332715231788079	-0.87194701986755	0.567417218543046	0.426490066225167	-0.20026490066225				0.272529801324503	-0.0805298013245033	-0.917721854304636	5.28291390728477	3.2635761589404	-0.615629139072848				0.900026490066225	0.0834966887417219	0.309933774834437	-1.7282119205298	-0.228079470198675	-0.0574834437086077				0.111788079470199	-0.462834437086093	-0.820238410596026	1.42039735099338	-2.36238410596027	-0.474701986754968			
136	2920	-0.184158940397351	0.0827549668874172	-0.951523178807947	0.313377483443709	-0.424635761589404	-1.18490066225166				0	0	0	0	0	0				0	0	0	0	0	0				0.288529801324503	-0.0805298013245033	-0.917721854304636	3.88291390728477	2.7035761589404	0.784370860927152				0.900026490066225	0.0834966887417219	0.309933774834437	-1.7282119205298	-0.508079470198675	0.502516556291392				0.111788079470199	-0.446834437086093	-0.820238410596026	0.0203973509933773	-0.402384105960265	0.365298013245032			
137	2940	0	0	0	0	0	0				0	0	0	0	0	0				0	0	0	0	0	0				0.288529801324503	-0.0805298013245033	-0.901721854304636	0.802913907284768	2.1435761589404	1.06437086092715				0.916026490066225	0.0834966887417219	0.309933774834437	-1.7282119205298	1.17192052980133	1.06251655629139				0.0957880794701987	-0.430834437086093	-0.820238410596026	3.10039735099338	0.157615894039735	1.48529801324503			
138	2960	0	0	0	0	0	0				0	0	0	0	0	0				0	0	0	0	0	0				0.288529801324503	-0.0485298013245033	-0.933721854304636	2.48291390728477	3.2635761589404	1.34437086092715				0.916026490066225	0.0994966887417219	0.325933774834437	-1.1682119205298	0.611920529801325	0.502516556291392				0.111788079470199	-0.462834437086093	-0.820238410596026	3.94039735099338	0.437615894039735	2.04529801324503			
139	3060	-0.184158940397351	0.0987549668874172	-0.951523178807947	1.43337748344371	-0.144635761589404	-0.904900662251656				0.976953642384106	0.127788079470199	-0.00286092715231785	-2.36609271523179	6.18781456953642	2.21403973509934				-0.250172185430464	-0.0332715231788079	-0.88794701986755	0.847417218543046	0.706490066225167	-1.32026490066225				0.304529801324503	-0.0805298013245033	-0.933721854304636	2.20291390728477	1.5835761589404	1.62437086092715				0.932026490066225	0.0834966887417219	0.325933774834437	-1.7282119205298	-0.788079470198675	0.502516556291392				0.111788079470199	-0.462834437086093	-0.820238410596026	1.14039735099338	1.27761589403974	0.645298013245032			
140	3080	-0.184158940397351	0.0827549668874172	-0.967523178807947	1.15337748344371	-0.704635761589404	-1.46490066225166				0.976953642384106	0.127788079470199	-0.0188609271523178	-2.64609271523179	8.42781456953642	2.21403973509934				-0.234172185430464	-0.0332715231788079	-0.88794701986755	1.12741721854305	-0.133509933774833	-0.76026490066225				0.288529801324503	-0.0805298013245033	-0.933721854304636	1.08291390728477	1.3035761589404	2.46437086092715				0.900026490066225	0.0834966887417219	0.325933774834437	-1.4482119205298	-1.06807947019868	0.502516556291392				0.111788079470199	-0.478834437086093	-0.820238410596026	-1.65960264900662	2.67761589403974	1.76529801324503			
141	3100	-0.184158940397351	0.0827549668874172	-0.951523178807947	0.313377483443709	-0.144635761589404	-0.624900662251656				0.976953642384106	0.143788079470199	-0.00286092715231785	-0.966092715231788	6.74781456953642	1.37403973509934				-0.234172185430464	-0.0332715231788079	-0.87194701986755	0.847417218543046	0.426490066225167	-0.48026490066225				0.304529801324503	-0.0805298013245033	-0.917721854304636	1.08291390728477	1.3035761589404	2.46437086092715				0.916026490066225	0.0834966887417219	0.325933774834437	-2.2882119205298	0.611920529801325	0.222516556291392				0.127788079470199	-0.462834437086093	-0.820238410596026	0.0203973509933773	2.67761589403974	3.44529801324503			
142	3120	-0.200158940397351	0.0827549668874172	-0.951523178807947	1.71337748344371	-0.424635761589404	0.215099337748344				0.976953642384106	0.127788079470199	-0.00286092715231785	0.153907284768212	2.82781456953642	0.81403973509934				-0.250172185430464	-0.0332715231788079	-0.87194701986755	1.96741721854305	-0.133509933774833	-0.48026490066225				0.304529801324503	-0.0805298013245033	-0.917721854304636	-0.877086092715232	-0.3764238410596	2.74437086092715				0.916026490066225	0.0834966887417219	0.309933774834437	-3.4082119205298	0.891920529801325	-0.337483443708608				0.127788079470199	-0.446834437086093	-0.836238410596026	1.70039735099338	1.83761589403974	3.16529801324503			
143	3140	-0.216158940397351	0.0827549668874172	-0.951523178807947	2.83337748344371	-0.704635761589404	-0.904900662251656				0.992953642384106	0.127788079470199	-0.0188609271523178	1.83390728476821	0.867814569536424	2.49403973509934				-0.266172185430464	-0.0332715231788079	-0.88794701986755	1.12741721854305	0.146490066225167	-0.48026490066225				0.304529801324503	-0.0805298013245033	-0.917721854304636	0.242913907284768	1.0235761589404	4.14437086092715				0.932026490066225	0.0834966887417219	0.309933774834437	-3.4082119205298	-0.508079470198675	-1.17748344370861				0.111788079470199	-0.462834437086093	-0.836238410596026	1.42039735099338	0.717615894039735	4.00529801324503			
144	3160	-0.200158940397351	0.0827549668874172	-0.951523178807947	1.15337748344371	-0.144635761589404	-1.46490066225166				0.992953642384106	0.127788079470199	-0.0348609271523178	0.713907284768212	1.14781456953642	2.77403973509934				-0.250172185430464	-0.0332715231788079	-0.88794701986755	1.96741721854305	0.146490066225167	-0.20026490066225				0.288529801324503	-0.0805298013245033	-0.933721854304636	1.92291390728477	1.5835761589404	5.26437086092715				0.932026490066225	0.0834966887417219	0.325933774834437	-2.2882119205298	-1.90807947019868	1.06251655629139				0.111788079470199	-0.462834437086093	-0.852238410596026	1.14039735099338	0.157615894039735	4.56529801324503			
145	3180	-0.216158940397351	0.0667549668874172	-0.951523178807947	1.15337748344371	0.135364238410596	-1.74490066225166				0.976953642384106	0.127788079470199	-0.0188609271523178	-2.36609271523179	1.70781456953642	1.09403973509934				-0.250172185430464	-0.0332715231788079	-0.85594701986755	0.847417218543046	0.986490066225167	-0.20026490066225				0.288529801324503	-0.0805298013245033	-0.917721854304636	1.92291390728477	1.8635761589404	4.70437086092715				0.932026490066225	0.0674966887417219	0.325933774834437	-1.4482119205298	-1.06807947019868	0.222516556291392				0.111788079470199	-0.462834437086093	-0.836238410596026	-1.37960264900662	-0.122384105960265	3.16529801324503			
146	3200	-0.200158940397351	0.0827549668874172	-0.935523178807947	-0.246622516556291	-0.144635761589404	-1.46490066225166				0.992953642384106	0.111788079470199	-0.0188609271523178	-2.36609271523179	-1.09218543046358	1.09403973509934				-0.250172185430464	-0.0332715231788079	-0.87194701986755	1.40741721854305	0.426490066225167	-0.48026490066225				0.304529801324503	-0.0965298013245033	-0.933721854304636	-0.597086092715232	-0.0964238410596001	3.30437086092715				0.932026490066225	0.0834966887417219	0.309933774834437	-4.2482119205298	1.45192052980132	-0.617483443708608				0.0957880794701987	-0.446834437086093	-0.836238410596026	-2.21960264900662	1.83761589403974	2.04529801324503			
147	3220	-0.184158940397351	0.0667549668874172	-0.951523178807947	0.313377483443709	-0.144635761589404	-1.46490066225166				0.976953642384106	0.127788079470199	-0.0188609271523178	-1.52609271523179	-2.77218543046358	0.53403973509934				-0.250172185430464	-0.0332715231788079	-0.88794701986755	1.40741721854305	0.146490066225167	-1.04026490066225				0.304529801324503	-0.0805298013245033	-0.933721854304636	1.08291390728477	2.4235761589404	3.58437086092715				0.932026490066225	0.0834966887417219	0.293933774834437	-2.2882119205298	-1.90807947019868	-0.0574834437086077				0.0957880794701987	-0.446834437086093	-0.852238410596026	-1.37960264900662	2.11761589403974	0.365298013245032			
148	3240	-0.200158940397351	0.0667549668874172	-0.967523178807947	1.43337748344371	-0.424635761589404	-0.344900662251656				0.960953642384106	0.127788079470199	-0.0188609271523178	-1.24609271523179	0.307814569536424	1.37403973509934				-0.250172185430464	-0.0332715231788079	-0.88794701986755	1.68741721854305	0.426490066225167	-0.48026490066225				0.288529801324503	-0.0805298013245033	-0.949721854304636	3.04291390728477	2.9835761589404	4.98437086092715				0.932026490066225	0.0834966887417219	0.325933774834437	-1.1682119205298	-3.02807947019868	-0.0574834437086077				0.0957880794701987	-0.462834437086093	-0.820238410596026	0.300397350993377	2.11761589403974	1.20529801324503			
149	3260	-0.200158940397351	0.0667549668874172	-0.951523178807947	0.593377483443709	0.135364238410596	-0.344900662251656				0.992953642384106	0.127788079470199	-0.00286092715231785	-2.08609271523179	0.0278145695364242	1.93403973509934				-0.234172185430464	-0.0492715231788079	-0.87194701986755	0.00741721854304636	1.26649006622517	-0.20026490066225				0.288529801324503	-0.112529801324503	-0.933721854304636	1.08291390728477	2.1435761589404	3.02437086092715				0.916026490066225	0.0674966887417219	0.293933774834437	-1.4482119205298	-2.74807947019868	-0.617483443708608				0.0797880794701987	-0.478834437086093	-0.836238410596026	-2.77960264900662	2.95761589403974	2.88529801324503			
150	3280	0	0	0	0	0	0				0.992953642384106	0.111788079470199	-0.0188609271523178	-0.966092715231788	-3.33218543046358	1.37403973509934				-0.250172185430464	-0.0492715231788079	-0.90394701986755	1.12741721854305	0.986490066225167	-0.76026490066225				0.304529801324503	-0.0965298013245033	-0.933721854304636	-3.39708609271523	-1.4964238410596	3.58437086092715				0.916026490066225	0.0834966887417219	0.309933774834437	0.511788079470198	-1.06807947019868	0.782516556291392				0.0957880794701987	-0.462834437086093	-0.836238410596026	-3.89960264900662	3.79761589403974	3.44529801324503			
151	3300	-0.200158940397351	0.0667549668874172	-0.951523178807947	-0.526622516556291	0.415364238410596	-0.344900662251656				0.976953642384106	0.111788079470199	-0.0188609271523178	-0.686092715231788	-2.77218543046358	1.37403973509934				-0.234172185430464	-0.0492715231788079	-0.88794701986755	1.40741721854305	0.706490066225167	-1.04026490066225				0.304529801324503	-0.0805298013245033	-0.917721854304636	-6.19708609271523	-0.9364238410596	2.74437086092715				0.932026490066225	0.0674966887417219	0.309933774834437	-0.888211920529802	0.611920529801325	-0.617483443708608				0.111788079470199	-0.446834437086093	-0.852238410596026	-0.539602649006623	2.95761589403974	3.16529801324503			
152	3320	-0.200158940397351	0.0667549668874172	-0.951523178807947	-0.526622516556291	-0.144635761589404	-0.344900662251656				0.976953642384106	0.127788079470199	-0.00286092715231785	0.153907284768212	-1.65218543046358	2.49403973509934				-0.250172185430464	-0.0492715231788079	-0.87194701986755	0.847417218543046	0.986490066225167	-0.76026490066225				0.288529801324503	-0.0805298013245033	-0.917721854304636	-0.877086092715232	1.3035761589404	4.70437086092715				0.948026490066225	0.0834966887417219	0.309933774834437	-2.0082119205298	-1.06807947019868	-2.01748344370861				0.111788079470199	-0.462834437086093	-0.852238410596026	1.14039735099338	1.27761589403974	2.60529801324503			
153	3340	-0.216158940397351	0.0827549668874172	-0.951523178807947	-0.806622516556291	0.415364238410596	-0.904900662251656				0.976953642384106	0.127788079470199	-0.0348609271523178	0.713907284768212	-4.17218543046358	1.65403973509934				-0.250172185430464	-0.0332715231788079	-0.88794701986755	0.287417218543046	0.426490066225167	-0.20026490066225				0.272529801324503	-0.0805298013245033	-0.917721854304636	1.08291390728477	2.9835761589404	4.70437086092715				0.932026490066225	0.0834966887417219	0.309933774834437	-0.888211920529802	-3.02807947019868	-0.337483443708608				0.0957880794701987	-0.478834437086093	-0.836238410596026	0.0203973509933773	0.717615894039735	2.04529801324503			
154	3360	-0.200158940397351	0.0827549668874172	-0.951523178807947	-0.806622516556291	1.2553642384106	-0.344900662251656				0.992953642384106	0.127788079470199	-0.0348609271523178	-1.52609271523179	-0.252185430463576	-0.0259602649006601				-0.250172185430464	-0.0332715231788079	-0.88794701986755	-0.832582781456954	0.706490066225167	0.63973509933775				0.288529801324503	-0.0805298013245033	-0.917721854304636	1.92291390728477	2.1435761589404	3.30437086092715				0.916026490066225	0.0674966887417219	0.293933774834437	-2.0082119205298	-1.06807947019868	-0.337483443708608				0.0957880794701987	-0.462834437086093	-0.836238410596026	-2.77960264900662	2.11761589403974	2.60529801324503			
155	3380	-0.184158940397351	0.0667549668874172	-0.951523178807947	0.593377483443709	0.975364238410596	-1.18490066225166				0.976953642384106	0.111788079470199	-0.0348609271523178	-3.48609271523179	-3.61218543046358	-0.30596026490066				-0.250172185430464	-0.0332715231788079	-0.90394701986755	0.00741721854304636	0.426490066225167	0.91973509933775				0.288529801324503	-0.0805298013245033	-0.933721854304636	-0.0370860927152318	-0.6564238410596	2.46437086092715				0.932026490066225	0.0674966887417219	0.293933774834437	-2.5682119205298	-1.34807947019868	-0.617483443708608				0.0957880794701987	-0.462834437086093	-0.836238410596026	-2.21960264900662	0.997615894039735	2.88529801324503			
156	3400	-0.184158940397351	0.0667549668874172	-0.935523178807947	-1.92662251655629	0.695364238410596	-1.74490066225166				0.960953642384106	0.0957880794701987	-0.0188609271523178	-3.48609271523179	-3.89218543046358	-0.585960264900661				-0.218172185430464	-0.0332715231788079	-0.87194701986755	0.287417218543046	1.54649006622517	0.63973509933775				0.272529801324503	-0.0965298013245033	-0.917721854304636	-2.27708609271523	-0.6564238410596	2.18437086092715				0.932026490066225	0.0834966887417219	0.293933774834437	-3.9682119205298	-0.788079470198675	-0.897483443708608				0.0957880794701987	-0.430834437086093	-0.836238410596026	-1.65960264900662	0.717615894039735	1.20529801324503			
157	3420	-0.184158940397351	0.0667549668874172	-0.935523178807947	-3.04662251655629	-0.144635761589404	-1.46490066225166				0.976953642384106	0.127788079470199	-0.0188609271523178	-3.48609271523179	-5.01218543046358	-0.30596026490066				-0.234172185430464	-0.0332715231788079	-0.87194701986755	1.12741721854305	0.426490066225167	-0.76026490066225				0.288529801324503	-0.0805298013245033	-0.917721854304636	1.36291390728477	1.3035761589404	2.46437086092715				0.932026490066225	0.0834966887417219	0.293933774834437	-3.6882119205298	-1.06807947019868	-0.897483443708608				0.0957880794701987	-0.430834437086093	-0.852238410596026	0.300397350993377	0.717615894039735	-0.194701986754968			
158	3440	-0.184158940397351	0.0667549668874172	-0.935523178807947	-1.92662251655629	-0.424635761589404	-1.18490066225166				0.992953642384106	0.143788079470199	-0.0508609271523178	0.713907284768212	-8.93218543046358	0.53403973509934				-0.250172185430464	-0.0172715231788079	-0.88794701986755	0.00741721854304636	-0.973509933774833	-0.20026490066225				0.288529801324503	-0.0805298013245033	-0.933721854304636	3.88291390728477	1.0235761589404	2.74437086092715				0.932026490066225	0.0834966887417219	0.293933774834437	-2.2882119205298	-0.788079470198675	-0.617483443708608				0.0797880794701987	-0.446834437086093	-0.868238410596026	3.10039735099338	-0.962384105960265	-1.03470198675497			
159	3460	-0.200158940397351	0.0667549668874172	-0.951523178807947	-2.20662251655629	-0.144635761589404	-0.624900662251656				0.976953642384106	0.127788079470199	-0.0828609271523179	0.993907284768212	-11.1721854304636	0.25403973509934				-0.250172185430464	-0.0332715231788079	-0.88794701986755	0.567417218543046	-0.693509933774834	-0.20026490066225				0.288529801324503	-0.0965298013245033	-0.933721854304636	2.76291390728477	-0.0964238410596001	0.784370860927152				0.932026490066225	0.0674966887417219	0.277933774834437	-2.0082119205298	-1.90807947019868	0.222516556291392				0.0797880794701987	-0.462834437086093	-0.852238410596026	1.14039735099338	-3.20238410596026	-1.87470198675497			
160	3480	-0.200158940397351	0.0827549668874172	-0.967523178807947	-2.76662251655629	0.135364238410596	-1.46490066225166				1.00895364238411	0.127788079470199	-0.0668609271523178	-0.406092715231788	-11.4521854304636	-0.30596026490066				-0.266172185430464	-0.0332715231788079	-0.88794701986755	1.40741721854305	0.146490066225167	-0.76026490066225				0.272529801324503	-0.0965298013245033	-0.933721854304636	-0.317086092715232	-1.2164238410596	-0.335629139072848				0.932026490066225	0.0674966887417219	0.277933774834437	-1.4482119205298	0.0519205298013249	-0.617483443708608				0.0637880794701987	-0.446834437086093	-0.852238410596026	-1.37960264900662	-4.88238410596027	-1.59470198675497			
161	3500	-0.216158940397351	0.0987549668874172	-0.951523178807947	-2.76662251655629	-0.424635761589404	-0.0649006622516557				1.00895364238411	0.127788079470199	-0.0348609271523178	-1.80609271523179	-12.5721854304636	-1.42596026490066				-0.266172185430464	-0.0172715231788079	-0.88794701986755	2.52741721854305	0.426490066225167	-0.48026490066225				0.272529801324503	-0.0965298013245033	-0.933721854304636	0.242913907284768	-1.4964238410596	0.224370860927152				0.932026490066225	0.0834966887417219	0.277933774834437	-1.4482119205298	0.331920529801325	-0.897483443708608				0.0637880794701987	-0.462834437086093	-0.868238410596026	-1.65960264900662	-7.12238410596027	-0.194701986754968			
162	3520	-0.200158940397351	0.0667549668874172	-0.967523178807947	-2.20662251655629	0.695364238410596	0.495099337748344				1.00895364238411	0.111788079470199	-0.0348609271523178	-3.76609271523179	-15.0921854304636	-1.70596026490066				-0.250172185430464	-0.0332715231788079	-0.90394701986755	1.68741721854305	0.986490066225167	0.35973509933775				0.288529801324503	-0.0805298013245033	-0.949721854304636	1.64291390728477	-2.0564238410596	0.224370860927152				0.964026490066225	0.0674966887417219	0.293933774834437	-0.888211920529802	2.29192052980133	-0.0574834437086077				0.0637880794701987	-0.478834437086093	-0.868238410596026	0.0203973509933773	-6.84238410596027	1.20529801324503			
163	3540	-0.200158940397351	0.0667549668874172	-0.951523178807947	-1.92662251655629	1.5353642384106	-0.0649006622516557				0.992953642384106	0.127788079470199	-0.0668609271523178	-2.92609271523179	-15.0921854304636	-4.22596026490066				-0.250172185430464	-0.0492715231788079	-0.88794701986755	3.36741721854305	0.706490066225167	0.35973509933775				0.272529801324503	-0.0965298013245033	-0.965721854304636	2.76291390728477	-3.1764238410596	0.784370860927152				0.980026490066225	0.0674966887417219	0.277933774834437	-0.608211920529802	1.73192052980133	-0.337483443708608				0.0797880794701987	-0.462834437086093	-0.884238410596026	2.82039735099338	-7.96238410596027	-1.03470198675497			
164	3560	-0.184158940397351	0.0827549668874172	-0.951523178807947	-4.16662251655629	0.975364238410596	-0.344900662251656				0.976953642384106	0.143788079470199	-0.0828609271523179	0.153907284768212	-9.49218543046358	-1.14596026490066				-0.250172185430464	-0.0492715231788079	-0.88794701986755	1.12741721854305	0.986490066225167	-0.48026490066225				0.256529801324503	-0.112529801324503	-0.981721854304636	3.32291390728477	-3.4564238410596	-0.335629139072848				0.980026490066225	0.0834966887417219	0.261933774834437	-0.888211920529802	-0.228079470198675	-0.617483443708608				0.0637880794701987	-0.462834437086093	-0.868238410596026	6.18039735099338	-6.28238410596027	0.0852980132450323			
165	3580	-0.200158940397351	0.0827549668874172	-0.967523178807947	-3.88662251655629	1.2553642384106	-0.0649006622516557				0.992953642384106	0.127788079470199	-0.0828609271523179	1.55390728476821	-4.17218543046358	1.93403973509934				-0.250172185430464	-0.0492715231788079	-0.90394701986755	0.567417218543046	1.26649006622517	-0.48026490066225				0.256529801324503	-0.112529801324503	-0.981721854304636	-1.71708609271523	-4.2964238410596	-0.615629139072848				0.948026490066225	0.0834966887417219	0.277933774834437	0.231788079470198	2.01192052980133	-0.0574834437086077				0.0637880794701987	-0.478834437086093	-0.884238410596026	5.90039735099338	-6.56238410596027	4.00529801324503			
166	3600	-0.184158940397351	0.0987549668874172	-0.967523178807947	-2.48662251655629	2.3753642384106	0.775099337748344				0.992953642384106	0.111788079470199	-0.0508609271523178	-2.08609271523179	-1.09218543046358	1.09403973509934				-0.234172185430464	-0.0492715231788079	-0.91994701986755	1.12741721854305	1.26649006622517	-0.48026490066225				0.256529801324503	-0.0645298013245033	-0.949721854304636	-3.67708609271523	-3.7364238410596	-3.13562913907285				0.964026490066225	0.0834966887417219	0.309933774834437	-0.0482119205298018	3.13192052980133	0.222516556291392				0.0477880794701987	-0.462834437086093	-0.852238410596026	5.06039735099338	-6.00238410596027	5.12529801324503			
167	3620	-0.152158940397351	0.0987549668874172	-0.935523178807947	-3.32662251655629	1.5353642384106	1.61509933774834				0.960953642384106	0.127788079470199	-0.0668609271523178	-4.04609271523179	-1.93218543046358	-0.30596026490066				-0.218172185430464	-0.0332715231788079	-0.85594701986755	0.847417218543046	-5.17350993377483	-1.88026490066225				0.272529801324503	-0.0805298013245033	-0.949721854304636	-1.99708609271523	-3.7364238410596	-5.09562913907285				0.980026490066225	0.0674966887417219	0.293933774834437	-1.7282119205298	2.57192052980133	-0.337483443708608				0.0637880794701987	-0.446834437086093	-0.852238410596026	3.66039735099338	-0.122384105960265	4.00529801324503			
168	3640	-0.184158940397351	0.0827549668874172	-0.919523178807947	-3.60662251655629	0.135364238410596	1.61509933774834				0.944953642384106	0.143788079470199	-0.0988609271523179	0.153907284768212	-5.57218543046358	1.93403973509934				-0.234172185430464	-0.0332715231788079	-0.85594701986755	0.00741721854304636	-2.65350993377483	-1.88026490066225				0.256529801324503	-0.0805298013245033	-0.949721854304636	-2.55708609271523	-0.9364238410596	-6.21562913907285				0.964026490066225	0.0834966887417219	0.261933774834437	-3.4082119205298	1.17192052980133	0.222516556291392				0.0317880794701987	-0.462834437086093	-0.836238410596026	7.86039735099338	3.79761589403974	4.56529801324503			
169	3660	-0.216158940397351	0.0827549668874172	-0.935523178807947	-3.60662251655629	-1.8246357615894	-0.0649006622516557				0.960953642384106	0.143788079470199	-0.130860927152318	-0.406092715231788	-0.252185430463576	4.17403973509934				-0.266172185430464	-0.0492715231788079	-0.88794701986755	0.567417218543046	-2.65350993377483	-1.04026490066225				0.240529801324503	-0.0805298013245033	-0.917721854304636	-1.15708609271523	-0.0964238410596001	-5.65562913907285				0.916026490066225	0.0834966887417219	0.245933774834437	-2.8482119205298	0.891920529801325	-0.0574834437086077				0.0317880794701987	-0.414834437086093	-0.916238410596027	25.5003973509934	18.6376158940397	6.52529801324503			
170	3680	-0.232158940397351	0.0987549668874172	-0.983523178807947	-3.60662251655629	-0.424635761589404	-1.18490066225166				0.960953642384106	0.127788079470199	-0.0988609271523179	-5.16609271523179	7.58781456953643	4.73403973509934				-0.266172185430464	-0.0332715231788079	-0.91994701986755	1.68741721854305	-0.973509933774833	-1.04026490066225				0.240529801324503	-0.0645298013245033	-0.933721854304636	0.802913907284768	-0.9364238410596	-7.61562913907285				0.916026490066225	0.0994966887417219	0.261933774834437	-0.0482119205298018	2.85192052980133	1.90251655629139				0.0317880794701987	-0.462834437086093	-0.724238410596026	22.9803973509934	19.7576158940397	13.805298013245			
171	3700	-0.232158940397351	0.114754966887417	-0.951523178807947	-5.56662251655629	0.415364238410596	0.215099337748344				0.944953642384106	0.111788079470199	-0.0188609271523178	-11.3260927152318	15.1478145695364	3.89403973509934				-0.266172185430464	-0.0332715231788079	-0.90394701986755	0.567417218543046	1.82649006622517	-0.48026490066225				0.240529801324503	-0.0325298013245033	-0.933721854304636	-3.95708609271523	-1.7764238410596	-9.29562913907285				0.916026490066225	0.0994966887417219	0.261933774834437	1.6317880794702	5.09192052980133	1.62251655629139				0.0157880794701987	-0.478834437086093	-0.804238410596027	9.54039735099338	15.2776158940397	12.685298013245			
172	3720	-0.200158940397351	0.114754966887417	-0.919523178807947	-3.32662251655629	1.5353642384106	-0.0649006622516557				0.960953642384106	0.127788079470199	-0.0188609271523178	-13.2860927152318	16.8278145695364	1.65403973509934				-0.250172185430464	-0.0332715231788079	-0.85594701986755	0.567417218543046	2.38649006622517	-0.48026490066225				0.224529801324503	-0.0325298013245033	-0.901721854304636	-5.63708609271523	-1.4964238410596	-9.85562913907285				0.916026490066225	0.0834966887417219	0.277933774834437	2.4717880794702	5.09192052980133	1.06251655629139				0.0317880794701987	-0.478834437086093	-0.772238410596026	12.0603973509934	14.7176158940397	15.765298013245			
173	3740	-0.168158940397351	0.0987549668874172	-0.919523178807947	-1.08662251655629	0.695364238410596	0.215099337748344				0.944953642384106	0.159788079470199	-0.0508609271523178	-8.24609271523179	17.1078145695364	3.61403973509934				-0.234172185430464	-0.0172715231788079	-0.83994701986755	1.40741721854305	0.706490066225167	0.91973509933775				0.256529801324503	-0.0805298013245033	-0.917721854304636	-3.39708609271523	1.5835761589404	-11.5356291390728				0.916026490066225	0.0834966887417219	0.261933774834437	2.7517880794702	3.13192052980133	0.782516556291392				0.0797880794701987	-0.478834437086093	-0.772238410596026	0.860397350993377	17.5176158940397	16.045298013245			
174	3760	-0.184158940397351	0.114754966887417	-0.935523178807947	-3.32662251655629	-2.1046357615894	0.495099337748344				0.960953642384106	0.143788079470199	-0.0828609271523179	-2.36609271523179	19.0678145695364	6.41403973509934				-0.234172185430464	-0.0332715231788079	-0.87194701986755	3.08741721854305	-1.25350993377483	0.0797350993377501				0.272529801324503	-0.0805298013245033	-0.917721854304636	-5.07708609271523	0.1835761589404	-10.9756291390728				0.900026490066225	0.0834966887417219	0.309933774834437	3.3117880794702	4.53192052980133	-0.617483443708608				0.111788079470199	-0.478834437086093	-0.804238410596027	0.580397350993377	17.5176158940397	17.725298013245			
175	3780	-0.184158940397351	0.114754966887417	-0.951523178807947	-3.88662251655629	-3.2246357615894	0.495099337748344				0.976953642384106	0.111788079470199	-0.0188609271523178	-1.80609271523179	23.8278145695364	8.37403973509934				-0.234172185430464	-0.0332715231788079	-0.90394701986755	4.20741721854305	-0.973509933774833	0.0797350993377501				0.256529801324503	-0.0805298013245033	-0.917721854304636	-4.79708609271523	2.7035761589404	-9.01562913907285				0.932026490066225	0.0834966887417219	0.293933774834437	-1.7282119205298	3.69192052980133	-0.897483443708608				0.0957880794701987	-0.478834437086093	-0.804238410596027	5.06039735099338	19.1976158940397	17.445298013245			
176	3800	-0.184158940397351	0.114754966887417	-0.967523178807947	-1.08662251655629	-1.8246357615894	0.215099337748344				0.960953642384106	0.0957880794701987	0.0131390728476822	-7.96609271523179	25.2278145695364	8.65403973509934				-0.250172185430464	-0.0492715231788079	-0.91994701986755	3.64741721854305	0.426490066225167	-0.20026490066225				0.256529801324503	-0.0645298013245033	-0.901721854304636	1.64291390728477	4.9435761589404	-9.01562913907285				0.916026490066225	0.0834966887417219	0.293933774834437	2.7517880794702	1.73192052980133	-2.29748344370861				0.0957880794701987	-0.478834437086093	-0.820238410596026	4.22039735099338	21.9976158940397	15.765298013245			
177	3820	-0.200158940397351	0.114754966887417	-0.967523178807947	-0.246622516556291	-0.704635761589404	-0.624900662251656				0.976953642384106	0.0957880794701987	0.0451390728476822	-13.5660927152318	28.8678145695364	8.09403973509934				-0.234172185430464	-0.0492715231788079	-0.88794701986755	2.24741721854305	1.26649006622517	-0.76026490066225				0.304529801324503	-0.0805298013245033	-0.917721854304636	-0.317086092715232	1.5835761589404	-7.89562913907285				0.868026490066225	0.0834966887417219	0.309933774834437	2.7517880794702	4.53192052980133	-2.01748344370861				0.0957880794701987	-0.478834437086093	-0.820238410596026	8.14039735099338	21.1576158940397	17.165298013245			
178	3840	-0.168158940397351	0.114754966887417	-0.935523178807947	-1.64662251655629	-0.424635761589404	-1.74490066225166				1.00895364238411	0.0797880794701987	0.0611390728476822	-11.8860927152318	27.7478145695364	7.81403973509934				-0.234172185430464	-0.0652715231788079	-0.85594701986755	3.36741721854305	0.146490066225167	-1.88026490066225				0.320529801324503	-0.0805298013245033	-0.917721854304636	-1.99708609271523	-2.6164238410596	-8.45562913907285				0.884026490066225	0.0834966887417219	0.309933774834437	-0.888211920529802	8.17192052980133	-2.85748344370861				0.111788079470199	-0.494834437086093	-0.804238410596027	10.9403973509934	20.5976158940397	19.405298013245			
179	3860	-0.168158940397351	0.114754966887417	-0.935523178807947	-1.64662251655629	-0.984635761589404	-0.904900662251656				0.976953642384106	0.0797880794701987	0.0451390728476822	-9.08609271523179	24.1078145695364	6.13403973509934				-0.234172185430464	-0.0492715231788079	-0.87194701986755	3.64741721854305	-0.413509933774833	-1.88026490066225				0.304529801324503	-0.0485298013245033	-0.933721854304636	-5.35708609271523	-5.6964238410596	-11.2556291390728				0.916026490066225	0.0994966887417219	0.341933774834437	0.231788079470198	10.1319205298013	-1.17748344370861				0.111788079470199	-0.526834437086093	-0.804238410596027	11.7803973509934	16.6776158940397	21.365298013245			
180	3880	-0.184158940397351	0.114754966887417	-0.967523178807947	1.71337748344371	-1.8246357615894	-2.02490066225166				0.976953642384106	0.0797880794701987	0.0291390728476822	-9.36609271523179	24.1078145695364	7.25403973509934				-0.250172185430464	-0.0492715231788079	-0.88794701986755	2.52741721854305	0.146490066225167	-1.60026490066225				0.272529801324503	-0.0165298013245033	-0.917721854304636	-13.1970860927152	-5.6964238410596	-9.01562913907285				0.948026490066225	0.0834966887417219	0.341933774834437	0.511788079470198	10.6919205298013	-0.897483443708608				0.127788079470199	-0.542834437086093	-0.788238410596027	12.0603973509934	19.4776158940397	20.525298013245			
