No	Time	12-AccX	12-AccY	12-AccZ	12-GyroX	12-GyroY	12-GyroZ	13-AccX	13-AccY	13-AccZ	13-GyroX	13-GyroY	13-GyroZ	14-AccX	14-AccY	14-AccZ	14-GyroX	14-GyroY	14-GyroZ	15-AccX	15-AccY	15-AccZ	15-GyroX	15-GyroY	15-GyroZ	16-AccX	16-AccY	16-AccZ	16-GyroX	16-GyroY	16-GyroZ	17-AccX	17-AccY	17-AccZ	17-GyroX	17-GyroY	17-GyroZ
0	100	0	0	0	0	0	0				0	0	0	0	0	0				-0.250172185430464	-0.177271523178808	-0.87194701986755	0.567417218543046	0.426490066225167	-0.20026490066225				0.448529801324503	-0.208529801324503	-0.837721854304636	0.522913907284768	-0.0964238410596001	-0.615629139072848				0.948026490066225	0.0994966887417219	0.165933774834437	0.511788079470198	0.331920529801325	-0.337483443708608				0.383788079470199	-0.222834437086093	-0.820238410596026	0.580397350993377	-0.962384105960265	-1.59470198675497			
1	120	-0.216158940397351	0.0987549668874172	-0.935523178807947	0.873377483443709	0.415364238410596	-0.624900662251656				0.960953642384106	0.0797880794701987	0.285139072847682	0.153907284768212	0.587814569536424	0.25403973509934				-0.250172185430464	-0.161271523178808	-0.87194701986755	-0.272582781456954	-0.693509933774834	-0.48026490066225				0.464529801324503	-0.208529801324503	-0.837721854304636	1.64291390728477	0.4635761589404	-0.615629139072848				0.948026490066225	0.0994966887417219	0.165933774834437	1.6317880794702	0.331920529801325	-0.0574834437086077				0.383788079470199	-0.222834437086093	-0.852238410596026	0.580397350993377	-0.122384105960265	-1.31470198675497			
2	140	-0.216158940397351	0.114754966887417	-0.935523178807947	0.873377483443709	0.135364238410596	-0.904900662251656				0.976953642384106	0.0957880794701987	0.285139072847682	0.713907284768212	-2.21218543046358	0.81403973509934				-0.250172185430464	-0.161271523178808	-0.85594701986755	1.12741721854305	0.146490066225167	-0.48026490066225				0.464529801324503	-0.208529801324503	-0.821721854304636	-0.317086092715232	0.4635761589404	-1.17562913907285				0.964026490066225	0.0994966887417219	0.165933774834437	1.3517880794702	0.611920529801325	-0.617483443708608				0.399788079470199	-0.222834437086093	-0.836238410596026	0.580397350993377	-0.402384105960265	-1.87470198675497			
3	160	-0.216158940397351	0.0987549668874172	-0.951523178807947	-0.526622516556291	0.415364238410596	-0.904900662251656				0.960953642384106	0.0957880794701987	0.269139072847682	0.993907284768212	-2.49218543046358	1.37403973509934				-0.250172185430464	-0.177271523178808	-0.85594701986755	0.287417218543046	0.426490066225167	-0.20026490066225				0.464529801324503	-0.208529801324503	-0.837721854304636	0.242913907284768	-1.4964238410596	-0.895629139072848				0.964026490066225	0.0994966887417219	0.165933774834437	-0.0482119205298018	-0.508079470198675	-0.337483443708608				0.399788079470199	-0.238834437086093	-0.852238410596026	1.14039735099338	-0.402384105960265	-1.87470198675497			
4	180	-0.216158940397351	0.0987549668874172	-0.951523178807947	0.313377483443709	-0.144635761589404	-0.344900662251656				0.960953642384106	0.0797880794701987	0.269139072847682	0.993907284768212	-2.21218543046358	1.37403973509934				-0.250172185430464	-0.177271523178808	-0.87194701986755	0.847417218543046	0.146490066225167	-0.20026490066225				0.464529801324503	-0.224529801324503	-0.821721854304636	1.64291390728477	0.4635761589404	0.224370860927152				0.948026490066225	0.0994966887417219	0.165933774834437	0.791788079470198	-1.34807947019868	0.782516556291392				0.399788079470199	-0.222834437086093	-0.852238410596026	0.860397350993377	-0.122384105960265	-1.03470198675497			
5	200	-0.216158940397351	0.0987549668874172	-0.951523178807947	0.313377483443709	0.415364238410596	-0.624900662251656				0.960953642384106	0.0797880794701987	0.269139072847682	0.433907284768212	-1.37218543046358	0.81403973509934				-0.250172185430464	-0.161271523178808	-0.87194701986755	1.40741721854305	-0.133509933774833	0.0797350993377501				0.464529801324503	-0.208529801324503	-0.837721854304636	1.92291390728477	1.0235761589404	-0.0556291390728476				0.948026490066225	0.0994966887417219	0.165933774834437	1.3517880794702	-1.62807947019868	0.782516556291392				0.399788079470199	-0.222834437086093	-0.836238410596026	0.300397350993377	0.437615894039735	-1.03470198675497			
6	220	-0.216158940397351	0.0987549668874172	-0.935523178807947	-0.246622516556291	0.415364238410596	-1.46490066225166				0.976953642384106	0.0957880794701987	0.269139072847682	0.153907284768212	-1.37218543046358	1.37403973509934				-0.250172185430464	-0.177271523178808	-0.87194701986755	0.567417218543046	0.146490066225167	-0.48026490066225				0.464529801324503	-0.208529801324503	-0.837721854304636	1.08291390728477	-0.0964238410596001	-0.0556291390728476				0.964026490066225	0.0994966887417219	0.165933774834437	1.0717880794702	-0.788079470198675	0.782516556291392				0.383788079470199	-0.222834437086093	-0.836238410596026	0.300397350993377	-0.122384105960265	-0.474701986754968			
7	240	-0.216158940397351	0.0987549668874172	-0.951523178807947	0.313377483443709	0.135364238410596	-0.904900662251656				0.960953642384106	0.0957880794701987	0.285139072847682	1.27390728476821	-2.49218543046358	0.25403973509934				-0.266172185430464	-0.177271523178808	-0.87194701986755	0.567417218543046	0.706490066225167	-0.76026490066225				0.464529801324503	-0.208529801324503	-0.821721854304636	-0.0370860927152318	-0.6564238410596	-0.335629139072848				0.948026490066225	0.0994966887417219	0.165933774834437	0.511788079470198	-0.788079470198675	0.782516556291392				0.383788079470199	-0.222834437086093	-0.836238410596026	1.14039735099338	-0.402384105960265	0.0852980132450323			
8	260	-0.216158940397351	0.114754966887417	-0.951523178807947	0.0333774834437086	0.135364238410596	-0.904900662251656				0.960953642384106	0.0957880794701987	0.269139072847682	1.83390728476821	-3.05218543046358	1.09403973509934				-0.250172185430464	-0.177271523178808	-0.87194701986755	-0.272582781456954	0.426490066225167	-0.20026490066225				0.464529801324503	-0.208529801324503	-0.821721854304636	-0.0370860927152318	-1.4964238410596	-0.615629139072848				0.948026490066225	0.0834966887417219	0.165933774834437	0.511788079470198	-1.06807947019868	0.222516556291392				0.383788079470199	-0.238834437086093	-0.836238410596026	0.0203973509933773	-0.402384105960265	0.925298013245032			
9	280	-0.216158940397351	0.0987549668874172	-0.935523178807947	0.0333774834437086	0.415364238410596	-0.904900662251656				0.960953642384106	0.0957880794701987	0.253139072847682	1.55390728476821	-2.77218543046358	1.09403973509934				-0.250172185430464	-0.161271523178808	-0.87194701986755	0.847417218543046	0.706490066225167	-0.76026490066225				0.448529801324503	-0.208529801324503	-0.821721854304636	-0.0370860927152318	-0.3764238410596	-0.335629139072848				0.948026490066225	0.0994966887417219	0.165933774834437	0.511788079470198	-1.06807947019868	0.222516556291392				0.383788079470199	-0.222834437086093	-0.836238410596026	-0.259602649006623	-0.122384105960265	0.645298013245032			
10	300	-0.216158940397351	0.0987549668874172	-0.951523178807947	0.0333774834437086	0.135364238410596	-1.18490066225166				0.960953642384106	0.0797880794701987	0.269139072847682	0.153907284768212	-1.37218543046358	1.09403973509934				-0.250172185430464	-0.161271523178808	-0.87194701986755	1.40741721854305	0.146490066225167	-0.48026490066225				0.448529801324503	-0.224529801324503	-0.821721854304636	0.522913907284768	0.1835761589404	0.224370860927152				0.948026490066225	0.115496688741722	0.165933774834437	1.3517880794702	-0.508079470198675	1.06251655629139				0.383788079470199	-0.222834437086093	-0.852238410596026	0.300397350993377	0.717615894039735	0.0852980132450323			
11	320	-0.216158940397351	0.0987549668874172	-0.951523178807947	0.0333774834437086	-0.424635761589404	-1.18490066225166				0.960953642384106	0.0957880794701987	0.269139072847682	-0.126092715231788	-1.09218543046358	1.09403973509934				-0.250172185430464	-0.177271523178808	-0.85594701986755	0.847417218543046	0.146490066225167	-0.76026490066225				0.464529801324503	-0.224529801324503	-0.837721854304636	0.522913907284768	0.4635761589404	1.06437086092715				0.948026490066225	0.0994966887417219	0.149933774834437	1.3517880794702	0.0519205298013249	1.06251655629139				0.399788079470199	-0.222834437086093	-0.836238410596026	2.82039735099338	0.717615894039735	-0.194701986754968			
12	340	-0.216158940397351	0.0987549668874172	-0.951523178807947	-0.246622516556291	0.135364238410596	-0.904900662251656				0.960953642384106	0.0957880794701987	0.269139072847682	0.433907284768212	-1.09218543046358	1.09403973509934				-0.266172185430464	-0.177271523178808	-0.87194701986755	0.00741721854304636	0.146490066225167	0.0797350993377501				0.464529801324503	-0.208529801324503	-0.821721854304636	-0.877086092715232	-0.6564238410596	1.62437086092715				0.948026490066225	0.0994966887417219	0.165933774834437	0.511788079470198	-0.228079470198675	1.06251655629139				0.383788079470199	-0.238834437086093	-0.836238410596026	1.98039735099338	-0.122384105960265	-0.194701986754968			
13	360	-0.216158940397351	0.0987549668874172	-0.935523178807947	0.593377483443709	0.135364238410596	-1.18490066225166				0.960953642384106	0.0797880794701987	0.269139072847682	0.713907284768212	-1.37218543046358	0.53403973509934				-0.250172185430464	-0.161271523178808	-0.87194701986755	0.00741721854304636	0.146490066225167	0.0797350993377501				0.464529801324503	-0.192529801324503	-0.837721854304636	-0.0370860927152318	-0.3764238410596	0.224370860927152				0.948026490066225	0.0994966887417219	0.165933774834437	1.0717880794702	-0.228079470198675	1.90251655629139				0.383788079470199	-0.238834437086093	-0.836238410596026	1.14039735099338	-0.962384105960265	0.0852980132450323			
14	380	-0.216158940397351	0.0987549668874172	-0.935523178807947	-0.246622516556291	-0.144635761589404	-0.904900662251656				0.960953642384106	0.0797880794701987	0.269139072847682	0.993907284768212	-2.21218543046358	0.81403973509934				-0.266172185430464	-0.177271523178808	-0.87194701986755	2.24741721854305	0.426490066225167	-0.20026490066225				0.464529801324503	-0.208529801324503	-0.837721854304636	0.802913907284768	-0.3764238410596	0.784370860927152				0.964026490066225	0.115496688741722	0.165933774834437	1.0717880794702	2.29192052980133	0.222516556291392				0.383788079470199	-0.238834437086093	-0.836238410596026	1.14039735099338	-0.402384105960265	-0.754701986754968			
15	400	-0.216158940397351	0.114754966887417	-0.951523178807947	0.0333774834437086	-0.144635761589404	-1.46490066225166				0.976953642384106	0.0957880794701987	0.269139072847682	1.27390728476821	-2.21218543046358	0.81403973509934				-0.250172185430464	-0.161271523178808	-0.85594701986755	0.00741721854304636	-0.413509933774833	-0.76026490066225				0.464529801324503	-0.224529801324503	-0.837721854304636	1.08291390728477	-0.0964238410596001	0.224370860927152				0.948026490066225	0.0994966887417219	0.165933774834437	-1.7282119205298	0.891920529801325	-0.337483443708608				0.383788079470199	-0.222834437086093	-0.852238410596026	1.42039735099338	-0.122384105960265	-0.754701986754968			
16	420	-0.216158940397351	0.0987549668874172	-0.951523178807947	-0.526622516556291	0.695364238410596	-1.46490066225166				0.976953642384106	0.0957880794701987	0.269139072847682	1.83390728476821	-3.05218543046358	0.81403973509934				-0.250172185430464	-0.177271523178808	-0.87194701986755	0.00741721854304636	-0.413509933774833	0.0797350993377501				0.464529801324503	-0.208529801324503	-0.837721854304636	0.802913907284768	-0.0964238410596001	0.504370860927152				0.964026490066225	0.0994966887417219	0.165933774834437	-1.7282119205298	0.0519205298013249	0.222516556291392				0.383788079470199	-0.238834437086093	-0.836238410596026	2.54039735099338	0.437615894039735	-0.754701986754968			
17	440	-0.216158940397351	0.0987549668874172	-0.951523178807947	-0.246622516556291	0.135364238410596	-1.46490066225166				0.960953642384106	0.0957880794701987	0.253139072847682	0.153907284768212	-2.77218543046358	0.81403973509934				-0.250172185430464	-0.161271523178808	-0.87194701986755	-0.272582781456954	-0.133509933774833	-0.20026490066225				0.448529801324503	-0.208529801324503	-0.837721854304636	1.92291390728477	1.0235761589404	1.34437086092715				0.948026490066225	0.0994966887417219	0.165933774834437	-0.888211920529802	2.01192052980133	-0.337483443708608				0.383788079470199	-0.238834437086093	-0.836238410596026	1.42039735099338	0.157615894039735	0.0852980132450323			
18	460	-0.200158940397351	0.0987549668874172	-0.935523178807947	0.0333774834437086	0.415364238410596	-0.904900662251656				0.976953642384106	0.0797880794701987	0.269139072847682	-0.966092715231788	-4.17218543046358	1.09403973509934				-0.250172185430464	-0.177271523178808	-0.88794701986755	0.00741721854304636	0.426490066225167	-0.48026490066225				0.464529801324503	-0.208529801324503	-0.837721854304636	1.36291390728477	1.5835761589404	1.06437086092715				0.964026490066225	0.0994966887417219	0.165933774834437	-0.0482119205298018	1.17192052980133	0.222516556291392				0.383788079470199	-0.238834437086093	-0.836238410596026	0.0203973509933773	-0.682384105960265	0.365298013245032			
19	480	-0.200158940397351	0.0987549668874172	-0.935523178807947	-1.08662251655629	0.135364238410596	-1.74490066225166				0.976953642384106	0.0797880794701987	0.269139072847682	1.55390728476821	-5.57218543046358	0.25403973509934				-0.250172185430464	-0.177271523178808	-0.87194701986755	0.847417218543046	-0.133509933774833	-0.48026490066225				0.464529801324503	-0.208529801324503	-0.821721854304636	-1.15708609271523	1.0235761589404	0.504370860927152				0.964026490066225	0.0834966887417219	0.149933774834437	1.0717880794702	1.73192052980133	0.502516556291392				0.383788079470199	-0.238834437086093	-0.852238410596026	-0.539602649006623	0.717615894039735	0.645298013245032			
20	500	-0.216158940397351	0.0987549668874172	-0.951523178807947	-0.526622516556291	-0.144635761589404	-0.624900662251656				0.976953642384106	0.0957880794701987	0.237139072847682	3.79390728476821	-5.85218543046358	0.81403973509934				-0.250172185430464	-0.161271523178808	-0.87194701986755	1.68741721854305	0.706490066225167	-0.76026490066225				0.464529801324503	-0.208529801324503	-0.821721854304636	-0.597086092715232	0.7435761589404	1.34437086092715				0.948026490066225	0.0994966887417219	0.165933774834437	-0.328211920529802	1.17192052980133	-0.0574834437086077				0.383788079470199	-0.222834437086093	-0.852238410596026	-0.259602649006623	1.27761589403974	0.365298013245032			
21	520	-0.216158940397351	0.114754966887417	-0.951523178807947	-0.246622516556291	0.135364238410596	-1.46490066225166				0.960953642384106	0.0957880794701987	0.253139072847682	2.95390728476821	-4.17218543046358	0.81403973509934				-0.250172185430464	-0.177271523178808	-0.85594701986755	1.12741721854305	1.26649006622517	-0.20026490066225				0.464529801324503	-0.208529801324503	-0.837721854304636	0.802913907284768	0.1835761589404	0.784370860927152				0.948026490066225	0.0834966887417219	0.213933774834437	-0.328211920529802	0.0519205298013249	0.782516556291392				0.383788079470199	-0.222834437086093	-0.836238410596026	0.580397350993377	0.997615894039735	-0.194701986754968			
22	540	-0.216158940397351	0.0987549668874172	-0.951523178807947	0.313377483443709	0.975364238410596	-0.904900662251656				0.960953642384106	0.0797880794701987	0.253139072847682	2.11390728476821	-3.33218543046358	1.93403973509934				-0.266172185430464	-0.177271523178808	-0.87194701986755	-0.552582781456954	0.706490066225167	-0.48026490066225				0.464529801324503	-0.208529801324503	-0.837721854304636	0.802913907284768	0.4635761589404	1.06437086092715				0.948026490066225	0.0994966887417219	0.165933774834437	0.231788079470198	1.45192052980132	0.222516556291392				0.383788079470199	-0.238834437086093	-0.836238410596026	0.860397350993377	0.437615894039735	0.0852980132450323			
23	560	-0.216158940397351	0.0987549668874172	-0.935523178807947	0.593377483443709	0.415364238410596	-0.904900662251656				0.976953642384106	0.0797880794701987	0.253139072847682	1.27390728476821	-3.89218543046358	1.09403973509934				-0.250172185430464	-0.177271523178808	-0.87194701986755	-0.832582781456954	-0.413509933774833	-0.48026490066225				0.464529801324503	-0.224529801324503	-0.837721854304636	-1.15708609271523	-0.3764238410596	1.34437086092715				0.948026490066225	0.0994966887417219	0.165933774834437	-0.0482119205298018	1.45192052980132	-0.617483443708608				0.383788079470199	-0.238834437086093	-0.836238410596026	0.300397350993377	-0.682384105960265	0.925298013245032			
24	580	-0.216158940397351	0.114754966887417	-0.935523178807947	-1.36662251655629	0.415364238410596	-1.74490066225166				0.976953642384106	0.0797880794701987	0.237139072847682	2.39390728476821	-5.29218543046358	1.37403973509934				-0.250172185430464	-0.161271523178808	-0.87194701986755	1.12741721854305	0.146490066225167	-0.20026490066225				0.464529801324503	-0.224529801324503	-0.821721854304636	-1.99708609271523	-0.3764238410596	1.34437086092715				0.948026490066225	0.0834966887417219	0.165933774834437	-0.608211920529802	0.611920529801325	-0.337483443708608				0.383788079470199	-0.238834437086093	-0.836238410596026	-0.819602649006623	0.437615894039735	0.645298013245032			
25	600	-0.216158940397351	0.114754966887417	-0.951523178807947	-0.526622516556291	0.415364238410596	-1.18490066225166				0.976953642384106	0.0957880794701987	0.237139072847682	3.51390728476821	-4.17218543046358	1.09403973509934				-0.250172185430464	-0.177271523178808	-0.85594701986755	0.847417218543046	0.426490066225167	-0.20026490066225				0.448529801324503	-0.208529801324503	-0.821721854304636	-1.43708609271523	-0.6564238410596	1.34437086092715				0.948026490066225	0.0834966887417219	0.165933774834437	-0.888211920529802	0.611920529801325	0.222516556291392				0.383788079470199	-0.222834437086093	-0.836238410596026	-0.539602649006623	0.157615894039735	0.0852980132450323			
26	620	-0.216158940397351	0.0987549668874172	-0.951523178807947	0.313377483443709	0.695364238410596	-1.18490066225166				0.976953642384106	0.0957880794701987	0.237139072847682	2.11390728476821	-1.93218543046358	1.09403973509934				-0.250172185430464	-0.177271523178808	-0.88794701986755	0.00741721854304636	0.706490066225167	-0.20026490066225				0.464529801324503	-0.192529801324503	-0.821721854304636	0.522913907284768	0.7435761589404	1.06437086092715				0.948026490066225	0.0834966887417219	0.181933774834437	-0.0482119205298018	1.45192052980132	-0.617483443708608				0.383788079470199	-0.222834437086093	-0.836238410596026	1.14039735099338	0.157615894039735	0.365298013245032			
27	640	-0.200158940397351	0.114754966887417	-0.951523178807947	0.0333774834437086	0.415364238410596	-1.18490066225166				0.960953642384106	0.0957880794701987	0.237139072847682	0.993907284768212	-1.09218543046358	0.81403973509934				-0.250172185430464	-0.177271523178808	-0.88794701986755	0.00741721854304636	-0.133509933774833	-0.20026490066225				0.480529801324503	-0.208529801324503	-0.821721854304636	1.08291390728477	1.5835761589404	0.224370860927152				0.948026490066225	0.0834966887417219	0.165933774834437	-0.608211920529802	-0.508079470198675	0.502516556291392				0.383788079470199	-0.238834437086093	-0.836238410596026	0.580397350993377	0.717615894039735	-0.194701986754968			
28	660	-0.216158940397351	0.0987549668874172	-0.935523178807947	-0.246622516556291	0.135364238410596	-1.46490066225166				0.960953642384106	0.0797880794701987	0.253139072847682	0.993907284768212	-1.65218543046358	0.81403973509934				-0.250172185430464	-0.161271523178808	-0.88794701986755	0.567417218543046	-0.133509933774833	-0.20026490066225				0.464529801324503	-0.208529801324503	-0.805721854304636	0.522913907284768	0.4635761589404	-0.615629139072848				0.948026490066225	0.0994966887417219	0.181933774834437	-0.608211920529802	1.73192052980133	-0.337483443708608				0.367788079470199	-0.238834437086093	-0.836238410596026	1.14039735099338	-0.122384105960265	-1.03470198675497			
29	680	-0.216158940397351	0.114754966887417	-0.919523178807947	-0.526622516556291	-0.144635761589404	-0.904900662251656				0.960953642384106	0.0957880794701987	0.221139072847682	1.83390728476821	-1.09218543046358	0.53403973509934				-0.250172185430464	-0.177271523178808	-0.85594701986755	0.287417218543046	-0.413509933774833	0.35973509933775				0.480529801324503	-0.224529801324503	-0.837721854304636	1.64291390728477	0.1835761589404	-0.895629139072848				0.948026490066225	0.115496688741722	0.181933774834437	-1.4482119205298	0.891920529801325	0.222516556291392				0.383788079470199	-0.222834437086093	-0.836238410596026	0.580397350993377	-0.682384105960265	-0.754701986754968			
30	700	-0.216158940397351	0.0987549668874172	-0.951523178807947	-0.246622516556291	-0.144635761589404	-0.904900662251656				0.960953642384106	0.0957880794701987	0.253139072847682	2.11390728476821	-0.812185430463576	0.53403973509934				-0.250172185430464	-0.177271523178808	-0.87194701986755	0.00741721854304636	-0.133509933774833	-0.20026490066225				0.480529801324503	-0.224529801324503	-0.821721854304636	-0.0370860927152318	-0.6564238410596	-0.335629139072848				0.948026490066225	0.0834966887417219	0.165933774834437	2.1917880794702	1.17192052980133	0.222516556291392				0.383788079470199	-0.222834437086093	-0.852238410596026	1.42039735099338	-0.682384105960265	-1.03470198675497			
31	720	-0.216158940397351	0.0987549668874172	-0.935523178807947	-0.526622516556291	0.415364238410596	-1.46490066225166				0.976953642384106	0.0797880794701987	0.237139072847682	1.27390728476821	-1.93218543046358	0.81403973509934				-0.250172185430464	-0.161271523178808	-0.87194701986755	0.847417218543046	0.146490066225167	0.0797350993377501				0.464529801324503	-0.224529801324503	-0.821721854304636	-0.877086092715232	-1.2164238410596	-0.0556291390728476				0.964026490066225	0.0994966887417219	0.165933774834437	1.9117880794702	1.17192052980133	0.222516556291392				0.383788079470199	-0.238834437086093	-0.836238410596026	0.580397350993377	0.437615894039735	-1.59470198675497			
32	740	-0.200158940397351	0.0987549668874172	-0.935523178807947	0.0333774834437086	0.135364238410596	-0.624900662251656				0.976953642384106	0.0797880794701987	0.253139072847682	1.55390728476821	-2.21218543046358	-0.86596026490066				-0.266172185430464	-0.161271523178808	-0.87194701986755	0.847417218543046	-0.973509933774833	0.35973509933775				0.464529801324503	-0.208529801324503	-0.837721854304636	0.522913907284768	0.4635761589404	0.224370860927152				0.964026490066225	0.0994966887417219	0.165933774834437	0.231788079470198	0.611920529801325	-0.617483443708608				0.383788079470199	-0.238834437086093	-0.836238410596026	1.14039735099338	0.717615894039735	-1.59470198675497			
33	760	-0.216158940397351	0.0987549668874172	-0.951523178807947	-0.526622516556291	-0.144635761589404	-0.624900662251656				0.976953642384106	0.0957880794701987	0.253139072847682	2.11390728476821	-3.05218543046358	0.25403973509934				-0.250172185430464	-0.177271523178808	-0.87194701986755	0.287417218543046	0.146490066225167	0.35973509933775				0.464529801324503	-0.224529801324503	-0.821721854304636	0.522913907284768	-0.0964238410596001	-0.335629139072848				0.948026490066225	0.0994966887417219	0.165933774834437	0.511788079470198	0.331920529801325	-0.897483443708608				0.383788079470199	-0.238834437086093	-0.836238410596026	0.0203973509933773	-0.122384105960265	-1.31470198675497			
34	780	-0.216158940397351	0.114754966887417	-0.967523178807947	-1.36662251655629	0.415364238410596	-0.904900662251656				0.976953642384106	0.0957880794701987	0.237139072847682	3.23390728476821	-2.77218543046358	0.25403973509934				-0.250172185430464	-0.177271523178808	-0.87194701986755	-0.272582781456954	-0.133509933774833	-0.76026490066225				0.464529801324503	-0.224529801324503	-0.821721854304636	-1.99708609271523	-0.9364238410596	-0.0556291390728476				0.964026490066225	0.0994966887417219	0.181933774834437	-0.0482119205298018	1.17192052980133	-0.0574834437086077				0.399788079470199	-0.238834437086093	-0.836238410596026	0.300397350993377	-0.962384105960265	-0.754701986754968			
35	800	-0.216158940397351	0.0987549668874172	-0.935523178807947	0.313377483443709	0.695364238410596	-0.624900662251656				0.976953642384106	0.0957880794701987	0.237139072847682	1.55390728476821	-0.812185430463576	0.53403973509934				-0.250172185430464	-0.161271523178808	-0.88794701986755	0.00741721854304636	0.706490066225167	0.0797350993377501				0.464529801324503	-0.208529801324503	-0.837721854304636	-1.99708609271523	-0.3764238410596	0.784370860927152				0.964026490066225	0.0994966887417219	0.181933774834437	-0.0482119205298018	0.611920529801325	-1.17748344370861				0.383788079470199	-0.238834437086093	-0.852238410596026	0.580397350993377	-0.402384105960265	0.0852980132450323			
36	820	-0.216158940397351	0.0987549668874172	-0.935523178807947	0.313377483443709	0.135364238410596	-0.904900662251656				0.976953642384106	0.0957880794701987	0.253139072847682	2.39390728476821	-2.21218543046358	-0.0259602649006601				-0.250172185430464	-0.161271523178808	-0.87194701986755	0.00741721854304636	0.706490066225167	0.0797350993377501				0.464529801324503	-0.208529801324503	-0.821721854304636	-0.597086092715232	-0.6564238410596	1.06437086092715				0.964026490066225	0.0994966887417219	0.165933774834437	-0.328211920529802	0.611920529801325	-0.0574834437086077				0.383788079470199	-0.222834437086093	-0.836238410596026	0.580397350993377	0.437615894039735	-0.474701986754968			
37	840	-0.200158940397351	0.114754966887417	-0.935523178807947	-0.526622516556291	0.695364238410596	-1.18490066225166				0.976953642384106	0.0797880794701987	0.237139072847682	3.23390728476821	-3.61218543046358	0.53403973509934				-0.250172185430464	-0.177271523178808	-0.87194701986755	0.00741721854304636	-0.133509933774833	-0.20026490066225				0.464529801324503	-0.192529801324503	-0.821721854304636	-0.877086092715232	-0.9364238410596	0.504370860927152				0.964026490066225	0.0994966887417219	0.181933774834437	-0.608211920529802	-0.508079470198675	-0.0574834437086077				0.383788079470199	-0.222834437086093	-0.836238410596026	0.580397350993377	0.157615894039735	-0.194701986754968			
38	860	-0.200158940397351	0.0987549668874172	-0.951523178807947	0.0333774834437086	0.415364238410596	-1.18490066225166				0.960953642384106	0.0957880794701987	0.221139072847682	2.95390728476821	-3.89218543046358	0.81403973509934				-0.250172185430464	-0.161271523178808	-0.87194701986755	1.40741721854305	0.426490066225167	-0.48026490066225				0.464529801324503	-0.208529801324503	-0.821721854304636	0.802913907284768	-0.0964238410596001	0.224370860927152				0.948026490066225	0.0994966887417219	0.181933774834437	-0.0482119205298018	-0.228079470198675	-0.617483443708608				0.383788079470199	-0.222834437086093	-0.836238410596026	0.300397350993377	0.157615894039735	-0.474701986754968			
39	880	-0.216158940397351	0.0987549668874172	-0.935523178807947	0.313377483443709	-0.144635761589404	-0.904900662251656				0.976953642384106	0.0957880794701987	0.221139072847682	3.23390728476821	-1.65218543046358	0.53403973509934				-0.250172185430464	-0.161271523178808	-0.87194701986755	0.847417218543046	1.26649006622517	-0.20026490066225				0.448529801324503	-0.208529801324503	-0.821721854304636	0.242913907284768	-0.0964238410596001	-0.335629139072848				0.932026490066225	0.115496688741722	0.181933774834437	0.231788079470198	-0.228079470198675	0.782516556291392				0.383788079470199	-0.222834437086093	-0.836238410596026	0.300397350993377	-0.122384105960265	0.0852980132450323			
40	900	-0.216158940397351	0.0987549668874172	-0.935523178807947	-0.246622516556291	0.415364238410596	-0.624900662251656				0.976953642384106	0.0957880794701987	0.237139072847682	2.11390728476821	0.0278145695364242	0.53403973509934				-0.250172185430464	-0.177271523178808	-0.87194701986755	1.12741721854305	-0.413509933774833	0.0797350993377501				0.464529801324503	-0.192529801324503	-0.821721854304636	-0.317086092715232	-0.0964238410596001	-0.615629139072848				0.948026490066225	0.0994966887417219	0.165933774834437	1.3517880794702	1.17192052980133	0.782516556291392				0.383788079470199	-0.222834437086093	-0.852238410596026	0.300397350993377	-0.402384105960265	-0.754701986754968			
41	920	-0.216158940397351	0.114754966887417	-0.951523178807947	-0.246622516556291	0.415364238410596	-0.904900662251656				0.976953642384106	0.0957880794701987	0.237139072847682	1.55390728476821	0.0278145695364242	0.25403973509934				-0.250172185430464	-0.177271523178808	-0.87194701986755	0.287417218543046	0.146490066225167	0.0797350993377501				0.464529801324503	-0.192529801324503	-0.821721854304636	0.802913907284768	0.4635761589404	-0.615629139072848				0.964026490066225	0.0994966887417219	0.181933774834437	0.791788079470198	0.0519205298013249	-0.337483443708608				0.399788079470199	-0.222834437086093	-0.836238410596026	1.42039735099338	-0.402384105960265	-1.31470198675497			
42	940	-0.216158940397351	0.114754966887417	-0.935523178807947	-0.246622516556291	-0.144635761589404	-0.344900662251656				0.976953642384106	0.0957880794701987	0.253139072847682	1.55390728476821	-2.21218543046358	0.25403973509934				-0.266172185430464	-0.177271523178808	-0.85594701986755	-0.272582781456954	0.426490066225167	-0.48026490066225				0.464529801324503	-0.208529801324503	-0.821721854304636	1.36291390728477	1.0235761589404	0.504370860927152				0.948026490066225	0.0994966887417219	0.181933774834437	0.791788079470198	0.0519205298013249	0.222516556291392				0.399788079470199	-0.238834437086093	-0.852238410596026	0.580397350993377	-0.402384105960265	-1.03470198675497			
43	1040	0	0	0	0	0	0				0	0	0	0	0	0				-0.250172185430464	-0.177271523178808	-0.87194701986755	-0.272582781456954	0.426490066225167	-0.48026490066225				0	0	0	0	0	0				0	0	0	0	0	0				0	0	0	0	0	0			
44	1060	-0.216158940397351	0.114754966887417	-0.935523178807947	0.873377483443709	0.135364238410596	-0.904900662251656				0.976953642384106	0.0797880794701987	0.253139072847682	2.11390728476821	-4.73218543046358	-0.30596026490066				-0.250172185430464	-0.177271523178808	-0.87194701986755	1.40741721854305	-0.413509933774833	0.0797350993377501				0	0	0	0	0	0				0	0	0	0	0	0				0	0	0	0	0	0			
45	1080	-0.216158940397351	0.0987549668874172	-0.951523178807947	-0.526622516556291	-0.144635761589404	-0.904900662251656				0.960953642384106	0.0957880794701987	0.221139072847682	3.79390728476821	-3.61218543046358	-0.30596026490066				-0.266172185430464	-0.177271523178808	-0.87194701986755	0.847417218543046	0.986490066225167	0.0797350993377501				0.464529801324503	-0.208529801324503	-0.821721854304636	-0.0370860927152318	-0.3764238410596	1.34437086092715				0.948026490066225	0.0994966887417219	0.165933774834437	0.231788079470198	0.331920529801325	0.782516556291392				0.383788079470199	-0.222834437086093	-0.852238410596026	0.0203973509933773	0.717615894039735	-0.754701986754968			
46	1100	-0.216158940397351	0.114754966887417	-0.951523178807947	0.0333774834437086	-0.424635761589404	-1.18490066225166				0.976953642384106	0.0957880794701987	0.205139072847682	3.51390728476821	-1.93218543046358	1.09403973509934				-0.266172185430464	-0.161271523178808	-0.87194701986755	-0.552582781456954	0.986490066225167	-0.76026490066225				0.464529801324503	-0.224529801324503	-0.821721854304636	1.08291390728477	1.0235761589404	1.06437086092715				0.948026490066225	0.0994966887417219	0.181933774834437	0.511788079470198	0.0519205298013249	-0.0574834437086077				0.399788079470199	-0.238834437086093	-0.836238410596026	0.0203973509933773	0.997615894039735	-0.474701986754968			
47	1120	-0.232158940397351	0.0987549668874172	-0.951523178807947	0.593377483443709	0.695364238410596	-1.46490066225166				0.976953642384106	0.0957880794701987	0.221139072847682	2.39390728476821	-2.21218543046358	0.53403973509934				-0.250172185430464	-0.177271523178808	-0.87194701986755	0.567417218543046	0.146490066225167	-0.20026490066225				0.464529801324503	-0.224529801324503	-0.837721854304636	0.522913907284768	1.0235761589404	1.34437086092715				0.948026490066225	0.0994966887417219	0.181933774834437	-0.0482119205298018	-0.228079470198675	-0.0574834437086077				0.399788079470199	-0.238834437086093	-0.836238410596026	-0.539602649006623	1.27761589403974	0.0852980132450323			
48	1140	-0.216158940397351	0.114754966887417	-0.935523178807947	-0.246622516556291	0.415364238410596	-0.624900662251656				0.976953642384106	0.0957880794701987	0.237139072847682	0.153907284768212	-2.49218543046358	1.09403973509934				-0.250172185430464	-0.177271523178808	-0.87194701986755	0.287417218543046	0.986490066225167	-0.20026490066225				0.464529801324503	-0.208529801324503	-0.837721854304636	-0.597086092715232	-0.0964238410596001	1.62437086092715				0.948026490066225	0.0994966887417219	0.181933774834437	-0.328211920529802	0.331920529801325	0.222516556291392				0.383788079470199	-0.238834437086093	-0.836238410596026	-0.539602649006623	0.157615894039735	0.365298013245032			
49	1160	-0.216158940397351	0.114754966887417	-0.935523178807947	0.0333774834437086	0.415364238410596	-0.344900662251656				0.976953642384106	0.0957880794701987	0.221139072847682	0.993907284768212	-4.17218543046358	0.81403973509934				-0.250172185430464	-0.177271523178808	-0.87194701986755	0.00741721854304636	0.426490066225167	-0.20026490066225				0.464529801324503	-0.208529801324503	-0.821721854304636	-1.43708609271523	-0.3764238410596	1.90437086092715				0.948026490066225	0.0994966887417219	0.181933774834437	-0.888211920529802	0.331920529801325	-1.17748344370861				0.383788079470199	-0.238834437086093	-0.836238410596026	-0.539602649006623	-0.122384105960265	0.645298013245032			
50	1180	-0.216158940397351	0.0987549668874172	-0.951523178807947	0.313377483443709	0.415364238410596	-0.904900662251656				0.960953642384106	0.0957880794701987	0.205139072847682	2.11390728476821	-3.61218543046358	0.53403973509934				-0.250172185430464	-0.161271523178808	-0.87194701986755	0.847417218543046	0.986490066225167	-0.20026490066225				0.464529801324503	-0.192529801324503	-0.821721854304636	-1.15708609271523	-0.3764238410596	1.06437086092715				0.948026490066225	0.0994966887417219	0.181933774834437	-0.888211920529802	-0.508079470198675	-0.0574834437086077				0.383788079470199	-0.222834437086093	-0.836238410596026	0.580397350993377	0.437615894039735	0.0852980132450323			
51	1200	-0.216158940397351	0.0987549668874172	-0.951523178807947	-0.526622516556291	0.135364238410596	-0.904900662251656				0.960953642384106	0.0957880794701987	0.221139072847682	2.67390728476821	-1.93218543046358	0.25403973509934				-0.250172185430464	-0.177271523178808	-0.87194701986755	-0.552582781456954	-0.413509933774833	-0.20026490066225				0.464529801324503	-0.208529801324503	-0.821721854304636	-0.0370860927152318	-1.2164238410596	1.34437086092715				0.948026490066225	0.0994966887417219	0.165933774834437	-0.0482119205298018	-0.508079470198675	0.502516556291392				0.383788079470199	-0.222834437086093	-0.836238410596026	0.0203973509933773	0.157615894039735	0.365298013245032			
52	1220	-0.216158940397351	0.114754966887417	-0.935523178807947	-0.246622516556291	0.135364238410596	-1.18490066225166				0.976953642384106	0.0957880794701987	0.221139072847682	0.993907284768212	0.307814569536424	0.25403973509934				-0.250172185430464	-0.177271523178808	-0.87194701986755	0.567417218543046	-0.693509933774834	-0.20026490066225				0.464529801324503	-0.208529801324503	-0.821721854304636	0.242913907284768	-0.0964238410596001	1.34437086092715				0.948026490066225	0.0994966887417219	0.181933774834437	0.231788079470198	0.891920529801325	-0.337483443708608				0.383788079470199	-0.238834437086093	-0.852238410596026	3.94039735099338	-0.402384105960265	-0.194701986754968			
53	1240	-0.216158940397351	0.0987549668874172	-0.935523178807947	0.593377483443709	-0.144635761589404	-1.18490066225166				0.976953642384106	0.0957880794701987	0.221139072847682	0.713907284768212	0.587814569536424	0.25403973509934				-0.266172185430464	-0.161271523178808	-0.85594701986755	-0.832582781456954	0.146490066225167	0.35973509933775				0.464529801324503	-0.224529801324503	-0.821721854304636	-0.317086092715232	-0.6564238410596	0.224370860927152				0.932026490066225	0.0994966887417219	0.165933774834437	-1.4482119205298	1.17192052980133	0.222516556291392				0.383788079470199	-0.238834437086093	-0.836238410596026	0.300397350993377	-0.402384105960265	0.0852980132450323			
54	1260	-0.216158940397351	0.114754966887417	-0.951523178807947	-0.806622516556291	0.415364238410596	-0.904900662251656				0.976953642384106	0.0957880794701987	0.205139072847682	0.713907284768212	0.587814569536424	-0.0259602649006601				-0.266172185430464	-0.177271523178808	-0.85594701986755	-0.272582781456954	0.426490066225167	0.0797350993377501				0.464529801324503	-0.208529801324503	-0.837721854304636	0.522913907284768	1.0235761589404	0.224370860927152				0.948026490066225	0.0994966887417219	0.181933774834437	-0.0482119205298018	1.17192052980133	-0.617483443708608				0.367788079470199	-0.238834437086093	-0.836238410596026	0.0203973509933773	0.157615894039735	-0.194701986754968			
55	1280	-0.232158940397351	0.114754966887417	-0.951523178807947	0.0333774834437086	0.695364238410596	-1.18490066225166				0.976953642384106	0.0957880794701987	0.221139072847682	-0.686092715231788	-0.252185430463576	0.53403973509934				-0.250172185430464	-0.177271523178808	-0.87194701986755	1.12741721854305	-0.133509933774833	0.35973509933775				0.464529801324503	-0.208529801324503	-0.837721854304636	-0.597086092715232	0.7435761589404	0.224370860927152				0.948026490066225	0.0834966887417219	0.165933774834437	1.0717880794702	-0.788079470198675	-0.337483443708608				0.383788079470199	-0.238834437086093	-0.836238410596026	0.0203973509933773	1.83761589403974	-0.194701986754968			
56	1300	-0.216158940397351	0.0987549668874172	-0.935523178807947	-0.526622516556291	0.695364238410596	-1.46490066225166				0.976953642384106	0.0957880794701987	0.221139072847682	1.27390728476821	-0.252185430463576	0.53403973509934				-0.250172185430464	-0.161271523178808	-0.87194701986755	0.287417218543046	0.706490066225167	0.35973509933775				0.464529801324503	-0.208529801324503	-0.837721854304636	-0.597086092715232	1.3035761589404	1.06437086092715				0.964026490066225	0.0994966887417219	0.181933774834437	-0.328211920529802	0.0519205298013249	-0.337483443708608				0.383788079470199	-0.238834437086093	-0.820238410596026	-0.539602649006623	1.55761589403974	-0.754701986754968			
57	1320	-0.216158940397351	0.0987549668874172	-0.935523178807947	-0.526622516556291	0.135364238410596	-1.18490066225166				0.976953642384106	0.0797880794701987	0.221139072847682	0.993907284768212	-1.37218543046358	-0.0259602649006601				-0.250172185430464	-0.161271523178808	-0.87194701986755	0.567417218543046	0.706490066225167	0.0797350993377501				0.448529801324503	-0.208529801324503	-0.837721854304636	0.242913907284768	1.3035761589404	0.504370860927152				0.964026490066225	0.0994966887417219	0.165933774834437	-0.328211920529802	0.331920529801325	-0.0574834437086077				0.383788079470199	-0.238834437086093	-0.852238410596026	0.860397350993377	0.157615894039735	-0.474701986754968			
58	1340	-0.200158940397351	0.0987549668874172	-0.951523178807947	0.0333774834437086	-0.144635761589404	-1.18490066225166				0.976953642384106	0.0957880794701987	0.221139072847682	0.713907284768212	0.307814569536424	0.81403973509934				-0.250172185430464	-0.177271523178808	-0.85594701986755	-0.272582781456954	-0.133509933774833	-0.48026490066225				0.464529801324503	-0.208529801324503	-0.837721854304636	1.36291390728477	1.3035761589404	0.504370860927152				0.964026490066225	0.0994966887417219	0.181933774834437	0.231788079470198	0.0519205298013249	-0.337483443708608				0.399788079470199	-0.238834437086093	-0.836238410596026	-0.819602649006623	0.997615894039735	-0.474701986754968			
59	1360	-0.216158940397351	0.0987549668874172	-0.951523178807947	-1.08662251655629	-0.144635761589404	-0.624900662251656				0.976953642384106	0.0797880794701987	0.221139072847682	0.713907284768212	1.14781456953642	1.09403973509934				-0.250172185430464	-0.177271523178808	-0.87194701986755	0.00741721854304636	-0.133509933774833	-0.48026490066225				0.464529801324503	-0.208529801324503	-0.821721854304636	0.522913907284768	1.8635761589404	0.504370860927152				0.964026490066225	0.0994966887417219	0.181933774834437	-0.328211920529802	0.331920529801325	-0.0574834437086077				0.399788079470199	-0.222834437086093	-0.852238410596026	0.300397350993377	0.437615894039735	-0.194701986754968			
60	1380	-0.216158940397351	0.0987549668874172	-0.935523178807947	0.313377483443709	0.415364238410596	-0.904900662251656				0.976953642384106	0.111788079470199	0.221139072847682	-0.406092715231788	0.587814569536424	0.25403973509934				-0.250172185430464	-0.161271523178808	-0.87194701986755	0.00741721854304636	-0.413509933774833	-0.48026490066225				0.464529801324503	-0.208529801324503	-0.837721854304636	1.08291390728477	1.5835761589404	1.06437086092715				0.964026490066225	0.0994966887417219	0.181933774834437	-0.0482119205298018	0.611920529801325	0.222516556291392				0.383788079470199	-0.238834437086093	-0.852238410596026	0.580397350993377	0.437615894039735	0.365298013245032			
61	1400	-0.216158940397351	0.114754966887417	-0.935523178807947	-0.246622516556291	0.695364238410596	-0.904900662251656				0.976953642384106	0.0957880794701987	0.221139072847682	0.153907284768212	-0.812185430463576	-0.0259602649006601				-0.250172185430464	-0.161271523178808	-0.87194701986755	-0.272582781456954	-0.133509933774833	-0.20026490066225				0.464529801324503	-0.224529801324503	-0.821721854304636	-0.0370860927152318	1.0235761589404	1.62437086092715				0.964026490066225	0.0994966887417219	0.165933774834437	-0.608211920529802	0.331920529801325	0.222516556291392				0.399788079470199	-0.222834437086093	-0.836238410596026	0.860397350993377	0.157615894039735	0.645298013245032			
62	1420	-0.216158940397351	0.0987549668874172	-0.935523178807947	-1.08662251655629	0.415364238410596	-0.624900662251656				0.992953642384106	0.0957880794701987	0.205139072847682	1.27390728476821	-2.21218543046358	-0.30596026490066				-0.266172185430464	-0.177271523178808	-0.85594701986755	0.847417218543046	0.146490066225167	-0.20026490066225				0.464529801324503	-0.224529801324503	-0.837721854304636	-0.317086092715232	0.4635761589404	1.62437086092715				0.964026490066225	0.0994966887417219	0.165933774834437	-2.0082119205298	0.0519205298013249	-0.0574834437086077				0.383788079470199	-0.238834437086093	-0.836238410596026	0.860397350993377	-0.682384105960265	-0.194701986754968			
63	1440	-0.216158940397351	0.0987549668874172	-0.951523178807947	-1.36662251655629	0.135364238410596	-0.904900662251656				0.992953642384106	0.111788079470199	0.173139072847682	0.993907284768212	-4.45218543046358	-0.0259602649006601				-0.266172185430464	-0.177271523178808	-0.88794701986755	0.00741721854304636	-0.413509933774833	-0.20026490066225				0.448529801324503	-0.224529801324503	-0.837721854304636	1.08291390728477	-0.3764238410596	1.62437086092715				0.980026490066225	0.0834966887417219	0.165933774834437	-1.7282119205298	0.331920529801325	-0.337483443708608				0.383788079470199	-0.238834437086093	-0.836238410596026	-0.259602649006623	-0.962384105960265	-0.194701986754968			
64	1460	-0.232158940397351	0.0987549668874172	-0.951523178807947	-1.08662251655629	0.695364238410596	-0.904900662251656				0.992953642384106	0.127788079470199	0.189139072847682	2.11390728476821	-5.85218543046358	-0.0259602649006601				-0.266172185430464	-0.145271523178808	-0.88794701986755	0.847417218543046	0.426490066225167	-0.20026490066225				0.448529801324503	-0.208529801324503	-0.853721854304636	1.92291390728477	0.4635761589404	1.62437086092715				0.980026490066225	0.0994966887417219	0.181933774834437	-1.7282119205298	0.331920529801325	-0.0574834437086077				0.383788079470199	-0.238834437086093	-0.852238410596026	-1.09960264900662	0.437615894039735	0.925298013245032			
65	1480	-0.232158940397351	0.114754966887417	-0.951523178807947	-1.36662251655629	0.975364238410596	-0.0649006622516557				0.992953642384106	0.0957880794701987	0.173139072847682	2.39390728476821	-2.21218543046358	1.37403973509934				-0.266172185430464	-0.145271523178808	-0.87194701986755	-0.272582781456954	0.426490066225167	0.63973509933775				0.448529801324503	-0.224529801324503	-0.837721854304636	2.48291390728477	0.4635761589404	2.46437086092715				0.980026490066225	0.0994966887417219	0.149933774834437	-1.4482119205298	1.17192052980133	0.502516556291392				0.367788079470199	-0.238834437086093	-0.868238410596026	-1.37960264900662	1.55761589403974	1.48529801324503			
66	1500	-0.200158940397351	0.0987549668874172	-0.951523178807947	-0.526622516556291	1.2553642384106	-0.0649006622516557				0.992953642384106	0.111788079470199	0.189139072847682	2.67390728476821	-1.65218543046358	1.09403973509934				-0.250172185430464	-0.161271523178808	-0.87194701986755	1.12741721854305	0.706490066225167	-0.20026490066225				0.448529801324503	-0.240529801324503	-0.837721854304636	8.08291390728477	-2.8964238410596	1.34437086092715				0.980026490066225	0.0994966887417219	0.149933774834437	-1.7282119205298	0.0519205298013249	0.502516556291392				0.351788079470199	-0.238834437086093	-0.900238410596026	-1.09960264900662	3.51761589403974	2.88529801324503			
67	1520	-0.200158940397351	0.0827549668874172	-0.951523178807947	-2.48662251655629	0.135364238410596	0.495099337748344				1.00895364238411	0.0957880794701987	0.173139072847682	1.83390728476821	-7.81218543046358	2.21403973509934				-0.218172185430464	-0.177271523178808	-0.85594701986755	0.00741721854304636	-0.413509933774833	-1.04026490066225				0.448529801324503	-0.224529801324503	-0.853721854304636	15.3629139072848	-10.4564238410596	-1.45562913907285				0.996026490066225	0.115496688741722	0.117933774834437	-3.1282119205298	-0.788079470198675	-0.0574834437086077				0.367788079470199	-0.238834437086093	-0.916238410596027	5.90039735099338	17.7976158940397	7.08529801324503			
68	1540	-0.200158940397351	0.0667549668874172	-0.935523178807947	-3.32662251655629	-0.424635761589404	-0.0649006622516557				1.05695364238411	0.111788079470199	0.125139072847682	4.07390728476821	-22.9321854304636	4.17403973509934				-0.234172185430464	-0.145271523178808	-0.83994701986755	-1.95258278145695	-2.93350993377483	-2.44026490066225				0.432529801324503	-0.224529801324503	-0.885721854304636	9.20291390728477	-10.7364238410596	-2.29562913907285				0.980026490066225	0.131496688741722	0.149933774834437	-2.2882119205298	1.17192052980133	1.06251655629139				0.383788079470199	-0.222834437086093	-0.900238410596026	9.26039735099338	12.4776158940397	9.60529801324503			
69	1560	-0.232158940397351	0.0827549668874172	-0.951523178807947	-3.88662251655629	-0.984635761589404	0.495099337748344				1.08895364238411	0.143788079470199	0.0771390728476822	8.27390728476821	-41.1321854304636	6.13403973509934				-0.282172185430464	-0.145271523178808	-0.85594701986755	0.287417218543046	-3.21350993377483	-2.72026490066225				0.432529801324503	-0.224529801324503	-0.885721854304636	1.08291390728477	-10.4564238410596	-5.37562913907285				1.01202649006623	0.115496688741722	0.0699337748344371	-0.888211920529802	-3.30807947019868	2.18251655629139				0.383788079470199	-0.318834437086093	-0.900238410596026	15.4203973509934	-2.08238410596027	15.485298013245			
70	1580	-0.264158940397351	0.0827549668874172	-0.935523178807947	-7.24662251655629	-1.8246357615894	1.33509933774834				1.04095364238411	0.143788079470199	0.0291390728476822	6.59390728476821	-43.3721854304636	9.21403973509934				-0.298172185430464	-0.161271523178808	-0.88794701986755	4.48741721854305	-1.81350993377483	-3.28026490066225				0.384529801324503	-0.192529801324503	-0.917721854304636	1.36291390728477	-13.5364238410596	-7.61562913907285				1.02802649006623	0.115496688741722	0.117933774834437	-2.5682119205298	3.69192052980133	1.06251655629139				0.287788079470199	-0.398834437086093	-0.916238410596027	4.78039735099338	-10.4823841059603	30.045298013245			
71	1600	-0.264158940397351	0.0987549668874172	-0.951523178807947	-13.9666225165563	0.135364238410596	2.73509933774834				1.00895364238411	0.127788079470199	0.0771390728476822	-0.126092715231788	-33.5721854304636	9.77403973509934				-0.298172185430464	-0.177271523178808	-0.87194701986755	5.88741721854305	-1.25350993377483	-4.68026490066225				0.384529801324503	-0.192529801324503	-0.933721854304636	-1.43708609271523	-10.1764238410596	-10.6956291390728				1.04402649006623	0.115496688741722	0.0859337748344371	-4.2482119205298	-0.788079470198675	3.30251655629139				0.271788079470199	-0.270834437086093	-0.916238410596027	-24.0596026490066	2.67761589403974	35.925298013245			
72	1620	-0.248158940397351	0.0987549668874172	-0.919523178807947	-11.4466225165563	-2.3846357615894	7.21509933774835				1.02495364238411	0.111788079470199	0.0771390728476822	0.153907284768212	-32.1721854304636	8.65403973509934				-0.266172185430464	-0.161271523178808	-0.85594701986755	5.60741721854305	-0.973509933774833	-6.36026490066225				0.384529801324503	-0.240529801324503	-0.949721854304636	8.36291390728477	-5.4164238410596	-16.8556291390729				1.06002649006623	0.115496688741722	0.00593377483443711	-2.8482119205298	-4.42807947019868	5.82251655629139				0.271788079470199	-0.222834437086093	-0.980238410596026	-19.2996026490066	11.3576158940397	38.165298013245			
73	1640	-0.200158940397351	0.0827549668874172	-0.919523178807947	-12.0066225165563	-1.8246357615894	6.93509933774835				1.00895364238411	0.0957880794701987	0.0291390728476822	2.39390728476821	-34.6921854304636	9.77403973509934				-0.218172185430464	-0.161271523178808	-0.85594701986755	7.28741721854305	-0.693509933774834	-7.20026490066225				0.352529801324503	-0.288529801324503	-0.965721854304636	12.8429139072848	-6.5364238410596	-25.8156291390729				1.04402649006623	0.0994966887417219	-0.0100662251655629	1.9117880794702	-6.10807947019868	6.10251655629139				0.271788079470199	-0.254834437086093	-0.964238410596026	-5.29960264900662	1.55761589403974	49.925298013245			
74	1660	-0.216158940397351	0.114754966887417	-0.951523178807947	-12.2866225165563	-3.2246357615894	7.77509933774834				0.992953642384106	0.127788079470199	-0.0348609271523178	1.83390728476821	-33.8521854304636	11.7340397350993				-0.266172185430464	-0.145271523178808	-0.85594701986755	7.28741721854305	-4.89350993377483	-7.20026490066225				0.320529801324503	-0.240529801324503	-0.965721854304636	-3.39708609271523	-11.8564238410596	-32.5356291390729				1.04402649006623	0.0674966887417219	-0.0100662251655629	2.4717880794702	-4.70807947019868	6.66251655629139				0.255788079470199	-0.302834437086093	-0.932238410596026	0.0203973509933773	0.997615894039735	61.965298013245			
75	1680	-0.280158940397351	0.130754966887417	-0.967523178807947	-12.5666225165563	-2.9446357615894	8.33509933774834				1.00895364238411	0.111788079470199	-0.130860927152318	7.43390728476821	-23.7721854304636	12.0140397350993				-0.330172185430464	-0.145271523178808	-0.90394701986755	5.60741721854305	-2.09350993377483	-4.68026490066225				0.304529801324503	-0.240529801324503	-0.917721854304636	-13.7570860927152	-17.1764238410596	-37.2956291390729				1.01202649006623	0.0514966887417219	-0.0100662251655629	-0.0482119205298018	-6.10807947019868	5.82251655629139				0.223788079470199	-0.286834437086093	-0.964238410596026	-4.45960264900662	-0.402384105960265	70.365298013245			
76	1700	-0.296158940397351	0.146754966887417	-0.999523178807947	-10.8866225165563	1.8153642384106	11.6950993377483				0.960953642384106	0.159788079470199	-0.114860927152318	8.27390728476821	-9.49218543046358	10.3340397350993				-0.346172185430464	-0.193271523178808	-0.93594701986755	8.12741721854305	-0.973509933774833	-3.28026490066225				0.272529801324503	-0.288529801324503	-0.917721854304636	-11.7970860927152	-19.6964238410596	-38.4156291390728				0.996026490066225	0.0674966887417219	0.00593377483443711	-2.0082119205298	-6.94807947019868	5.54251655629139				0.223788079470199	-0.174834437086093	-0.964238410596026	-8.09960264900662	-2.64238410596027	70.365298013245			
77	1720	-0.280158940397351	0.162754966887417	-0.919523178807947	-16.4866225165563	4.6153642384106	11.6950993377483				0.928953642384106	0.111788079470199	-0.0508609271523178	4.91390728476821	3.38781456953642	13.4140397350993				-0.314172185430464	-0.193271523178808	-0.87194701986755	10.927417218543	0.706490066225167	-3.28026490066225				0.272529801324503	-0.288529801324503	-0.917721854304636	-9.83708609271523	-12.1364238410596	-36.7356291390728				0.996026490066225	0.0834966887417219	-0.0260662251655629	-2.8482119205298	-8.34807947019868	6.38251655629139				0.239788079470199	-0.142834437086093	-0.948238410596026	1.14039735099338	2.67761589403974	70.925298013245			
78	1740	-0.280158940397351	0.162754966887417	-0.903523178807947	-19.5666225165563	2.9353642384106	11.6950993377483				0.880953642384106	0.0157880794701987	0.0291390728476822	-1.24609271523179	19.6278145695364	15.6540397350993				-0.314172185430464	-0.161271523178808	-0.82394701986755	7.84741721854305	1.82649006622517	-3.56026490066225				0.272529801324503	-0.256529801324503	-0.869721854304636	-8.99708609271523	-2.3364238410596	-32.5356291390729				0.964026490066225	0.0514966887417219	-0.0260662251655629	0.791788079470198	-5.26807947019868	5.54251655629139				0.223788079470199	-0.142834437086093	-0.916238410596027	10.1003973509934	5.47761589403974	68.405298013245			
79	1760	-0.280158940397351	0.194754966887417	-0.903523178807947	-20.9666225165563	1.8153642384106	11.9750993377483				0.976953642384106	0.0477880794701987	0.0291390728476822	-3.48609271523179	33.6278145695364	13.1340397350993				-0.298172185430464	-0.161271523178808	-0.82394701986755	12.607417218543	0.426490066225167	-1.88026490066225				0.304529801324503	-0.224529801324503	-0.821721854304636	-3.95708609271523	2.4235761589404	-26.0956291390729				0.948026490066225	0.0514966887417219	0.00593377483443711	3.0317880794702	-3.30807947019868	5.54251655629139				0.207788079470199	-0.158834437086093	-0.884238410596026	12.6203973509934	16.1176158940397	63.925298013245			
80	1780	-0.280158940397351	0.194754966887417	-0.919523178807947	-23.2066225165563	2.6553642384106	10.2950993377483				1.00895364238411	0.0957880794701987	0.0131390728476822	8.83390728476821	28.5878145695364	9.49403973509934				-0.282172185430464	-0.193271523178808	-0.85594701986755	17.927417218543	2.38649006622517	0.91973509933775				0.368529801324503	-0.224529801324503	-0.805721854304636	10.6029139072848	8.3035761589404	-19.3756291390728				0.948026490066225	0.0834966887417219	0.0379337748344371	3.5917880794702	-3.58807947019868	7.78251655629139				0.175788079470199	-0.158834437086093	-0.852238410596026	11.2203973509934	26.1976158940397	58.325298013245			
81	1800	-0.264158940397351	0.162754966887417	-0.935523178807947	-12.5666225165563	7.1353642384106	8.33509933774834				0.992953642384106	0.0797880794701987	-0.0508609271523178	11.9139072847682	27.1878145695364	13.4140397350993				-0.330172185430464	-0.225271523178808	-0.85594701986755	17.927417218543	2.10649006622517	0.63973509933775				0.496529801324503	-0.208529801324503	-0.789721854304636	14.5229139072848	13.0635761589404	-13.7756291390728				0.932026490066225	0.115496688741722	0.0539337748344371	8.9117880794702	-1.62807947019868	8.62251655629139				0.191788079470199	-0.190834437086093	-0.788238410596027	12.0603973509934	32.0776158940397	52.165298013245			
82	1820	-0.280158940397351	0.162754966887417	-0.919523178807947	-11.1666225165563	9.3753642384106	5.53509933774834				0.944953642384106	0.0477880794701987	0.0291390728476822	10.7939072847682	39.2278145695364	16.4940397350993				-0.346172185430464	-0.209271523178808	-0.88794701986755	17.927417218543	6.86649006622517	1.19973509933775				0.688529801324503	-0.208529801324503	-0.805721854304636	15.3629139072848	6.0635761589404	-9.29562913907285				0.948026490066225	0.131496688741722	0.0859337748344371	16.4717880794702	-5.26807947019868	8.34251655629139				0.223788079470199	-0.190834437086093	-0.772238410596026	2.26039735099338	39.3576158940397	46.565298013245			
83	1840	-0.264158940397351	0.194754966887417	-0.919523178807947	-20.4066225165563	11.6153642384106	6.37509933774834				0.896953642384106	0.111788079470199	0.157139072847682	0.433907284768212	45.3878145695364	16.4940397350993				-0.298172185430464	-0.177271523178808	-0.87194701986755	21.0074172185431	10.2264900662252	0.35973509933775				0.832529801324503	-0.192529801324503	-0.837721854304636	9.76291390728477	-2.8964238410596	-1.45562913907285				0.980026490066225	0.163496688741722	0.149933774834437	24.5917880794702	-9.74807947019868	6.66251655629139				0.223788079470199	-0.238834437086093	-0.820238410596026	-5.85960264900662	39.0776158940397	44.045298013245			
84	1860	-0.216158940397351	0.210754966887417	-0.935523178807947	-23.4866225165563	9.6553642384106	9.73509933774834				0.928953642384106	0.143788079470199	0.221139072847682	-4.88609271523179	43.1478145695364	16.2140397350993				-0.282172185430464	-0.177271523178808	-0.85594701986755	25.767417218543	10.7864900662252	2.03973509933775				0.688529801324503	-0.160529801324503	-0.885721854304636	10.6029139072848	-2.0564238410596	-1.45562913907285				0.996026490066225	0.163496688741722	0.181933774834437	38.8717880794702	-18.7080794701987	2.74251655629139				0.255788079470199	-0.238834437086093	-0.788238410596027	-9.21960264900662	40.1976158940397	40.685298013245			
85	1880	-0.200158940397351	0.178754966887417	-0.935523178807947	-20.6866225165563	10.4953642384106	11.4150993377483				1.00895364238411	0.0157880794701987	0.189139072847682	-0.406092715231788	42.3078145695364	17.3340397350993				-0.266172185430464	-0.241271523178808	-0.85594701986755	31.6474172185431	9.66649006622517	-0.20026490066225				0.544529801324503	-0.112529801324503	-0.901721854304636	26.2829139072848	-1.4964238410596	-14.3356291390729				0.996026490066225	0.131496688741722	0.181933774834437	48.6717880794702	-25.9880794701987	0.222516556291392				0.303788079470199	-0.270834437086093	-0.836238410596026	-9.49960264900662	38.5176158940397	31.725298013245			
86	1900	-0.184158940397351	0.178754966887417	-0.935523178807947	-16.7666225165563	6.8553642384106	12.8150993377483				0.992953642384106	0.0157880794701987	0.205139072847682	4.07390728476821	40.3478145695364	14.5340397350993				-0.266172185430464	-0.257271523178808	-0.85594701986755	28.0074172185431	6.30649006622517	-2.44026490066225				0.368529801324503	-0.272529801324503	-0.965721854304636	32.7229139072848	-9.0564238410596	-27.4956291390729				0.996026490066225	0.0354966887417219	0.133933774834437	55.3917880794702	-26.2680794701987	-2.29748344370861				0.415788079470199	-0.350834437086093	-0.852238410596026	7.02039735099338	32.9176158940397	24.445298013245			
87	1920	-0.184158940397351	0.210754966887417	-1.01552317880795	-18.7266225165563	11.3353642384106	14.4950993377483				0.944953642384106	0.0317880794701987	0.253139072847682	9.11390728476821	36.7078145695364	12.5740397350993				-0.282172185430464	-0.289271523178808	-0.91994701986755	28.567417218543	5.46649006622517	-4.96026490066225				0.256529801324503	-0.368529801324503	-0.949721854304636	19.8429139072848	-16.8964238410596	-36.7356291390728				0.964026490066225	-0.0125033112582781	0.117933774834437	47.8317880794702	-19.5480794701987	-5.93748344370861				0.527788079470199	-0.462834437086093	-0.868238410596026	16.5403973509934	27.3176158940397	19.685298013245			
88	1940	-0.200158940397351	0.274754966887417	-1.04752317880795	-30.2066225165563	14.4153642384106	15.6150993377483				0.960953642384106	0.0477880794701987	0.301139072847682	10.5139072847682	29.4278145695364	9.77403973509934				-0.282172185430464	-0.289271523178808	-0.95194701986755	27.727417218543	7.98649006622517	-4.40026490066225				0.128529801324503	-0.320529801324503	-0.869721854304636	-9.83708609271523	-22.7764238410596	-39.8156291390729				0.964026490066225	-0.0925033112582781	0.117933774834437	36.6317880794702	-12.8280794701987	-8.45748344370861				0.559788079470199	-0.622834437086093	-0.916238410596027	25.7803973509934	11.9176158940397	22.205298013245			
89	2060	-0.232158940397351	0.370754966887417	-1.07952317880795	-15.3666225165563	45.7753642384106	28.7750993377483				1.29695364238411	-0.128211920529801	0.669139072847682	-24.4860927152318	49.3078145695364	2.77403973509934				-0.266172185430464	-0.481271523178808	-0.95194701986755	9.52741721854305	37.3864900662252	-14.4802649006623				0	0	0	0	0	0				1.15602649006623	0.195496688741722	0.469933774834437	19.2717880794702	20.7719205298013	4.42251655629139				0	0	0	0	0	0			
90	2080	-0.168158940397351	0.322754966887417	-0.967523178807947	-3.88662251655629	52.2153642384106	29.0550993377483				1.20095364238411	-0.160211920529801	0.669139072847682	-30.9260927152318	26.9078145695364	-2.54596026490066				-0.218172185430464	-0.545271523178808	-0.96794701986755	-15.672582781457	39.6264900662252	-13.3602649006623				0.528529801324503	-0.320529801324503	-0.997721854304636	9.48291390728477	50.3035761589404	14.5043708609272				1.14002649006623	0.0354966887417219	0.421933774834437	19.5517880794702	31.4119205298013	5.54251655629139				0.559788079470199	-0.782834437086093	-0.740238410596026	33.0603973509934	12.4776158940397	24.445298013245			
91	2100	-0.072158940397351	0.370754966887417	-1.01552317880795	-2.76662251655629	61.7353642384106	27.6550993377483				1.24895364238411	0.0317880794701987	0.541139072847682	-21.9660927152318	26.3478145695364	-3.66596026490066				-0.234172185430464	-0.385271523178808	-0.98394701986755	-38.072582781457	48.3064900662252	-9.16026490066225				0.544529801324503	-0.320529801324503	-0.965721854304636	2.48291390728477	69.6235761589404	15.0643708609272				1.22002649006623	-0.0765033112582781	0.485933774834437	4.4317880794702	42.6119205298013	0.222516556291392				0.607788079470199	-0.974834437086093	-0.660238410596027	6.46039735099338	31.7976158940397	18.285298013245			
92	2120	-0.024158940397351	0.386754966887417	-1.09552317880795	-1.08662251655629	70.6953642384106	27.0950993377483				1.34495364238411	-0.000211920529801304	0.621139072847682	6.03390728476821	14.0278145695364	-6.46596026490066				-0.218172185430464	-0.369271523178808	-1.04794701986755	-43.112582781457	61.7464900662252	-7.76026490066225				0.560529801324503	-0.256529801324503	-0.949721854304636	-13.7570860927152	81.1035761589404	11.9843708609272				1.26802649006623	0.0194966887417219	0.469933774834437	-26.0882119205298	39.5319205298013	-2.57748344370861				0.527788079470199	-0.894834437086093	-0.596238410596026	-29.9396026490066	55.0376158940397	17.445298013245			
93	2140	0.007841059602649	0.370754966887417	-1.04752317880795	5.07337748344371	76.0153642384106	22.0550993377483				1.32895364238411	-0.176211920529801	0.573139072847682	14.9939072847682	-5.85218543046358	-9.54596026490066				-0.122172185430464	-0.273271523178808	-1.06394701986755	-36.392582781457	77.1464900662252	-9.72026490066225				0.624529801324503	-0.224529801324503	-0.949721854304636	-11.7970860927152	96.5035761589404	10.0243708609272				1.31602649006623	0.0354966887417219	0.325933774834437	-35.0482119205298	38.1319205298013	-7.61748344370861				0.543788079470199	-0.702834437086093	-0.660238410596027	-30.2196026490066	75.7576158940397	-2.71470198675497			
94	2160	-0.040158940397351	0.354754966887417	-1.09552317880795	7.59337748344371	86.6553642384106	19.2550993377483				1.32895364238411	-0.128211920529801	0.573139072847682	-8.52609271523179	-17.3321854304636	-7.86596026490066				-0.0261721854304636	-0.209271523178808	-1.07994701986755	-19.032582781457	84.9864900662252	-12.5202649006623				0.736529801324503	-0.272529801324503	-0.965721854304636	-11.7970860927152	104.90357615894	13.9443708609272				1.34802649006623	0.0674966887417219	0.309933774834437	-42.8882119205298	31.6919205298013	-8.45748344370861				0.671788079470199	-0.398834437086093	-0.884238410596026	18.2203973509934	91.4376158940397	-36.314701986755			
95	2180	0.087841059602649	0.306754966887417	-1.07952317880795	15.1533774834437	97.0153642384106	16.7350993377483				1.31295364238411	0.0957880794701987	0.461139072847682	-32.3260927152318	-31.0521854304636	-9.26596026490066				0.0378278145695364	-0.305271523178808	-1.03194701986755	-13.992582781457	90.5864900662252	-20.0802649006623				0.736529801324503	-0.336529801324503	-1.01372185430464	-11.7970860927152	111.62357615894	17.3043708609272				1.38002649006623	0.0994966887417219	0.213933774834437	-48.4882119205298	23.8519205298013	-5.65748344370861				0.719788079470199	-0.398834437086093	-0.900238410596026	92.9803973509934	118.31761589404	-46.674701986755			
96	2200	0.151841059602649	0.338754966887417	-1.12752317880795	19.3533774834437	107.935364238411	19.5350993377483				1.37695364238411	0.111788079470199	0.349139072847682	-21.6860927152318	-27.6921854304636	-10.6659602649007				-0.0101721854304636	-0.337271523178808	-1.04794701986755	-10.632582781457	100.106490066225	-25.4002649006623				0.720529801324503	-0.400529801324503	-1.02972185430464	-3.11708609271523	115.82357615894	20.3843708609272				1.38002649006623	0.163496688741722	0.229933774834437	-53.5282119205298	26.9319205298013	-8.73748344370861				0.719788079470199	-0.638834437086093	-0.772238410596026	121.820397350993	114.39761589404	-65.714701986755			
97	2220	0.151841059602649	0.338754966887417	-1.11152317880795	25.5133774834437	111.015364238411	22.8950993377483				1.31295364238411	0.0157880794701987	0.285139072847682	-3.48609271523179	-37.4921854304636	-10.1059602649007				0.0698278145695364	-0.321271523178808	-1.04794701986755	-19.592582781457	111.586490066225	-21.2002649006623				0.720529801324503	-0.416529801324503	-0.997721854304636	3.04291390728477	119.46357615894	28.7843708609272				1.30002649006623	0.131496688741722	0.149933774834437	-50.4482119205298	18.8119205298013	-9.01748344370861				0.751788079470199	-0.718834437086093	-0.836238410596026	91.0203973509934	120.27761589404	-72.434701986755			
98	2240	0.247841059602649	0.226754966887417	-1.06352317880795	26.6333774834437	120.815364238411	25.9750993377483				1.36095364238411	0.0797880794701987	0.269139072847682	-5.72609271523179	-13.4121854304636	-9.54596026490066				0.149827814569536	-0.225271523178808	-1.03194701986755	-24.352582781457	122.226490066225	-18.4002649006623				0.864529801324503	-0.512529801324503	-0.965721854304636	3.60291390728477	127.58357615894	36.0643708609272				1.30002649006623	0.115496688741722	0.165933774834437	-53.2482119205298	21.8919205298013	-9.01748344370861				0.751788079470199	-0.718834437086093	-0.916238410596027	30.2603973509934	145.75761589404	-70.474701986755			
99	2260	0.215841059602649	0.226754966887417	-1.03152317880795	19.6333774834437	130.055364238411	30.1750993377483				1.36095364238411	0.159788079470199	0.349139072847682	-4.60609271523179	-27.6921854304636	-1.98596026490066				0.133827814569536	-0.193271523178808	-0.98394701986755	-10.912582781457	133.426490066225	-17.2802649006623				0.848529801324503	-0.512529801324503	-0.869721854304636	-30.2770860927152	122.54357615894	27.9443708609272				1.33202649006623	0.0834966887417219	0.149933774834437	-49.8882119205298	17.9719205298013	-12.6574834437086				0.783788079470199	-0.590834437086093	-0.900238410596026	-38.8996026490066	152.19761589404	-62.914701986755			
100	2280	0.183841059602649	0.258754966887417	-0.967523178807947	21.3133774834437	139.575364238411	35.2150993377483				1.15295364238411	0.143788079470199	0.237139072847682	-5.44609271523179	-41.6921854304636	-5.06596026490066				0.0858278145695364	-0.225271523178808	-0.93594701986755	-7.27258278145696	142.666490066225	-13.0802649006623				0.608529801324503	-0.304529801324503	-0.757721854304636	-12.0770860927152	144.94357615894	25.7043708609272				1.20402649006623	0.0994966887417219	0.0859337748344371	-63.6082119205298	8.45192052980133	-12.9374834437086				0.831788079470199	-0.382834437086093	-0.932238410596026	-86.7796026490066	158.63761589404	-56.754701986755			
101	2300	0.279841059602649	0.242754966887417	-0.935523178807947	26.9133774834437	146.575364238411	38.0150993377484				1.12095364238411	0.0317880794701987	0.109139072847682	-23.3660927152318	-7.53218543046358	-13.1859602649007				0.197827814569536	-0.273271523178808	-0.90394701986755	-25.192582781457	147.146490066225	-10.5602649006623				0.592529801324503	-0.288529801324503	-0.613721854304636	8.64291390728477	157.54357615894	20.1043708609272				1.10802649006623	0.115496688741722	0.0219337748344371	-61.3682119205298	10.4119205298013	-12.9374834437086				0.879788079470199	-0.254834437086093	-0.916238410596027	-86.2196026490066	150.51761589404	-59.834701986755			
102	2320	0.231841059602649	0.242754966887417	-0.871523178807947	33.9133774834437	143.775364238411	39.1350993377484				1.15295364238411	0.0637880794701987	0.0931390728476822	-17.7660927152318	0.307814569536424	-15.9859602649007				0.245827814569536	-0.177271523178808	-0.87194701986755	-34.712582781457	148.546490066225	-10.5602649006623				0.656529801324503	-0.272529801324503	-0.533721854304636	19.0029139072848	166.78357615894	21.2243708609272				1.04402649006623	0.0674966887417219	0.0379337748344371	-52.1282119205298	18.8119205298013	-10.1374834437086				0.879788079470199	-0.142834437086093	-0.916238410596027	-73.6196026490066	132.87761589404	-63.754701986755			
103	2340	0.263841059602649	0.0827549668874172	-0.839523178807947	28.3133774834437	145.175364238411	43.3350993377484				1.20095364238411	-0.0162119205298013	0.0291390728476822	-15.2460927152318	-8.09218543046358	-7.30596026490066				0.245827814569536	-0.0492715231788079	-0.82394701986755	-29.112582781457	148.546490066225	-9.44026490066225				0.720529801324503	-0.256529801324503	-0.485721854304636	29.6429139072848	169.86357615894	25.9843708609272				1.02802649006623	0.0674966887417219	0.0379337748344371	-54.0882119205298	20.7719205298013	-7.33748344370861				0.815788079470199	-0.0948344370860927	-0.884238410596026	-32.4596026490066	110.47761589404	-67.674701986755			
104	2360	0.343841059602649	0.114754966887417	-0.775523178807947	8.43337748344371	149.095364238411	43.0550993377484				0.992953642384106	0.0957880794701987	0.0291390728476822	-10.2060927152318	-20.6921854304636	-10.1059602649007				0.229827814569536	-0.0972715231788079	-0.77594701986755	-20.712582781457	144.346490066225	-3.56026490066225				0.768529801324503	-0.240529801324503	-0.437721854304636	35.8029139072848	157.54357615894	23.4643708609272				0.916026490066225	0.0354966887417219	0.0219337748344371	-56.0482119205298	11.5319205298013	-1.17748344370861				0.751788079470199	-0.110834437086093	-0.820238410596026	-25.4596026490066	81.0776158940397	-69.074701986755			
105	2380	0.375841059602649	0.162754966887417	-0.695523178807947	2.83337748344371	152.455364238411	45.0150993377484				0.800953642384106	0.143788079470199	-0.00286092715231785	-10.4860927152318	-20.9721854304636	-13.1859602649007				0.229827814569536	-0.241271523178808	-0.71194701986755	-24.632582781457	145.466490066225	6.23973509933775				0.864529801324503	-0.192529801324503	-0.437721854304636	40.5629139072848	124.22357615894	17.5843708609272				0.884026490066225	0.147496688741722	-0.0260662251655629	-58.5682119205298	7.61192052980133	4.70251655629139				0.719788079470199	-0.126834437086093	-0.788238410596027	-32.7396026490066	65.6776158940397	-57.874701986755			
106	2400	0.375841059602649	0.194754966887417	-0.679523178807947	9.55337748344371	161.695364238411	41.0950993377484				0.768953642384106	0.0797880794701987	-0.114860927152318	-5.44609271523179	-9.21218543046358	-13.4659602649007				0.229827814569536	-0.161271523178808	-0.74394701986755	-36.112582781457	147.706490066225	8.47973509933775				1.0405298013245	-0.272529801324503	-0.437721854304636	75.8429139072848	94.5435761589404	21.2243708609272				0.852026490066225	0.195496688741722	0.0379337748344371	-52.9682119205298	1.17192052980133	6.94251655629139				0.655788079470199	-0.174834437086093	-0.692238410596026	-35.5396026490066	48.0376158940397	-39.394701986755			
107	2420	0.423841059602649	0.178754966887417	-0.631523178807947	12.0733774834437	156.095364238411	39.6950993377484				0.864953642384106	-0.0482119205298013	-0.0188609271523178	-13.2860927152318	9.82781456953643	-6.74596026490066				0.261827814569536	0.0627284768211921	-0.63194701986755	-34.152582781457	153.866490066225	-3.00026490066225				1.2485298013245	-0.448529801324503	-0.453721854304636	58.2029139072848	47.5035761589404	10.3043708609272				0.836026490066225	0.163496688741722	0.0859337748344371	-32.5282119205298	-7.50807947019868	5.54251655629139				0.511788079470199	-0.174834437086093	-0.612238410596026	-45.3396026490066	35.1576158940397	-18.114701986755			
108	2440	0.503841059602649	0.0827549668874172	-0.583523178807947	15.4333774834437	158.895364238411	37.1750993377484				0.784953642384106	0.207788079470199	0.189139072847682	-34.5660927152318	10.9478145695364	-5.62596026490066				0.357827814569536	0.206728476821192	-0.74394701986755	-15.952582781457	149.946490066225	-13.3602649006623				1.3605298013245	-0.528529801324503	-0.325721854304636	7.80291390728477	-8.4964238410596	0.504370860927152				0.836026490066225	0.195496688741722	0.149933774834437	-3.9682119205298	-10.0280794701987	2.46251655629139				0.431788079470199	-0.142834437086093	-0.548238410596027	-53.7396026490066	23.6776158940397	0.365298013245032			
109	2460	0.647841059602649	-0.0452450331125828	-0.519523178807947	9.27337748344371	161.135364238411	31.8550993377483				0.880953642384106	0.287788079470199	0.0291390728476822	-22.5260927152318	-1.37218543046358	2.21403973509934				0.613827814569536	0.0947284768211921	-0.71194701986755	4.20741721854305	144.906490066225	-18.1202649006623				1.2325298013245	-0.400529801324503	-0.261721854304636	-37.8370860927152	-47.6964238410596	-3.69562913907285				0.868026490066225	0.211496688741722	0.245933774834437	12.5517880794702	-16.4680794701987	-5.09748344370861				0.447788079470199	-0.174834437086093	-0.516238410596026	-55.9796026490066	14.1576158940397	17.165298013245			
110	2480	0.727841059602649	0.00275496688741723	-0.503523178807947	-8.08662251655629	160.295364238411	27.3750993377483				0.976953642384106	0.111788079470199	-0.0828609271523179	3.51390728476821	-4.17218543046358	1.09403973509934				0.549827814569536	0.0467284768211921	-0.63194701986755	-8.11258278145695	145.186490066225	-24.0002649006623				1.0725298013245	-0.256529801324503	-0.101721854304636	-26.3570860927152	-65.0564238410596	4.42437086092715				0.868026490066225	0.0834966887417219	0.261933774834437	29.0717880794702	-26.5480794701987	-10.6974834437086				0.511788079470199	-0.206834437086093	-0.500238410596026	-43.3796026490066	-1.24238410596026	26.965298013245			
111	2500	0.711841059602649	0.0987549668874172	-0.439523178807947	-17.3266225165563	161.975364238411	30.4550993377483				0.816953642384106	0.159788079470199	0.141139072847682	19.7539072847682	-22.0921854304636	2.49403973509934				0.421827814569536	-0.0172715231788079	-0.63194701986755	-12.872582781457	139.866490066225	-24.8402649006623				0.816529801324503	-0.256529801324503	-0.00572185430463574	5.56291390728477	-65.8964238410596	15.9043708609272				0.900026490066225	0.0354966887417219	0.261933774834437	47.2717880794702	-37.1880794701987	-14.8974834437086				0.671788079470199	-0.238834437086093	-0.452238410596026	-40.5796026490066	6.31761589403974	32.285298013245			
112	2520	0.679841059602649	0.146754966887417	-0.375523178807947	-4.72662251655629	162.535364238411	34.3750993377484				0.832953642384106	0.0477880794701987	0.269139072847682	28.7139072847682	-5.29218543046358	3.33403973509934				0.453827814569536	-0.225271523178808	-0.63194701986755	-13.152582781457	142.386490066225	-14.4802649006623				0.624529801324503	-0.368529801324503	-0.117721854304636	8.36291390728477	-61.4164238410596	14.5043708609272				0.820026490066225	-0.0605033112582781	0.325933774834437	42.5117880794702	-43.3480794701987	-19.9374834437086				0.831788079470199	-0.206834437086093	-0.500238410596026	-47.0196026490066	-0.122384105960265	27.245298013245			
113	2540	0.759841059602649	0.178754966887417	-0.327523178807947	15.7133774834437	178.215364238411	36.6150993377484				0.992953642384106	-0.0322119205298013	0.653139072847682	49.9939072847682	13.1878145695364	-13.1859602649007				0.645827814569536	-0.289271523178808	-0.48794701986755	-12.592582781457	151.066490066225	-6.64026490066225				0.592529801324503	-0.288529801324503	-0.165721854304636	4.72291390728477	-64.4964238410596	10.8643708609272				0.660026490066225	-0.0925033112582781	0.389933774834437	44.4717880794702	-44.7480794701987	-16.0174834437086				0.911788079470199	-0.238834437086093	-0.516238410596026	-6.69960264900662	-24.7623841059603	7.64529801324503			
114	2560	0.855841059602649	0.162754966887417	-0.327523178807947	28.3133774834437	182.975364238411	29.0550993377483				0.752953642384106	-0.0802119205298013	0.157139072847682	97.8739072847682	-38.0521854304636	-18.5059602649007				0.837827814569536	-0.161271523178808	-0.51994701986755	-24.072582781457	153.866490066225	-5.80026490066225				0.480529801324503	-0.128529801324503	-0.245721854304636	-11.7970860927152	-72.0564238410596	4.98437086092715				0.660026490066225	-0.0605033112582781	0.261933774834437	33.5517880794702	-34.3880794701987	-12.9374834437086				0.751788079470199	-0.238834437086093	-0.388238410596026	16.5403973509934	-38.2023841059603	-11.394701986755			
115	2580	0.903841059602649	0.194754966887417	-0.247523178807947	38.1133774834437	182.695364238411	18.4150993377483				0.560953642384106	-0.144211920529801	-0.178860927152318	45.2339072847682	-57.6521854304636	-19.9059602649007				0.789827814569536	-0.0812715231788079	-0.47194701986755	-17.912582781457	148.826490066225	-10.5602649006623				0.448529801324503	-0.0805298013245033	-0.213721854304636	-7.31708609271523	-74.8564238410596	-6.77562913907285				0.724026490066225	0.00349668874172187	0.181933774834437	30.7517880794702	-28.2280794701987	-7.33748344370861				0.703788079470199	-0.254834437086093	-0.356238410596026	5.34039735099338	-37.9223841059603	-20.914701986755			
116	2600	0.903841059602649	0.226754966887417	-0.183523178807947	50.1533774834437	169.815364238411	9.45509933774835				0.512953642384106	-0.0322119205298013	0.0131390728476822	-2.64609271523179	-36.9321854304636	-14.5859602649007				0.773827814569536	-0.161271523178808	-0.39194701986755	-34.992582781457	150.226490066225	-11.9602649006623				0.656529801324503	-0.0165298013245033	-0.149721854304636	-11.5170860927152	-80.4564238410596	-7.05562913907285				0.740026490066225	0.115496688741722	0.213933774834437	23.7517880794702	-40.8280794701987	-0.897483443708608				0.751788079470199	-0.334834437086093	-0.292238410596026	18.5003973509934	-60.0423841059603	-15.594701986755			
117	2620	0.967841059602649	0.0987549668874172	-0.247523178807947	70.0333774834437	163.095364238411	11.4150993377483				0.720953642384106	-0.0322119205298013	0.301139072847682	11.6339072847682	-14.2521854304636	-13.1859602649007				0.741827814569536	-0.145271523178808	-0.34394701986755	-44.792582781457	137.346490066225	-4.68026490066225				0.608529801324503	-0.176529801324503	-0.309721854304636	20.9629139072848	-80.7364238410596	16.1843708609272				0.692026490066225	0.131496688741722	0.181933774834437	21.5117880794702	-58.7480794701987	4.70251655629139				0.767788079470199	-0.414834437086093	-0.212238410596026	17.9403973509934	-84.4023841059603	-5.51470198675497			
118	2640	0.935841059602649	-0.125245033112583	-0.183523178807947	90.1933774834437	154.135364238411	14.2150993377483				0.752953642384106	-0.0802119205298013	0.413139072847682	20.3139072847682	-17.6121854304636	-14.5859602649007				0.693827814569536	-0.129271523178808	-0.27994701986755	-43.112582781457	116.626490066225	-0.48026490066225				0.368529801324503	-0.304529801324503	-0.405721854304636	6.96291390728477	-89.9764238410596	22.3443708609272				0.532026490066225	0.0194966887417219	0.213933774834437	17.5917880794702	-53.1480794701987	8.34251655629139				0.751788079470199	-0.382834437086093	-0.228238410596026	-10.3396026490066	-82.4423841059603	-3.55470198675497			
119	2660	0.871841059602649	-0.189245033112583	-0.247523178807947	56.8733774834437	149.935364238411	4.69509933774834				0.640953642384106	-0.0962119205298013	0.349139072847682	0.713907284768212	-22.6521854304636	-11.5059602649007				0.645827814569536	-0.0492715231788079	-0.0879470198675496	-21.832582781457	135.946490066225	-3.28026490066225				0.288529801324503	-0.240529801324503	-0.501721854304636	-22.7170860927152	-102.01642384106	9.18437086092715				0.532026490066225	0.00349668874172187	0.197933774834437	4.1517880794702	-36.6280794701987	12.2625165562914				0.703788079470199	-0.222834437086093	-0.324238410596026	-38.6196026490066	-78.8023841059603	0.365298013245032			
120	2680	0.791841059602649	-0.157245033112583	-0.071523178807947	28.0333774834437	139.855364238411	-0.904900662251656				0.624953642384106	0.127788079470199	0.221139072847682	-23.0860927152318	-36.9321854304636	-9.54596026490066				0.757827814569536	-0.00127152317880793	-0.0559470198675496	-35.272582781457	126.706490066225	-9.16026490066225				0.400529801324503	-0.160529801324503	-0.485721854304636	-42.0370860927152	-100.05642384106	-1.45562913907285				0.612026490066225	0.0674966887417219	0.165933774834437	-13.7682119205298	-27.3880794701987	11.1425165562914				0.703788079470199	-0.190834437086093	-0.404238410596026	-13.4196026490066	-88.3223841059603	2.04529801324503			
121	2700	0.855841059602649	-0.237245033112583	-0.023523178807947	-6.40662251655629	129.775364238411	4.97509933774835				0.624953642384106	0.111788079470199	0.173139072847682	-10.7660927152318	-30.4921854304636	0.53403973509934				0.869827814569536	0.0307284768211921	-0.10394701986755	-40.312582781457	110.186490066225	-10.0002649006623				0.432529801324503	-0.256529801324503	-0.357721854304636	-31.1170860927152	-88.5764238410596	-5.37562913907285				0.580026490066225	0.131496688741722	0.0859337748344371	-25.5282119205298	-27.3880794701987	11.1425165562914				0.719788079470199	-0.158834437086093	-0.356238410596026	9.54039735099338	-115.20238410596	-1.87470198675497			
122	2720	0.903841059602649	-0.285245033112583	0.00847682119205304	-38.0466225165563	111.855364238411	9.45509933774835				0.560953642384106	0.0157880794701987	0.173139072847682	-0.966092715231788	-28.2521854304636	-4.50596026490066				0.837827814569536	-0.0652715231788079	-0.0399470198675496	-25.752582781457	92.2664900662252	-4.96026490066225				0.240529801324503	-0.240529801324503	-0.245721854304636	-17.9570860927152	-76.8164238410596	-6.21562913907285				0.516026490066225	0.0994966887417219	-0.0100662251655629	-26.0882119205298	-19.8280794701987	11.9825165562914				0.495788079470199	-0.0308344370860927	-0.388238410596026	-8.37960264900662	-128.36238410596	1.76529801324503			
123	2740	0.743841059602649	0.0187549668874172	-0.00752317880794696	-58.4866225165563	104.575364238411	10.5750993377483				0.592953642384106	-0.0162119205298013	0.237139072847682	-1.24609271523179	-4.17218543046358	-0.585960264900661				0.805827814569536	-0.193271523178808	0.00805298013245037	-3.07258278145695	79.6664900662252	1.75973509933775				0.128529801324503	-0.0805298013245033	-0.261721854304636	-12.9170860927152	-56.0964238410596	0.784370860927152				0.596026490066225	0.0354966887417219	0.0379337748344371	-30.8482119205298	-12.2680794701987	10.8625165562914				0.127788079470199	0.0811655629139073	-0.340238410596026	-5.57960264900662	-133.40238410596	13.245298013245			
124	2760	0.791841059602649	0.162754966887417	0.024476821192053	-33.5666225165563	89.1753642384106	2.45509933774835				0.528953642384106	0.0957880794701987	0.189139072847682	-20.2860927152318	-6.69218543046358	4.17403973509934				0.869827814569536	-0.177271523178808	-0.0399470198675496	-2.23258278145695	77.1464900662252	4.55973509933775				0.560529801324503	-0.0165298013245033	-0.277721854304636	15.9229139072848	-19.1364238410596	17.5843708609272				0.724026490066225	0.163496688741722	0.133933774834437	-23.0082119205298	-19.2680794701987	4.70251655629139				-0.000211920529801336	-0.0948344370860927	-0.292238410596026	17.9403973509934	-119.96238410596	5.96529801324503			
125	2780	0.903841059602649	0.0667549668874172	0.136476821192053	-4.44662251655629	58.9353642384106	4.69509933774834				0.624953642384106	0.0797880794701987	0.189139072847682	-14.6860927152318	15.9878145695364	6.69403973509934				0.949827814569536	-0.145271523178808	-0.0399470198675496	-19.872582781457	64.8264900662252	2.31973509933775				0.768529801324503	-0.368529801324503	-0.357721854304636	10.6029139072848	-12.9764238410596	25.7043708609272				0.756026490066225	0.179496688741722	-0.0260662251655629	-10.6882119205298	-24.0280794701987	7.78251655629139				0.383788079470199	-0.110834437086093	-0.324238410596026	-62.4196026490066	-55.2823841059603	-3.27470198675497			
126	2800	1.04784105960265	-0.0772450331125828	0.184476821192053	28.8733774834437	36.5353642384106	6.93509933774835				0.864953642384106	0.0477880794701987	0.285139072847682	-18.8860927152318	37.2678145695364	12.5740397350993				1.02982781456954	-0.0652715231788079	0.0400529801324504	-23.232582781457	53.9064900662252	1.75973509933775				0.768529801324503	-0.288529801324503	-0.485721854304636	-10.3970860927152	-18.2964238410596	16.7443708609272				0.740026490066225	0.115496688741722	0.101933774834437	5.5517880794702	-3.02807947019868	9.74251655629139				0.607788079470199	0.0331655629139073	-0.564238410596026	-107.779602649007	-5.16238410596027	-7.75470198675497			
127	2820	0.983841059602649	-0.0612450331125828	0.280476821192053	27.1933774834437	25.3353642384106	4.69509933774834				0.912953642384106	0.111788079470199	0.429139072847682	0.993907284768212	40.3478145695364	17.6140397350993				1.01382781456954	0.0307284768211921	0.0880529801324504	-8.39258278145695	47.7464900662252	4.27973509933775				0.960529801324503	-0.0805298013245033	-0.613721854304636	-17.9570860927152	-30.3364238410596	12.8243708609272				0.996026490066225	0.147496688741722	0.261933774834437	15.0717880794702	4.53192052980133	7.78251655629139				0.591788079470199	0.0171655629139073	-0.516238410596026	7.30039735099338	13.8776158940397	-20.634701986755			
128	2840	0.951841059602649	-0.0452450331125828	0.264476821192053	3.95337748344371	23.6553642384106	2.73509933774834				0.960953642384106	0.0797880794701987	0.269139072847682	-1.24609271523179	28.8678145695364	15.6540397350993				0.965827814569536	0.0147284768211921	0.0880529801324504	8.96741721854305	52.2264900662252	4.83973509933775				0.768529801324503	-0.288529801324503	-0.693721854304636	-7.31708609271523	-46.2964238410596	17.5843708609272				1.06002649006623	0.0994966887417219	0.325933774834437	22.6317880794702	-4.14807947019868	9.18251655629139				0.751788079470199	-0.174834437086093	-0.452238410596026	47.9003973509934	19.7576158940397	-37.154701986755			
129	2860	0.999841059602649	-0.0132450331125828	0.344476821192053	3.39337748344371	23.0953642384106	3.85509933774834				1.02495364238411	0.111788079470199	0.413139072847682	-10.2060927152318	27.4678145695364	14.5340397350993				1.01382781456954	-0.00127152317880793	0.12005298013245	26.3274172185431	51.6664900662252	5.67973509933775				0.464529801324503	-0.448529801324503	-0.741721854304636	32.1629139072848	-28.9364238410596	28.7843708609272				0.948026490066225	0.0354966887417219	0.245933774834437	2.4717880794702	-17.0280794701987	3.86251655629139				0.767788079470199	-0.446834437086093	-0.708238410596026	40.3403973509934	10.5176158940397	-51.994701986755			
130	2880	1.04784105960265	-0.0292450331125828	0.392476821192053	16.2733774834437	23.0953642384106	3.01509933774834				0.928953642384106	-0.0162119205298013	0.557139072847682	-13.5660927152318	28.8678145695364	12.0140397350993				1.06182781456954	-0.0972715231788079	0.12005298013245	34.7274172185431	39.3464900662252	5.67973509933775				0.576529801324503	-0.352529801324503	-0.725721854304636	69.1229139072848	-8.7764238410596	33.8243708609272				0.820026490066225	0.0514966887417219	0.181933774834437	-5.9282119205298	-13.9480794701987	1.06251655629139				0.735788079470199	-0.462834437086093	-0.724238410596026	-3.05960264900662	-19.1623841059603	-44.154701986755			
131	2900	0.935841059602649	0.0187549668874172	0.360476821192053	9.55337748344371	18.0553642384106	1.61509933774834				0.928953642384106	0.0797880794701987	0.605139072847682	-5.72609271523179	21.3078145695364	8.09403973509934				1.01382781456954	-0.193271523178808	0.0560529801324504	34.4474172185431	31.7864900662252	4.27973509933775				0.736529801324503	-0.384529801324503	-0.629721854304636	3.88291390728477	-13.2564238410596	30.7443708609272				0.868026490066225	0.163496688741722	0.165933774834437	-7.0482119205298	3.97192052980133	1.34251655629139				0.655788079470199	-0.270834437086093	-0.804238410596027	-26.2996026490066	-15.8023841059603	-22.594701986755			
132	2920	0.903841059602649	-0.0132450331125828	0.392476821192053	24.9533774834437	16.9353642384106	2.17509933774834				0.896953642384106	0.0317880794701987	0.429139072847682	6.59390728476821	5.62781456953642	13.1340397350993				1.01382781456954	-0.225271523178808	0.0560529801324504	13.447417218543	26.1864900662252	3.15973509933775				0.704529801324503	-0.256529801324503	-0.597721854304636	-71.9970860927152	-10.7364238410596	8.62437086092715				0.948026490066225	0.179496688741722	0.133933774834437	-7.0482119205298	19.6519205298013	1.62251655629139				0.655788079470199	-0.254834437086093	-0.772238410596026	-15.0996026490066	-18.6023841059603	9.32529801324503			
133	2940	0.967841059602649	-0.0612450331125828	0.456476821192053	17.6733774834437	12.4553642384106	1.33509933774834				0.912953642384106	0.191788079470199	0.397139072847682	-9.08609271523179	12.9078145695364	11.4540397350993				1.06182781456954	-0.129271523178808	0.10405298013245	-0.272582781456954	15.2664900662252	2.31973509933775				0.656529801324503	-0.112529801324503	-0.501721854304636	-54.3570860927152	17.8235761589404	-10.6956291390728				0.948026490066225	0.147496688741722	0.197933774834437	-5.3682119205298	22.4519205298013	1.90251655629139				0.623788079470199	-0.238834437086093	-0.628238410596026	-6.41960264900662	-24.7623841059603	22.485298013245			
134	2960	0.919841059602649	-0.0292450331125828	0.456476821192053	6.47337748344371	5.4553642384106	-0.624900662251656				0.816953642384106	0.0957880794701987	0.445139072847682	7.99390728476821	9.26781456953642	12.5740397350993				0.997827814569536	-0.0172715231788079	0.21605298013245	3.64741721854305	0.986490066225167	3.71973509933775				0	0	0	0	0	0				0	0	0	0	0	0				0	0	0	0	0	0			
135	2980	0.983841059602649	0.0347549668874172	0.440476821192053	4.79337748344371	3.4953642384106	-1.74490066225166				0	0	0	0	0	0				0	0	0	0	0	0				0	0	0	0	0	0				0	0	0	0	0	0				0	0	0	0	0	0			
136	3060	0.951841059602649	-0.125245033112583	0.328476821192053	21.5933774834437	-5.7446357615894	-2.30490066225166				0.960953642384106	0.0157880794701987	0.253139072847682	16.6739072847682	7.30781456953642	6.97403973509934				0.981827814569536	-0.0972715231788079	0.18405298013245	13.727417218543	-9.09350993377483	6.79973509933775				0	0	0	0	0	0				0	0	0	0	0	0				0	0	0	0	0	0			
137	3080	0.919841059602649	-0.0772450331125828	0.264476821192053	6.47337748344371	-5.4646357615894	-6.22490066225166				0.944953642384106	-0.0482119205298013	0.221139072847682	8.55390728476821	12.0678145695364	6.69403973509934				0.997827814569536	-0.145271523178808	0.12005298013245	7.56741721854305	-2.09350993377483	5.95973509933775				0	0	0	0	0	0				0	0	0	0	0	0				0	0	0	0	0	0			
138	3100	0.951841059602649	-0.0612450331125828	0.200476821192053	1.99337748344371	-3.2246357615894	-5.94490066225166				0.944953642384106	-0.000211920529801304	0.333139072847682	-2.36609271523179	15.7078145695364	6.13403973509934				0.949827814569536	-0.129271523178808	0.13605298013245	8.96741721854305	0.986490066225167	-0.20026490066225				0.704529801324503	-0.192529801324503	-0.533721854304636	-19.3570860927152	-0.6564238410596	8.34437086092715				0.980026490066225	0.0514966887417219	0.277933774834437	-1.7282119205298	4.53192052980133	2.46251655629139				0.655788079470199	-0.366834437086093	-0.596238410596026	16.2603973509934	-16.0823841059603	2.32529801324503			
139	3120	0.983841059602649	-0.0132450331125828	0.136476821192053	2.83337748344371	6.2953642384106	-4.54490066225166				0.992953642384106	0.0317880794701987	0.381139072847682	-1.52609271523179	17.1078145695364	7.53403973509934				0.949827814569536	-0.0972715231788079	0.0880529801324504	11.207417218543	2.94649006622517	-1.32026490066225				0.688529801324503	-0.304529801324503	-0.613721854304636	-10.1170860927152	-0.9364238410596	13.1043708609272				0.980026490066225	0.0674966887417219	0.197933774834437	-1.1682119205298	-1.62807947019868	2.18251655629139				0.607788079470199	-0.254834437086093	-0.676238410596026	7.30039735099338	-15.8023841059603	0.645298013245032			
140	3140	0.999841059602649	-0.0292450331125828	0.264476821192053	15.7133774834437	9.9353642384106	-3.14490066225166				0.976953642384106	-0.0162119205298013	0.317139072847682	-1.80609271523179	10.1078145695364	5.29403973509934				0.965827814569536	-0.0812715231788079	0.0560529801324504	11.207417218543	2.10649006622517	-0.48026490066225				0.720529801324503	-0.368529801324503	-0.597721854304636	-5.07708609271523	2.9835761589404	8.34437086092715				0.900026490066225	0.0194966887417219	0.229933774834437	4.9917880794702	5.37192052980133	3.86251655629139				0.559788079470199	-0.222834437086093	-0.708238410596026	10.1003973509934	-4.04238410596027	-1.03470198675497			
141	3160	0.967841059602649	-0.0612450331125828	0.168476821192053	-1.92662251655629	3.2153642384106	-4.82490066225166				0.976953642384106	-0.0482119205298013	0.253139072847682	-2.64609271523179	6.46781456953642	4.73403973509934				0.981827814569536	-0.0812715231788079	0.00805298013245037	6.72741721854305	3.50649006622517	1.19973509933775				0.688529801324503	-0.320529801324503	-0.581721854304636	-14.5970860927152	-5.6964238410596	4.42437086092715				0.964026490066225	0.0354966887417219	0.213933774834437	3.0317880794702	10.4119205298013	3.86251655629139				0.575788079470199	-0.254834437086093	-0.740238410596026	17.6603973509934	0.717615894039735	-3.27470198675497			
142	3180	0.935841059602649	-0.0132450331125828	0.184476821192053	-7.24662251655629	3.2153642384106	-4.26490066225166				0.944953642384106	0.0477880794701987	0.317139072847682	-9.08609271523179	10.9478145695364	4.45403973509934				0.965827814569536	-0.0972715231788079	-0.0719470198675496	-2.23258278145695	4.34649006622517	0.91973509933775				0.656529801324503	-0.256529801324503	-0.533721854304636	-10.9570860927152	-7.6564238410596	3.02437086092715				1.01202649006623	0.0514966887417219	0.197933774834437	-0.328211920529802	7.89192052980133	2.74251655629139				0.575788079470199	-0.318834437086093	-0.724238410596026	19.3403973509934	-2.36238410596027	-3.27470198675497			
143	3200	0.983841059602649	-0.0292450331125828	0.168476821192053	-2.20662251655629	0.975364238410596	-3.14490066225166				0.976953642384106	0.0317880794701987	0.349139072847682	1.27390728476821	12.0678145695364	4.73403973509934				0.997827814569536	-0.0652715231788079	-0.0559470198675496	-8.39258278145695	11.9064900662252	-0.20026490066225				0.704529801324503	-0.288529801324503	-0.533721854304636	3.60291390728477	-1.7764238410596	6.66437086092715				0.996026490066225	0.0194966887417219	0.229933774834437	3.0317880794702	1.17192052980133	3.02251655629139				0.575788079470199	-0.334834437086093	-0.708238410596026	9.26039735099338	-9.08238410596027	-0.194701986754968			
144	3220	0.951841059602649	-0.0452450331125828	0.152476821192053	-6.12662251655629	-1.8246357615894	-3.14490066225166				0.976953642384106	0.0317880794701987	0.269139072847682	2.67390728476821	3.38781456953642	1.37403973509934				1.01382781456954	-0.0492715231788079	0.0240529801324504	-6.71258278145695	9.94649006622517	-1.88026490066225				0.688529801324503	-0.336529801324503	-0.581721854304636	11.1629139072848	2.9835761589404	9.18437086092715				0.948026490066225	0.0194966887417219	0.197933774834437	2.1917880794702	-5.26807947019868	1.62251655629139				0.559788079470199	-0.302834437086093	-0.708238410596026	0.300397350993377	-13.0023841059603	3.44529801324503			
145	3240	0.951841059602649	-0.0132450331125828	0.184476821192053	-4.44662251655629	-3.2246357615894	-1.74490066225166				0.976953642384106	-0.000211920529801304	0.301139072847682	-0.406092715231788	4.22781456953642	2.21403973509934				0.997827814569536	-0.0812715231788079	0.00805298013245037	3.08741721854305	2.66649006622517	-1.88026490066225				0.672529801324503	-0.384529801324503	-0.645721854304636	2.20291390728477	-0.3764238410596	9.46437086092715				0.900026490066225	0.0354966887417219	0.213933774834437	2.1917880794702	-4.14807947019868	2.74251655629139				0.559788079470199	-0.270834437086093	-0.692238410596026	-1.93960264900662	-10.2023841059603	1.20529801324503			
146	3260	0.951841059602649	-0.0292450331125828	0.184476821192053	-3.60662251655629	-1.2646357615894	0.495099337748344				0.944953642384106	0.0317880794701987	0.301139072847682	-0.406092715231788	1.14781456953642	3.05403973509934				0.981827814569536	-0.0812715231788079	-0.00794701986754963	3.92741721854305	-1.53350993377483	-0.48026490066225				0.640529801324503	-0.336529801324503	-0.661721854304636	-3.67708609271523	-4.5764238410596	5.54437086092715				0.964026490066225	0.0354966887417219	0.149933774834437	-0.0482119205298018	-0.788079470198675	1.34251655629139				0.559788079470199	-0.222834437086093	-0.676238410596026	-7.25960264900662	-8.80238410596027	-4.67470198675497			
147	3280	0.951841059602649	-0.0452450331125828	0.184476821192053	-3.04662251655629	-0.424635761589404	1.61509933774834				0.944953642384106	0.0157880794701987	0.317139072847682	-1.24609271523179	2.54781456953642	0.53403973509934				0.917827814569536	-0.0652715231788079	-0.0399470198675496	-1.39258278145695	-3.49350993377483	-1.04026490066225				0.624529801324503	-0.304529801324503	-0.645721854304636	-1.99708609271523	-6.8164238410596	4.42437086092715				0.980026490066225	0.0354966887417219	0.165933774834437	0.791788079470198	-0.508079470198675	-0.617483443708608				0.575788079470199	-0.270834437086093	-0.708238410596026	-3.33960264900662	-6.00238410596027	-4.67470198675497			
148	3300	0.999841059602649	0.00275496688741723	0.232476821192053	-3.88662251655629	-0.704635761589404	0.215099337748344				0.976953642384106	-0.000211920529801304	0.349139072847682	-2.36609271523179	-5.57218543046358	-1.98596026490066				0.965827814569536	-0.0492715231788079	-0.00794701986754963	-8.11258278145695	-1.53350993377483	-1.60026490066225				0.624529801324503	-0.336529801324503	-0.629721854304636	2.76291390728477	-7.3764238410596	3.86437086092715				0.948026490066225	0.0354966887417219	0.165933774834437	-1.4482119205298	-6.66807947019868	-0.337483443708608				0.591788079470199	-0.318834437086093	-0.692238410596026	-2.21960264900662	-6.28238410596027	-4.95470198675497			
149	3320	1.01584105960265	0.0187549668874172	0.248476821192053	-6.68662251655629	-4.6246357615894	0.215099337748344				0.976953642384106	-0.000211920529801304	0.269139072847682	-4.04609271523179	-10.0521854304636	-1.42596026490066				1.01382781456954	-0.0652715231788079	0.0400529801324504	-10.632582781457	-2.09350993377483	-2.16026490066225				0.592529801324503	-0.352529801324503	-0.613721854304636	1.36291390728477	-7.3764238410596	3.58437086092715				0.932026490066225	0.0354966887417219	0.133933774834437	-2.0082119205298	-5.82807947019868	1.34251655629139				0.559788079470199	-0.238834437086093	-0.724238410596026	-6.13960264900662	-4.60238410596027	-2.15470198675497			
150	3340	0.967841059602649	0.0187549668874172	0.216476821192053	-1.92662251655629	-6.3046357615894	-1.46490066225166				0.976953642384106	0.0477880794701987	0.285139072847682	-4.88609271523179	-1.37218543046358	-0.86596026490066				0.997827814569536	-0.0812715231788079	0.0560529801324504	-4.75258278145695	-3.21350993377483	-1.88026490066225				0.592529801324503	-0.320529801324503	-0.629721854304636	-1.43708609271523	-5.4164238410596	2.46437086092715				0.980026490066225	0.0674966887417219	0.149933774834437	-3.6882119205298	-1.06807947019868	0.502516556291392				0.511788079470199	-0.190834437086093	-0.756238410596026	-1.65960264900662	-3.76238410596027	-2.71470198675497			
151	3360	0.967841059602649	-0.0132450331125828	0.248476821192053	2.83337748344371	-3.7846357615894	-0.624900662251656				0.960953642384106	0.0797880794701987	0.333139072847682	2.95390728476821	-2.77218543046358	-0.86596026490066				0.981827814569536	-0.0652715231788079	0.0400529801324504	0.847417218543046	-2.93350993377483	-1.60026490066225				0.640529801324503	-0.320529801324503	-0.661721854304636	2.48291390728477	0.4635761589404	4.42437086092715				0.996026490066225	0.0834966887417219	0.133933774834437	-5.0882119205298	-1.90807947019868	0.222516556291392				0.527788079470199	-0.190834437086093	-0.772238410596026	3.38039735099338	0.157615894039735	-4.39470198675497			
152	3380	0.951841059602649	-0.0132450331125828	0.264476821192053	0.313377483443709	-1.8246357615894	-1.46490066225166				0.976953642384106	0.0317880794701987	0.285139072847682	4.07390728476821	-8.37218543046358	-0.585960264900661				0.997827814569536	-0.0652715231788079	0.0240529801324504	1.96741721854305	-3.77350993377483	-1.60026490066225				0.656529801324503	-0.368529801324503	-0.661721854304636	8.36291390728477	4.3835761589404	5.54437086092715				0.948026490066225	0.0674966887417219	0.117933774834437	-0.888211920529802	-5.26807947019868	0.782516556291392				0.543788079470199	-0.206834437086093	-0.756238410596026	1.42039735099338	1.55761589403974	-7.19470198675497			
153	3400	0.999841059602649	-0.0132450331125828	0.248476821192053	-4.44662251655629	-2.3846357615894	-3.14490066225166				0.976953642384106	0.0317880794701987	0.301139072847682	-0.686092715231788	0.0278145695364242	-0.86596026490066				0.997827814569536	-0.0652715231788079	0.0400529801324504	0.00741721854304636	-3.49350993377483	-1.04026490066225				0.624529801324503	-0.384529801324503	-0.693721854304636	2.48291390728477	0.7435761589404	3.58437086092715				0.948026490066225	0.0674966887417219	0.117933774834437	0.511788079470198	-2.74807947019868	0.782516556291392				0.527788079470199	-0.190834437086093	-0.772238410596026	-1.93960264900662	1.55761589403974	-9.99470198675497			
154	3420	0.967841059602649	0.00275496688741723	0.264476821192053	-8.08662251655629	-1.8246357615894	-3.70490066225166				0.960953642384106	0.0477880794701987	0.333139072847682	-0.126092715231788	-1.37218543046358	0.81403973509934				0.965827814569536	-0.0972715231788079	0.0400529801324504	-0.832582781456954	-2.09350993377483	-1.04026490066225				0.592529801324503	-0.368529801324503	-0.709721854304636	-1.15708609271523	-1.2164238410596	0.784370860927152				0.948026490066225	0.0514966887417219	0.117933774834437	1.3517880794702	0.331920529801325	-0.337483443708608				0.511788079470199	-0.158834437086093	-0.772238410596026	2.26039735099338	-0.962384105960265	-11.394701986755			
155	3440	0.967841059602649	0.00275496688741723	0.216476821192053	-4.44662251655629	-2.9446357615894	-2.58490066225166				0.960953642384106	0.0637880794701987	0.221139072847682	4.63390728476821	-3.33218543046358	1.93403973509934				0.965827814569536	-0.0812715231788079	0.00805298013245037	1.40741721854305	-2.65350993377483	-1.04026490066225				0.608529801324503	-0.368529801324503	-0.677721854304636	-2.83708609271523	-3.1764238410596	-2.57562913907285				0.980026490066225	0.0674966887417219	0.101933774834437	3.0317880794702	3.97192052980133	-1.45748344370861				0.495788079470199	-0.174834437086093	-0.772238410596026	6.18039735099338	0.437615894039735	-11.954701986755			
156	3460	0.967841059602649	0.0187549668874172	0.200476821192053	0.313377483443709	-3.2246357615894	-2.30490066225166				0.960953642384106	0.0637880794701987	0.269139072847682	6.03390728476821	3.10781456953642	0.81403973509934				0.965827814569536	-0.0492715231788079	0.00805298013245037	5.04741721854305	-2.65350993377483	-0.20026490066225				0.608529801324503	-0.336529801324503	-0.645721854304636	3.60291390728477	-2.6164238410596	-2.85562913907285				0.996026490066225	0.0674966887417219	0.101933774834437	3.5917880794702	2.57192052980133	-2.85748344370861				0.527788079470199	-0.222834437086093	-0.756238410596026	10.9403973509934	-0.682384105960265	-12.794701986755			
157	3480	0.967841059602649	0.0187549668874172	0.216476821192053	3.39337748344371	-3.7846357615894	-1.18490066225166				0.960953642384106	0.0477880794701987	0.237139072847682	10.7939072847682	1.98781456953642	1.93403973509934				0.997827814569536	-0.0332715231788079	0.00805298013245037	3.08741721854305	-0.973509933774833	0.35973509933775				0.592529801324503	-0.352529801324503	-0.645721854304636	8.92291390728477	1.0235761589404	-2.29562913907285				0.964026490066225	0.0834966887417219	0.0859337748344371	4.9917880794702	-0.788079470198675	-2.29748344370861				0.543788079470199	-0.222834437086093	-0.756238410596026	1.98039735099338	0.157615894039735	-9.43470198675497			
158	3500	0.951841059602649	0.0187549668874172	0.216476821192053	1.15337748344371	-4.9046357615894	-1.46490066225166				0.960953642384106	0.0797880794701987	0.237139072847682	6.59390728476821	7.86781456953642	2.21403973509934				0.965827814569536	-0.0332715231788079	0.00805298013245037	3.36741721854305	-0.693509933774834	-0.20026490066225				0.576529801324503	-0.368529801324503	-0.661721854304636	7.80291390728477	2.7035761589404	-2.85562913907285				0.916026490066225	0.0674966887417219	0.101933774834437	7.7917880794702	0.611920529801325	-0.897483443708608				0.527788079470199	-0.190834437086093	-0.788238410596027	1.42039735099338	-0.122384105960265	-6.63470198675497			
159	3520	0.951841059602649	0.00275496688741723	0.184476821192053	5.07337748344371	-6.0246357615894	-1.18490066225166				0.944953642384106	0.0477880794701987	0.285139072847682	9.67390728476821	8.98781456953643	2.21403973509934				0.965827814569536	-0.0492715231788079	-0.0239470198675496	7.56741721854305	-1.53350993377483	-0.48026490066225				0.592529801324503	-0.368529801324503	-0.693721854304636	0.242913907284768	1.8635761589404	-2.57562913907285				0.948026490066225	0.0514966887417219	0.0859337748344371	7.7917880794702	5.37192052980133	-1.45748344370861				0.511788079470199	-0.142834437086093	-0.772238410596026	2.26039735099338	-2.36238410596027	-7.75470198675497			
160	3540	0.967841059602649	-0.0132450331125828	0.168476821192053	7.87337748344371	-3.2246357615894	-2.02490066225166				0.960953642384106	0.0317880794701987	0.269139072847682	13.5939072847682	2.26781456953642	1.65403973509934				0.949827814569536	-0.0332715231788079	-0.0399470198675496	13.167417218543	-0.413509933774833	-0.76026490066225				0.560529801324503	-0.352529801324503	-0.661721854304636	-2.55708609271523	-0.9364238410596	-2.01562913907285				0.964026490066225	0.0514966887417219	0.0859337748344371	7.2317880794702	7.61192052980133	-2.57748344370861				0.511788079470199	-0.174834437086093	-0.772238410596026	3.94039735099338	-0.962384105960265	-9.71470198675497			
161	3560	0.983841059602649	-0.0132450331125828	0.200476821192053	5.91337748344371	-2.1046357615894	-0.624900662251656				0.976953642384106	0.0477880794701987	0.189139072847682	9.11390728476821	2.54781456953642	2.49403973509934				0.965827814569536	-0.0492715231788079	-0.0239470198675496	12.887417218543	0.426490066225167	-0.76026490066225				0.576529801324503	-0.304529801324503	-0.645721854304636	-1.71708609271523	-1.7764238410596	-0.615629139072848				0.980026490066225	0.0674966887417219	0.101933774834437	6.9517880794702	6.77192052980133	-1.73748344370861				0.543788079470199	-0.222834437086093	-0.772238410596026	8.98039735099338	-2.36238410596027	-11.674701986755			
162	3580	0.951841059602649	0.00275496688741723	0.184476821192053	4.51337748344371	-0.144635761589404	-1.18490066225166				0.944953642384106	0.0317880794701987	0.221139072847682	7.71390728476821	4.22781456953642	1.09403973509934				0.981827814569536	-0.0652715231788079	-0.00794701986754963	8.40741721854305	0.426490066225167	-0.48026490066225				0.592529801324503	-0.320529801324503	-0.677721854304636	4.16291390728477	1.5835761589404	1.06437086092715				0.980026490066225	0.0674966887417219	0.117933774834437	5.5517880794702	2.29192052980133	0.222516556291392				0.559788079470199	-0.254834437086093	-0.772238410596026	3.94039735099338	-0.682384105960265	-10.274701986755			
163	3600	0.951841059602649	0.00275496688741723	0.168476821192053	5.91337748344371	1.2553642384106	-0.904900662251656				0.960953642384106	0.0157880794701987	0.317139072847682	8.55390728476821	6.46781456953642	2.21403973509934				0.997827814569536	-0.0812715231788079	-0.00794701986754963	5.88741721854305	-0.133509933774833	-1.04026490066225				0.576529801324503	-0.416529801324503	-0.677721854304636	1.64291390728477	2.1435761589404	0.224370860927152				0.964026490066225	0.0354966887417219	0.101933774834437	6.1117880794702	-0.508079470198675	1.62251655629139				0.559788079470199	-0.238834437086093	-0.788238410596027	0.580397350993377	0.437615894039735	-6.35470198675497			
164	3620	0.999841059602649	-0.0132450331125828	0.168476821192053	3.39337748344371	0.975364238410596	-1.74490066225166				1.00895364238411	0.0157880794701987	0.269139072847682	9.95390728476821	1.42781456953642	1.93403973509934				0.997827814569536	-0.0972715231788079	-0.00794701986754963	7.84741721854305	-0.693509933774834	-1.04026490066225				0.544529801324503	-0.368529801324503	-0.693721854304636	-3.11708609271523	-0.3764238410596	-1.45562913907285				0.948026490066225	0.0514966887417219	0.133933774834437	5.5517880794702	6.77192052980133	0.502516556291392				0.527788079470199	-0.206834437086093	-0.788238410596027	8.14039735099338	-2.92238410596027	-2.99470198675497			
165	3640	0.983841059602649	-0.0132450331125828	0.136476821192053	2.55337748344371	-0.704635761589404	-2.30490066225166				0.992953642384106	0.0477880794701987	0.269139072847682	6.03390728476821	3.94781456953642	0.53403973509934				0.997827814569536	-0.0652715231788079	-0.0239470198675496	7.00741721854305	0.706490066225167	-0.48026490066225				0.592529801324503	-0.352529801324503	-0.677721854304636	1.36291390728477	3.2635761589404	-0.895629139072848				0.980026490066225	0.0514966887417219	0.101933774834437	1.3517880794702	7.33192052980133	-0.337483443708608				0.527788079470199	-0.190834437086093	-0.772238410596026	12.6203973509934	-7.68238410596027	-3.27470198675497			
166	3660	0.983841059602649	-0.0132450331125828	0.152476821192053	5.91337748344371	-0.424635761589404	-2.02490066225166				0.976953642384106	0.0157880794701987	0.269139072847682	4.07390728476821	-0.532185430463576	1.37403973509934				0.981827814569536	-0.0652715231788079	-0.00794701986754963	0.567417218543046	2.10649006622517	-0.48026490066225				0.624529801324503	-0.368529801324503	-0.661721854304636	3.88291390728477	6.3435761589404	0.504370860927152				0.980026490066225	0.0354966887417219	0.117933774834437	2.7517880794702	4.53192052980133	-0.0574834437086077				0.543788079470199	-0.222834437086093	-0.772238410596026	10.9403973509934	-4.88238410596027	-2.71470198675497			
167	3680	0.967841059602649	-0.0292450331125828	0.152476821192053	0.593377483443709	-0.984635761589404	-2.86490066225166				0.944953642384106	0.0317880794701987	0.253139072847682	-0.126092715231788	-3.05218543046358	-0.0259602649006601				0.981827814569536	-0.0652715231788079	-0.00794701986754963	-0.272582781456954	0.986490066225167	-1.88026490066225				0.576529801324503	-0.368529801324503	-0.661721854304636	3.04291390728477	2.9835761589404	1.34437086092715				0.964026490066225	0.0514966887417219	0.117933774834437	3.0317880794702	3.41192052980132	1.06251655629139				0.543788079470199	-0.238834437086093	-0.756238410596026	2.82039735099338	-0.122384105960265	-0.754701986754968			
168	3700	0.967841059602649	-0.0132450331125828	0.152476821192053	-4.16662251655629	-1.8246357615894	-2.30490066225166				0.960953642384106	0.0317880794701987	0.269139072847682	-0.126092715231788	0.867814569536424	0.53403973509934				0.981827814569536	-0.0492715231788079	-0.00794701986754963	4.48741721854305	-1.53350993377483	-2.16026490066225				0.576529801324503	-0.352529801324503	-0.677721854304636	-2.55708609271523	-0.3764238410596	1.90437086092715				0.948026490066225	0.0674966887417219	0.117933774834437	3.3117880794702	2.85192052980133	1.34251655629139				0.527788079470199	-0.206834437086093	-0.756238410596026	-0.259602649006623	1.55761589403974	0.0852980132450323			
169	3720	0.983841059602649	-0.0132450331125828	0.168476821192053	-7.80662251655629	-1.8246357615894	-2.30490066225166				0.992953642384106	0.0317880794701987	0.269139072847682	-1.80609271523179	3.66781456953642	0.53403973509934				0.965827814569536	-0.0652715231788079	0.00805298013245037	5.32741721854305	-1.53350993377483	-1.88026490066225				0.608529801324503	-0.336529801324503	-0.693721854304636	-1.15708609271523	1.3035761589404	0.504370860927152				0.964026490066225	0.0514966887417219	0.133933774834437	3.8717880794702	4.81192052980133	1.90251655629139				0.527788079470199	-0.190834437086093	-0.740238410596026	5.90039735099338	1.83761589403974	-0.474701986754968			
170	3740	0.935841059602649	0.00275496688741723	0.152476821192053	-6.68662251655629	-0.704635761589404	-3.14490066225166				0.960953642384106	0.0317880794701987	0.253139072847682	-1.80609271523179	1.14781456953642	0.81403973509934				0.965827814569536	-0.0812715231788079	-0.00794701986754963	3.08741721854305	-0.693509933774834	-0.76026490066225				0.624529801324503	-0.400529801324503	-0.661721854304636	2.76291390728477	3.8235761589404	-3.13562913907285				0.964026490066225	0.0354966887417219	0.133933774834437	1.0717880794702	3.41192052980132	1.06251655629139				0.559788079470199	-0.222834437086093	-0.724238410596026	8.42039735099338	2.95761589403974	-2.15470198675497			
171	3760	0.951841059602649	0.00275496688741723	0.136476821192053	-3.04662251655629	0.975364238410596	-3.14490066225166				0.960953642384106	0.0477880794701987	0.269139072847682	-3.76609271523179	1.70781456953642	-0.86596026490066				0.965827814569536	-0.0652715231788079	-0.0239470198675496	-2.51258278145695	0.426490066225167	-0.76026490066225				0.608529801324503	-0.352529801324503	-0.661721854304636	-2.27708609271523	-2.6164238410596	-5.65562913907285				0.964026490066225	0.0674966887417219	0.149933774834437	1.6317880794702	3.97192052980133	-0.0574834437086077				0.559788079470199	-0.238834437086093	-0.756238410596026	7.86039735099338	1.27761589403974	-2.71470198675497			
172	3780	0.967841059602649	0.0187549668874172	0.168476821192053	-2.48662251655629	0.975364238410596	-3.42490066225166				0.976953642384106	0.0477880794701987	0.285139072847682	1.27390728476821	1.42781456953642	0.53403973509934				0.965827814569536	-0.0492715231788079	-0.00794701986754963	-5.03258278145695	2.38649006622517	-0.76026490066225				0.608529801324503	-0.304529801324503	-0.613721854304636	-2.55708609271523	-1.2164238410596	-3.13562913907285				0.948026490066225	0.0834966887417219	0.149933774834437	-1.4482119205298	2.01192052980133	1.06251655629139				0.559788079470199	-0.238834437086093	-0.740238410596026	3.94039735099338	0.157615894039735	-1.03470198675497			
173	3800	0.983841059602649	0.00275496688741723	0.200476821192053	-3.88662251655629	-0.704635761589404	-2.30490066225166				0.944953642384106	0.0477880794701987	0.253139072847682	0.993907284768212	-0.252185430463576	1.65403973509934				0.981827814569536	-0.0172715231788079	0.00805298013245037	-6.43258278145695	5.74649006622517	-1.60026490066225				0.624529801324503	-0.320529801324503	-0.629721854304636	1.36291390728477	2.1435761589404	1.90437086092715				0.948026490066225	0.0834966887417219	0.181933774834437	2.7517880794702	1.45192052980132	1.62251655629139				0.559788079470199	-0.238834437086093	-0.740238410596026	-2.21960264900662	-0.682384105960265	2.60529801324503			
174	3820	0.951841059602649	0.0187549668874172	0.168476821192053	-1.08662251655629	-1.2646357615894	-2.02490066225166				0.960953642384106	0.0637880794701987	0.317139072847682	-1.52609271523179	3.38781456953642	0.53403973509934				0.965827814569536	-0.0492715231788079	-0.00794701986754963	-3.07258278145695	4.62649006622517	-1.60026490066225				0.640529801324503	-0.352529801324503	-0.661721854304636	3.04291390728477	1.0235761589404	4.42437086092715				0.932026490066225	0.0674966887417219	0.165933774834437	3.0317880794702	2.85192052980133	2.18251655629139				0.559788079470199	-0.222834437086093	-0.756238410596026	-0.819602649006623	-2.08238410596027	0.925298013245032			
175	3840	0.967841059602649	0.00275496688741723	0.200476821192053	2.27337748344371	-1.2646357615894	-1.18490066225166				0.976953642384106	0.0477880794701987	0.317139072847682	0.993907284768212	-0.812185430463576	0.25403973509934				0.997827814569536	-0.0172715231788079	-0.00794701986754963	2.80741721854305	3.22649006622517	-1.60026490066225				0.640529801324503	-0.352529801324503	-0.693721854304636	0.522913907284768	0.7435761589404	1.06437086092715				0.980026490066225	0.0514966887417219	0.149933774834437	2.1917880794702	4.81192052980133	0.782516556291392				0.559788079470199	-0.206834437086093	-0.740238410596026	2.54039735099338	-0.402384105960265	-2.71470198675497			
176	3860	0.967841059602649	0.00275496688741723	0.200476821192053	1.43337748344371	-1.5446357615894	-1.46490066225166				0.960953642384106	0.0477880794701987	0.285139072847682	0.433907284768212	-1.37218543046358	0.53403973509934				0.997827814569536	-0.0332715231788079	0.00805298013245037	4.20741721854305	2.38649006622517	-1.60026490066225				0.624529801324503	-0.336529801324503	-0.629721854304636	-3.95708609271523	-2.3364238410596	-2.85562913907285				0.980026490066225	0.0674966887417219	0.149933774834437	0.791788079470198	4.53192052980133	-0.0574834437086077				0.543788079470199	-0.238834437086093	-0.724238410596026	4.22039735099338	-0.682384105960265	-2.99470198675497			
177	3880	0.983841059602649	0.0187549668874172	0.216476821192053	-0.806622516556291	-1.8246357615894	-1.46490066225166				0.976953642384106	0.0637880794701987	0.301139072847682	0.153907284768212	1.14781456953642	1.37403973509934				1.01382781456954	-0.0652715231788079	0.00805298013245037	1.40741721854305	2.10649006622517	0.0797350993377501				0.608529801324503	-0.288529801324503	-0.613721854304636	1.64291390728477	0.7435761589404	-3.41562913907285				0.964026490066225	0.0834966887417219	0.165933774834437	1.3517880794702	2.57192052980133	-0.0574834437086077				0.559788079470199	-0.254834437086093	-0.740238410596026	2.82039735099338	1.55761589403974	-0.754701986754968			
178	3900	0.983841059602649	0.0347549668874172	0.232476821192053	1.71337748344371	0.695364238410596	-0.904900662251656				0.976953642384106	0.0477880794701987	0.301139072847682	3.23390728476821	1.14781456953642	1.09403973509934				0.997827814569536	-0.0812715231788079	0.00805298013245037	1.96741721854305	0.706490066225167	0.35973509933775				0.608529801324503	-0.352529801324503	-0.661721854304636	9.48291390728477	3.8235761589404	-3.69562913907285				0.948026490066225	0.0834966887417219	0.149933774834437	3.3117880794702	1.17192052980133	1.06251655629139				0.559788079470199	-0.222834437086093	-0.740238410596026	2.26039735099338	1.83761589403974	-1.03470198675497			
