No	Time	12-AccX	12-AccY	12-AccZ	12-GyroX	12-GyroY	12-GyroZ	13-AccX	13-AccY	13-AccZ	13-GyroX	13-GyroY	13-GyroZ	14-AccX	14-AccY	14-AccZ	14-GyroX	14-GyroY	14-GyroZ	15-AccX	15-AccY	15-AccZ	15-GyroX	15-GyroY	15-GyroZ	16-AccX	16-AccY	16-AccZ	16-GyroX	16-GyroY	16-GyroZ	17-AccX	17-AccY	17-AccZ	17-GyroX	17-GyroY	17-GyroZ
0	100	0	0	0	0	0	0				0	0	0	0	0	0				-0.282172185430464	-0.113271523178808	-0.88794701986755	-0.552582781456954	0.426490066225167	-0.20026490066225				0	0	0	0	0	0				0.948026490066225	0.0994966887417219	0.165933774834437	3.0317880794702	-1.90807947019868	1.34251655629139				0.415788079470199	-0.174834437086093	-0.852238410596026	1.42039735099338	-1.80238410596026	-3.83470198675497			
1	120	-0.216158940397351	0.114754966887417	-0.935523178807947	0.313377483443709	0.975364238410596	-1.18490066225166				0.960953642384106	0.0957880794701987	0.301139072847682	-0.966092715231788	0.307814569536424	-0.585960264900661				-0.266172185430464	-0.113271523178808	-0.88794701986755	1.12741721854305	-0.413509933774833	0.35973509933775				0.384529801324503	-0.144529801324503	-0.901721854304636	3.88291390728477	-0.0964238410596001	-3.69562913907285				0.964026490066225	0.115496688741722	0.165933774834437	2.1917880794702	-3.02807947019868	1.34251655629139				0.415788079470199	-0.174834437086093	-0.836238410596026	0.860397350993377	-1.52238410596026	-2.15470198675497			
2	140	-0.200158940397351	0.114754966887417	-0.935523178807947	0.873377483443709	0.415364238410596	-1.18490066225166				0.960953642384106	0.0957880794701987	0.317139072847682	-0.966092715231788	-1.93218543046358	-0.86596026490066				-0.250172185430464	-0.113271523178808	-0.87194701986755	0.287417218543046	0.706490066225167	0.0797350993377501				0.384529801324503	-0.144529801324503	-0.885721854304636	3.32291390728477	-0.9364238410596	-2.01562913907285				0.964026490066225	0.0994966887417219	0.149933774834437	2.1917880794702	-3.30807947019868	1.90251655629139				0.415788079470199	-0.158834437086093	-0.852238410596026	-0.539602649006623	-0.682384105960265	-1.87470198675497			
3	160	-0.200158940397351	0.130754966887417	-0.951523178807947	0.0333774834437086	0.135364238410596	-0.904900662251656				0.960953642384106	0.0957880794701987	0.285139072847682	0.993907284768212	-3.61218543046358	-0.30596026490066				-0.266172185430464	-0.129271523178808	-0.87194701986755	1.12741721854305	0.426490066225167	0.0797350993377501				0.368529801324503	-0.128529801324503	-0.885721854304636	3.04291390728477	-1.2164238410596	-1.73562913907285				0.948026490066225	0.0994966887417219	0.133933774834437	1.6317880794702	-4.14807947019868	1.34251655629139				0.415788079470199	-0.158834437086093	-0.852238410596026	1.42039735099338	-1.24238410596026	-2.15470198675497			
4	180	-0.200158940397351	0.114754966887417	-0.951523178807947	-0.246622516556291	0.135364238410596	-1.18490066225166				0.944953642384106	0.0797880794701987	0.285139072847682	0.153907284768212	-1.93218543046358	-0.585960264900661				-0.266172185430464	-0.129271523178808	-0.87194701986755	0.287417218543046	-0.133509933774833	-0.48026490066225				0.368529801324503	-0.144529801324503	-0.869721854304636	3.60291390728477	0.1835761589404	-1.73562913907285				0.948026490066225	0.0994966887417219	0.149933774834437	2.1917880794702	-3.02807947019868	1.62251655629139				0.399788079470199	-0.158834437086093	-0.836238410596026	0.0203973509933773	-0.962384105960265	-1.87470198675497			
5	200	-0.200158940397351	0.114754966887417	-0.951523178807947	-0.246622516556291	0.695364238410596	-0.624900662251656				0.944953642384106	0.0957880794701987	0.301139072847682	-1.24609271523179	-0.252185430463576	-0.30596026490066				-0.266172185430464	-0.113271523178808	-0.88794701986755	1.12741721854305	-0.693509933774834	-1.04026490066225				0.368529801324503	-0.128529801324503	-0.885721854304636	3.88291390728477	0.1835761589404	-0.895629139072848				0.948026490066225	0.0994966887417219	0.149933774834437	1.6317880794702	-4.42807947019868	1.06251655629139				0.399788079470199	-0.158834437086093	-0.836238410596026	-0.819602649006623	-1.52238410596026	-1.59470198675497			
6	220	-0.200158940397351	0.130754966887417	-0.935523178807947	0.593377483443709	0.135364238410596	-0.904900662251656				0.960953642384106	0.0957880794701987	0.301139072847682	0.713907284768212	-0.252185430463576	-0.0259602649006601				-0.266172185430464	-0.113271523178808	-0.87194701986755	0.567417218543046	0.146490066225167	-0.48026490066225				0.352529801324503	-0.144529801324503	-0.885721854304636	4.16291390728477	-0.6564238410596	-0.895629139072848				0.948026490066225	0.0994966887417219	0.133933774834437	-0.608211920529802	-4.14807947019868	0.782516556291392				0.399788079470199	-0.174834437086093	-0.836238410596026	-0.259602649006623	-0.962384105960265	-1.31470198675497			
7	240	-0.200158940397351	0.114754966887417	-0.935523178807947	0.0333774834437086	-0.424635761589404	-0.904900662251656				0.944953642384106	0.0957880794701987	0.301139072847682	0.153907284768212	-1.93218543046358	-1.98596026490066				-0.250172185430464	-0.113271523178808	-0.85594701986755	0.847417218543046	-0.693509933774834	-1.04026490066225				0.352529801324503	-0.144529801324503	-0.901721854304636	5.00291390728477	1.0235761589404	0.224370860927152				0.964026490066225	0.0994966887417219	0.133933774834437	1.9117880794702	-4.70807947019868	2.18251655629139				0.399788079470199	-0.158834437086093	-0.852238410596026	0.580397350993377	-0.962384105960265	-1.59470198675497			
8	260	-0.216158940397351	0.130754966887417	-0.951523178807947	-0.806622516556291	-0.984635761589404	-0.0649006622516557				0.960953642384106	0.0957880794701987	0.285139072847682	0.713907284768212	-1.65218543046358	-2.26596026490066				-0.266172185430464	-0.129271523178808	-0.88794701986755	1.40741721854305	-0.133509933774833	-1.04026490066225				0.352529801324503	-0.144529801324503	-0.885721854304636	4.16291390728477	1.0235761589404	0.224370860927152				0.964026490066225	0.0834966887417219	0.149933774834437	0.791788079470198	-3.86807947019868	1.90251655629139				0.383788079470199	-0.158834437086093	-0.852238410596026	0.0203973509933773	-0.682384105960265	-1.59470198675497			
9	280	-0.200158940397351	0.114754966887417	-0.951523178807947	-0.246622516556291	-0.144635761589404	-0.344900662251656				0.960953642384106	0.0957880794701987	0.301139072847682	-0.126092715231788	0.307814569536424	-1.70596026490066				-0.266172185430464	-0.129271523178808	-0.87194701986755	1.12741721854305	-0.973509933774833	-1.60026490066225				0.352529801324503	-0.144529801324503	-0.885721854304636	3.60291390728477	-0.0964238410596001	-0.615629139072848				0.964026490066225	0.0994966887417219	0.149933774834437	-0.608211920529802	-3.86807947019868	1.34251655629139				0.399788079470199	-0.158834437086093	-0.852238410596026	-0.819602649006623	-0.682384105960265	-2.15470198675497			
10	300	-0.200158940397351	0.130754966887417	-0.951523178807947	0.0333774834437086	-0.424635761589404	-1.18490066225166				0.960953642384106	0.111788079470199	0.317139072847682	-0.126092715231788	-0.252185430463576	-1.42596026490066				-0.266172185430464	-0.113271523178808	-0.88794701986755	-0.272582781456954	-0.413509933774833	-1.32026490066225				0.352529801324503	-0.160529801324503	-0.901721854304636	3.04291390728477	0.4635761589404	-0.335629139072848				0.964026490066225	0.0994966887417219	0.133933774834437	-0.328211920529802	-4.14807947019868	1.62251655629139				0.399788079470199	-0.158834437086093	-0.852238410596026	0.300397350993377	-1.80238410596026	-2.99470198675497			
11	320	-0.200158940397351	0.130754966887417	-0.903523178807947	-0.526622516556291	0.135364238410596	-0.344900662251656				0.944953642384106	0.0797880794701987	0.301139072847682	1.55390728476821	1.14781456953642	-1.42596026490066				-0.266172185430464	-0.113271523178808	-0.87194701986755	0.287417218543046	-0.693509933774834	-1.32026490066225				0.384529801324503	-0.144529801324503	-0.901721854304636	4.72291390728477	0.4635761589404	-0.335629139072848				0.964026490066225	0.0994966887417219	0.133933774834437	0.511788079470198	-3.30807947019868	1.34251655629139				0.399788079470199	-0.158834437086093	-0.852238410596026	1.14039735099338	-0.682384105960265	-2.43470198675497			
12	340	-0.216158940397351	0.130754966887417	-0.935523178807947	0.593377483443709	-0.424635761589404	-0.624900662251656				0.960953642384106	0.0957880794701987	0.285139072847682	2.67390728476821	0.307814569536424	-1.14596026490066				-0.266172185430464	-0.113271523178808	-0.87194701986755	0.847417218543046	-0.413509933774833	-0.76026490066225				0.368529801324503	-0.144529801324503	-0.885721854304636	3.32291390728477	-0.0964238410596001	-0.895629139072848				0.964026490066225	0.0834966887417219	0.117933774834437	1.3517880794702	-3.02807947019868	1.34251655629139				0.383788079470199	-0.158834437086093	-0.868238410596026	1.42039735099338	-0.122384105960265	-2.99470198675497			
13	360	-0.216158940397351	0.114754966887417	-0.951523178807947	0.0333774834437086	0.135364238410596	-0.904900662251656				0.960953642384106	0.0957880794701987	0.285139072847682	2.39390728476821	0.867814569536424	-2.26596026490066				-0.282172185430464	-0.129271523178808	-0.87194701986755	0.567417218543046	-0.133509933774833	0.0797350993377501				0.368529801324503	-0.144529801324503	-0.885721854304636	2.48291390728477	-1.4964238410596	-2.29562913907285				0.948026490066225	0.0834966887417219	0.133933774834437	0.791788079470198	-3.58807947019868	0.782516556291392				0.383788079470199	-0.158834437086093	-0.852238410596026	0.300397350993377	-0.402384105960265	-3.27470198675497			
14	380	-0.216158940397351	0.114754966887417	-0.951523178807947	0.0333774834437086	0.695364238410596	-0.624900662251656				0.960953642384106	0.0957880794701987	0.301139072847682	0.433907284768212	3.10781456953642	-2.82596026490066				-0.266172185430464	-0.129271523178808	-0.87194701986755	0.847417218543046	0.986490066225167	-0.20026490066225				0.368529801324503	-0.160529801324503	-0.901721854304636	0.802913907284768	-2.0564238410596	-2.01562913907285				0.964026490066225	0.0994966887417219	0.117933774834437	1.3517880794702	-4.42807947019868	0.222516556291392				0.383788079470199	-0.158834437086093	-0.852238410596026	-0.539602649006623	-1.52238410596026	-2.99470198675497			
15	400	-0.200158940397351	0.130754966887417	-0.951523178807947	-0.806622516556291	0.695364238410596	-1.18490066225166				0.960953642384106	0.0957880794701987	0.285139072847682	-0.126092715231788	3.38781456953642	-1.14596026490066				-0.266172185430464	-0.129271523178808	-0.87194701986755	-0.272582781456954	0.426490066225167	0.0797350993377501				0.368529801324503	-0.144529801324503	-0.901721854304636	1.08291390728477	-0.3764238410596	-2.01562913907285				0.964026490066225	0.0994966887417219	0.117933774834437	0.791788079470198	-3.58807947019868	-0.617483443708608				0.399788079470199	-0.158834437086093	-0.852238410596026	0.0203973509933773	-2.08238410596027	-2.99470198675497			
16	420	-0.200158940397351	0.114754966887417	-0.935523178807947	-0.526622516556291	-0.144635761589404	-1.18490066225166				0.960953642384106	0.111788079470199	0.301139072847682	0.153907284768212	1.98781456953642	-0.585960264900661				-0.266172185430464	-0.129271523178808	-0.87194701986755	-0.272582781456954	-0.133509933774833	-0.48026490066225				0.368529801324503	-0.144529801324503	-0.901721854304636	1.92291390728477	-0.9364238410596	-1.73562913907285				0.964026490066225	0.0994966887417219	0.117933774834437	1.3517880794702	-2.18807947019868	-0.897483443708608				0.399788079470199	-0.158834437086093	-0.852238410596026	0.0203973509933773	-0.682384105960265	-2.99470198675497			
17	440	-0.200158940397351	0.130754966887417	-0.935523178807947	-1.36662251655629	-0.144635761589404	-1.18490066225166				0.960953642384106	0.0957880794701987	0.285139072847682	0.993907284768212	0.0278145695364242	-0.30596026490066				-0.266172185430464	-0.129271523178808	-0.87194701986755	0.00741721854304636	0.146490066225167	0.0797350993377501				0.352529801324503	-0.144529801324503	-0.885721854304636	2.20291390728477	-0.3764238410596	-0.335629139072848				0.948026490066225	0.0834966887417219	0.117933774834437	2.4717880794702	-1.90807947019868	-0.617483443708608				0.399788079470199	-0.158834437086093	-0.852238410596026	-0.539602649006623	0.437615894039735	-2.15470198675497			
18	460	-0.216158940397351	0.130754966887417	-0.951523178807947	-1.08662251655629	0.975364238410596	-0.0649006622516557				0.960953642384106	0.0957880794701987	0.301139072847682	-0.126092715231788	1.70781456953642	-0.86596026490066				-0.282172185430464	-0.129271523178808	-0.88794701986755	0.567417218543046	0.426490066225167	0.0797350993377501				0.352529801324503	-0.144529801324503	-0.901721854304636	0.242913907284768	-0.6564238410596	-1.17562913907285				0.948026490066225	0.0994966887417219	0.117933774834437	2.4717880794702	-1.90807947019868	-1.45748344370861				0.383788079470199	-0.142834437086093	-0.836238410596026	-1.65960264900662	0.717615894039735	-2.71470198675497			
19	480	-0.216158940397351	0.130754966887417	-0.935523178807947	-0.526622516556291	0.975364238410596	-0.344900662251656				0.960953642384106	0.0957880794701987	0.301139072847682	-1.24609271523179	3.38781456953642	-0.86596026490066				-0.266172185430464	-0.129271523178808	-0.87194701986755	-0.832582781456954	0.426490066225167	-0.20026490066225				0.352529801324503	-0.160529801324503	-0.901721854304636	-0.317086092715232	-0.3764238410596	-2.29562913907285				0.948026490066225	0.0994966887417219	0.117933774834437	1.0717880794702	-2.46807947019868	-1.17748344370861				0.399788079470199	-0.142834437086093	-0.868238410596026	-0.819602649006623	0.437615894039735	-2.71470198675497			
20	500	-0.200158940397351	0.130754966887417	-0.935523178807947	-0.246622516556291	1.2553642384106	-0.0649006622516557				0.960953642384106	0.111788079470199	0.317139072847682	-0.686092715231788	4.22781456953642	-1.42596026490066				-0.266172185430464	-0.113271523178808	-0.88794701986755	-0.272582781456954	1.26649006622517	0.0797350993377501				0.352529801324503	-0.144529801324503	-0.885721854304636	-1.15708609271523	0.1835761589404	-2.57562913907285				0.948026490066225	0.115496688741722	0.133933774834437	2.4717880794702	0.331920529801325	-1.17748344370861				0.383788079470199	-0.142834437086093	-0.852238410596026	0.300397350993377	-0.122384105960265	-2.43470198675497			
21	520	-0.200158940397351	0.130754966887417	-0.935523178807947	-0.806622516556291	-0.144635761589404	-0.624900662251656				0.944953642384106	0.0957880794701987	0.301139072847682	-0.126092715231788	2.26781456953642	-1.14596026490066				-0.266172185430464	-0.113271523178808	-0.87194701986755	-0.552582781456954	-0.413509933774833	-0.48026490066225				0.368529801324503	-0.144529801324503	-0.901721854304636	-0.597086092715232	-0.0964238410596001	-2.29562913907285				0.964026490066225	0.0994966887417219	0.101933774834437	1.6317880794702	-2.46807947019868	-0.897483443708608				0.399788079470199	-0.158834437086093	-0.852238410596026	-0.819602649006623	0.717615894039735	-2.71470198675497			
22	540	-0.216158940397351	0.130754966887417	-0.951523178807947	-1.08662251655629	-0.424635761589404	-0.0649006622516557				0.944953642384106	0.0957880794701987	0.301139072847682	1.55390728476821	2.54781456953642	-0.86596026490066				-0.282172185430464	-0.113271523178808	-0.88794701986755	0.287417218543046	-0.413509933774833	-0.20026490066225				0.352529801324503	-0.160529801324503	-0.901721854304636	-0.0370860927152318	0.1835761589404	-1.17562913907285				0.948026490066225	0.115496688741722	0.133933774834437	-2.5682119205298	1.17192052980133	-2.29748344370861				0.399788079470199	-0.142834437086093	-0.852238410596026	-1.37960264900662	1.55761589403974	-2.71470198675497			
23	560	-0.216158940397351	0.130754966887417	-0.951523178807947	0.0333774834437086	0.975364238410596	-0.624900662251656				0.944953642384106	0.111788079470199	0.285139072847682	0.153907284768212	4.50781456953642	-0.86596026490066				-0.266172185430464	-0.113271523178808	-0.88794701986755	0.287417218543046	0.146490066225167	0.35973509933775				0.352529801324503	-0.128529801324503	-0.885721854304636	-0.317086092715232	0.4635761589404	-1.17562913907285				0.948026490066225	0.115496688741722	0.117933774834437	-2.2882119205298	1.17192052980133	-2.29748344370861				0.399788079470199	-0.142834437086093	-0.836238410596026	0.0203973509933773	0.717615894039735	-2.15470198675497			
24	580	-0.216158940397351	0.130754966887417	-0.935523178807947	0.313377483443709	0.975364238410596	-0.624900662251656				0.960953642384106	0.0957880794701987	0.317139072847682	-2.64609271523179	5.62781456953642	-1.42596026490066				-0.266172185430464	-0.113271523178808	-0.87194701986755	0.00741721854304636	0.426490066225167	0.35973509933775				0.352529801324503	-0.128529801324503	-0.885721854304636	-1.71708609271523	0.7435761589404	-1.45562913907285				0.964026490066225	0.115496688741722	0.117933774834437	0.511788079470198	1.17192052980133	-2.29748344370861				0.399788079470199	-0.142834437086093	-0.836238410596026	0.580397350993377	-0.402384105960265	-2.15470198675497			
25	600	-0.200158940397351	0.130754966887417	-0.935523178807947	-0.526622516556291	0.415364238410596	-1.74490066225166				0.960953642384106	0.111788079470199	0.317139072847682	-1.52609271523179	3.66781456953642	-1.14596026490066				-0.266172185430464	-0.113271523178808	-0.88794701986755	-0.552582781456954	0.146490066225167	-0.48026490066225				0.368529801324503	-0.144529801324503	-0.885721854304636	-2.27708609271523	1.0235761589404	-0.895629139072848				0.964026490066225	0.115496688741722	0.133933774834437	1.3517880794702	1.73192052980133	-2.01748344370861				0.415788079470199	-0.158834437086093	-0.852238410596026	-1.37960264900662	1.27761589403974	-2.71470198675497			
26	620	-0.216158940397351	0.130754966887417	-0.951523178807947	-1.36662251655629	-0.144635761589404	-1.18490066225166				0.960953642384106	0.111788079470199	0.301139072847682	0.433907284768212	2.54781456953642	-1.14596026490066				-0.266172185430464	-0.113271523178808	-0.88794701986755	1.12741721854305	-0.133509933774833	-0.20026490066225				0.384529801324503	-0.128529801324503	-0.885721854304636	-1.15708609271523	0.1835761589404	-0.0556291390728476				0.964026490066225	0.115496688741722	0.117933774834437	-0.328211920529802	0.891920529801325	-1.45748344370861				0.415788079470199	-0.142834437086093	-0.852238410596026	-1.65960264900662	1.55761589403974	-2.15470198675497			
27	640	-0.200158940397351	0.130754966887417	-0.951523178807947	0.593377483443709	0.135364238410596	-1.18490066225166				0.960953642384106	0.111788079470199	0.317139072847682	0.993907284768212	3.10781456953642	-0.86596026490066				-0.282172185430464	-0.113271523178808	-0.88794701986755	-0.552582781456954	0.706490066225167	0.0797350993377501				0.384529801324503	-0.128529801324503	-0.885721854304636	-1.15708609271523	1.3035761589404	0.504370860927152				0.964026490066225	0.115496688741722	0.133933774834437	-0.608211920529802	0.0519205298013249	-2.29748344370861				0.415788079470199	-0.126834437086093	-0.868238410596026	-1.09960264900662	1.55761589403974	-2.15470198675497			
28	660	-0.216158940397351	0.130754966887417	-0.951523178807947	0.313377483443709	0.695364238410596	-0.904900662251656				0.944953642384106	0.0957880794701987	0.317139072847682	0.433907284768212	3.66781456953642	-0.0259602649006601				-0.266172185430464	-0.113271523178808	-0.87194701986755	0.847417218543046	1.26649006622517	-0.76026490066225				0.384529801324503	-0.144529801324503	-0.901721854304636	0.242913907284768	1.0235761589404	0.224370860927152				0.964026490066225	0.0994966887417219	0.133933774834437	0.791788079470198	-0.788079470198675	-1.45748344370861				0.415788079470199	-0.142834437086093	-0.852238410596026	-1.37960264900662	0.997615894039735	-0.474701986754968			
29	680	-0.216158940397351	0.114754966887417	-0.935523178807947	0.313377483443709	1.5353642384106	-0.624900662251656				0.960953642384106	0.0957880794701987	0.333139072847682	-0.406092715231788	4.78781456953642	-0.30596026490066				-0.266172185430464	-0.113271523178808	-0.87194701986755	1.12741721854305	0.706490066225167	-0.48026490066225				0.368529801324503	-0.144529801324503	-0.901721854304636	-1.43708609271523	-0.0964238410596001	0.224370860927152				0.964026490066225	0.115496688741722	0.133933774834437	1.0717880794702	0.611920529801325	-1.45748344370861				0.415788079470199	-0.158834437086093	-0.852238410596026	-0.819602649006623	-0.122384105960265	0.365298013245032			
30	700	-0.216158940397351	0.114754966887417	-0.935523178807947	0.593377483443709	0.695364238410596	-0.904900662251656				0.944953642384106	0.111788079470199	0.333139072847682	-0.406092715231788	2.26781456953642	-0.30596026490066				-0.266172185430464	-0.129271523178808	-0.88794701986755	1.12741721854305	0.426490066225167	0.0797350993377501				0.368529801324503	-0.128529801324503	-0.885721854304636	-3.95708609271523	-0.9364238410596	-0.0556291390728476				0.964026490066225	0.115496688741722	0.133933774834437	0.511788079470198	0.331920529801325	-1.73748344370861				0.415788079470199	-0.142834437086093	-0.852238410596026	-1.09960264900662	-0.962384105960265	0.365298013245032			
31	720	-0.216158940397351	0.130754966887417	-0.951523178807947	0.0333774834437086	0.135364238410596	-0.904900662251656				0.944953642384106	0.111788079470199	0.317139072847682	0.713907284768212	2.26781456953642	-0.30596026490066				-0.266172185430464	-0.113271523178808	-0.87194701986755	0.00741721854304636	0.986490066225167	-0.20026490066225				0.352529801324503	-0.144529801324503	-0.869721854304636	-2.83708609271523	-1.2164238410596	1.06437086092715				0.948026490066225	0.115496688741722	0.133933774834437	-0.608211920529802	-0.508079470198675	-1.17748344370861				0.415788079470199	-0.142834437086093	-0.836238410596026	-1.37960264900662	-0.402384105960265	0.0852980132450323			
32	740	-0.216158940397351	0.114754966887417	-0.935523178807947	-0.526622516556291	0.415364238410596	-0.904900662251656				0.944953642384106	0.111788079470199	0.317139072847682	0.713907284768212	4.22781456953642	-0.30596026490066				-0.266172185430464	-0.113271523178808	-0.87194701986755	-0.552582781456954	0.426490066225167	-0.48026490066225				0.368529801324503	-0.128529801324503	-0.885721854304636	-1.43708609271523	-0.9364238410596	0.784370860927152				0.948026490066225	0.115496688741722	0.149933774834437	0.231788079470198	1.73192052980133	-1.45748344370861				0.415788079470199	-0.142834437086093	-0.852238410596026	-0.259602649006623	-0.122384105960265	0.365298013245032			
33	760	-0.216158940397351	0.130754966887417	-0.935523178807947	0.0333774834437086	0.415364238410596	-0.904900662251656				0.944953642384106	0.111788079470199	0.317139072847682	0.153907284768212	5.34781456953642	-1.14596026490066				-0.250172185430464	-0.113271523178808	-0.87194701986755	1.12741721854305	0.706490066225167	0.0797350993377501				0.368529801324503	-0.128529801324503	-0.869721854304636	-1.43708609271523	0.1835761589404	-0.0556291390728476				0.948026490066225	0.115496688741722	0.117933774834437	-0.0482119205298018	-1.34807947019868	-1.45748344370861				0.415788079470199	-0.142834437086093	-0.836238410596026	-0.259602649006623	0.157615894039735	0.0852980132450323			
34	780	-0.216158940397351	0.130754966887417	-0.935523178807947	0.313377483443709	0.695364238410596	-0.344900662251656				0.944953642384106	0.0957880794701987	0.333139072847682	0.153907284768212	5.06781456953642	-0.0259602649006601				-0.266172185430464	-0.113271523178808	-0.87194701986755	0.847417218543046	0.146490066225167	-0.20026490066225				0.368529801324503	-0.128529801324503	-0.869721854304636	-2.55708609271523	0.4635761589404	0.224370860927152				0.948026490066225	0.115496688741722	0.133933774834437	-0.328211920529802	0.0519205298013249	-0.897483443708608				0.399788079470199	-0.142834437086093	-0.836238410596026	0.0203973509933773	-0.682384105960265	-0.194701986754968			
35	800	-0.200158940397351	0.130754966887417	-0.935523178807947	-1.08662251655629	0.135364238410596	-0.904900662251656				0.944953642384106	0.0957880794701987	0.333139072847682	0.993907284768212	3.94781456953642	-1.14596026490066				-0.266172185430464	-0.113271523178808	-0.88794701986755	0.00741721854304636	0.146490066225167	-0.20026490066225				0.368529801324503	-0.128529801324503	-0.885721854304636	-1.71708609271523	-0.0964238410596001	1.34437086092715				0.948026490066225	0.115496688741722	0.133933774834437	-0.0482119205298018	-0.228079470198675	-0.617483443708608				0.399788079470199	-0.142834437086093	-0.836238410596026	-0.259602649006623	-0.122384105960265	-0.194701986754968			
36	820	-0.200158940397351	0.130754966887417	-0.951523178807947	-0.806622516556291	0.695364238410596	-1.18490066225166				0.944953642384106	0.111788079470199	0.317139072847682	1.83390728476821	3.10781456953642	-1.14596026490066				-0.266172185430464	-0.113271523178808	-0.88794701986755	0.567417218543046	0.146490066225167	-0.20026490066225				0.384529801324503	-0.128529801324503	-0.885721854304636	-0.597086092715232	-0.0964238410596001	1.62437086092715				0.948026490066225	0.115496688741722	0.133933774834437	-0.608211920529802	-1.06807947019868	-0.897483443708608				0.415788079470199	-0.142834437086093	-0.852238410596026	-0.539602649006623	0.717615894039735	-0.754701986754968			
37	840	-0.200158940397351	0.114754966887417	-0.951523178807947	0.0333774834437086	0.135364238410596	-1.46490066225166				0.960953642384106	0.111788079470199	0.333139072847682	0.433907284768212	4.22781456953642	-1.70596026490066				-0.266172185430464	-0.129271523178808	-0.87194701986755	0.847417218543046	0.706490066225167	0.0797350993377501				0.368529801324503	-0.144529801324503	-0.901721854304636	0.242913907284768	0.1835761589404	1.34437086092715				0.964026490066225	0.0994966887417219	0.133933774834437	-0.0482119205298018	-0.228079470198675	-0.337483443708608				0.415788079470199	-0.158834437086093	-0.852238410596026	0.580397350993377	0.437615894039735	-0.474701986754968			
38	860	-0.200158940397351	0.130754966887417	-0.951523178807947	-0.246622516556291	0.415364238410596	-1.46490066225166				0.944953642384106	0.111788079470199	0.333139072847682	0.713907284768212	3.38781456953642	-1.42596026490066				-0.266172185430464	-0.113271523178808	-0.88794701986755	1.12741721854305	0.426490066225167	-0.48026490066225				0.368529801324503	-0.144529801324503	-0.885721854304636	-0.877086092715232	0.7435761589404	1.34437086092715				0.964026490066225	0.115496688741722	0.133933774834437	0.511788079470198	0.331920529801325	-0.897483443708608				0.399788079470199	-0.142834437086093	-0.852238410596026	0.0203973509933773	0.437615894039735	-0.194701986754968			
39	880	-0.216158940397351	0.130754966887417	-0.951523178807947	-0.806622516556291	-0.144635761589404	-1.18490066225166				0.944953642384106	0.111788079470199	0.333139072847682	1.27390728476821	1.98781456953642	-0.585960264900661				-0.282172185430464	-0.113271523178808	-0.87194701986755	0.287417218543046	-0.413509933774833	-0.48026490066225				0.368529801324503	-0.128529801324503	-0.885721854304636	-0.877086092715232	1.3035761589404	0.784370860927152				0.964026490066225	0.115496688741722	0.117933774834437	-0.0482119205298018	-0.508079470198675	-1.17748344370861				0.399788079470199	-0.158834437086093	-0.852238410596026	0.0203973509933773	-0.122384105960265	-0.194701986754968			
40	900	-0.216158940397351	0.130754966887417	-0.951523178807947	-0.246622516556291	0.135364238410596	-0.624900662251656				0.944953642384106	0.111788079470199	0.317139072847682	1.55390728476821	3.66781456953642	-1.14596026490066				-0.266172185430464	-0.113271523178808	-0.88794701986755	0.287417218543046	0.146490066225167	0.0797350993377501				0.384529801324503	-0.128529801324503	-0.885721854304636	0.242913907284768	0.1835761589404	1.62437086092715				0.964026490066225	0.115496688741722	0.133933774834437	-0.328211920529802	-1.06807947019868	-1.17748344370861				0.415788079470199	-0.142834437086093	-0.852238410596026	-0.259602649006623	-0.402384105960265	0.0852980132450323			
41	920	-0.216158940397351	0.130754966887417	-0.935523178807947	0.593377483443709	0.975364238410596	-0.624900662251656				0.944953642384106	0.111788079470199	0.333139072847682	1.83390728476821	3.38781456953642	-1.70596026490066				-0.282172185430464	-0.113271523178808	-0.87194701986755	0.287417218543046	0.986490066225167	-0.20026490066225				0.384529801324503	-0.128529801324503	-0.901721854304636	-0.317086092715232	-0.6564238410596	1.06437086092715				0.948026490066225	0.115496688741722	0.133933774834437	-0.0482119205298018	-1.06807947019868	-0.897483443708608				0.415788079470199	-0.142834437086093	-0.852238410596026	-0.539602649006623	-0.682384105960265	-0.194701986754968			
42	940	-0.216158940397351	0.130754966887417	-0.935523178807947	-0.246622516556291	0.975364238410596	-1.18490066225166				0.944953642384106	0.111788079470199	0.333139072847682	0.993907284768212	1.98781456953642	-1.70596026490066				-0.266172185430464	-0.129271523178808	-0.87194701986755	0.287417218543046	0.706490066225167	-0.48026490066225				0.384529801324503	-0.144529801324503	-0.901721854304636	0.242913907284768	0.1835761589404	1.06437086092715				0.980026490066225	0.115496688741722	0.133933774834437	0.231788079470198	-0.788079470198675	-0.897483443708608				0.415788079470199	-0.142834437086093	-0.852238410596026	0.300397350993377	-0.122384105960265	0.0852980132450323			
43	1060	0	0	0	0	0	0				0	0	0	0	0	0				0	0	0	0	0	0				0.352529801324503	-0.112529801324503	-0.901721854304636	-1.71708609271523	-0.6564238410596	0.224370860927152				0.948026490066225	0.131496688741722	0.133933774834437	1.9117880794702	3.69192052980133	-1.73748344370861				0.415788079470199	-0.126834437086093	-0.852238410596026	0.580397350993377	0.437615894039735	-1.59470198675497			
44	1080	-0.216158940397351	0.130754966887417	-0.951523178807947	-0.246622516556291	0.695364238410596	-0.0649006622516557				0.944953642384106	0.127788079470199	0.333139072847682	2.11390728476821	-0.812185430463576	-0.30596026490066				-0.266172185430464	-0.113271523178808	-0.87194701986755	-0.272582781456954	0.426490066225167	-0.48026490066225				0.368529801324503	-0.112529801324503	-0.885721854304636	-1.71708609271523	0.4635761589404	-0.895629139072848				0.948026490066225	0.115496688741722	0.117933774834437	-0.888211920529802	0.891920529801325	-0.617483443708608				0.399788079470199	-0.142834437086093	-0.852238410596026	-0.259602649006623	-0.402384105960265	-1.59470198675497			
45	1100	-0.216158940397351	0.130754966887417	-0.935523178807947	-0.806622516556291	0.695364238410596	-0.624900662251656				0.944953642384106	0.127788079470199	0.317139072847682	1.27390728476821	-1.65218543046358	-0.0259602649006601				-0.266172185430464	-0.113271523178808	-0.87194701986755	0.00741721854304636	-0.413509933774833	0.35973509933775				0.352529801324503	-0.0965298013245033	-0.869721854304636	-1.71708609271523	-0.9364238410596	-1.45562913907285				0.948026490066225	0.131496688741722	0.133933774834437	-0.328211920529802	2.01192052980133	-0.897483443708608				0.415788079470199	-0.126834437086093	-0.868238410596026	1.42039735099338	-0.682384105960265	-1.31470198675497			
46	1120	-0.200158940397351	0.130754966887417	-0.951523178807947	-1.64662251655629	1.2553642384106	-0.904900662251656				0.928953642384106	0.127788079470199	0.317139072847682	0.433907284768212	-0.252185430463576	-0.0259602649006601				-0.266172185430464	-0.113271523178808	-0.87194701986755	-0.832582781456954	-0.133509933774833	0.91973509933775				0.352529801324503	-0.0965298013245033	-0.901721854304636	-0.317086092715232	0.1835761589404	-0.615629139072848				0.948026490066225	0.131496688741722	0.133933774834437	-0.888211920529802	3.13192052980133	-1.73748344370861				0.415788079470199	-0.126834437086093	-0.852238410596026	2.26039735099338	-1.52238410596026	-2.15470198675497			
47	1140	-0.200158940397351	0.130754966887417	-0.951523178807947	-0.806622516556291	0.415364238410596	-0.904900662251656				0.960953642384106	0.111788079470199	0.365139072847682	0.153907284768212	-1.37218543046358	-0.0259602649006601				-0.266172185430464	-0.113271523178808	-0.88794701986755	-1.11258278145695	0.426490066225167	0.35973509933775				0.368529801324503	-0.112529801324503	-0.901721854304636	-1.15708609271523	0.1835761589404	-0.895629139072848				0.964026490066225	0.131496688741722	0.149933774834437	1.6317880794702	2.85192052980133	-0.617483443708608				0.399788079470199	-0.142834437086093	-0.852238410596026	1.42039735099338	-0.402384105960265	-2.15470198675497			
48	1160	-0.200158940397351	0.130754966887417	-0.935523178807947	0.593377483443709	0.695364238410596	-0.624900662251656				0.960953642384106	0.111788079470199	0.349139072847682	2.95390728476821	-6.13218543046358	0.81403973509934				-0.266172185430464	-0.113271523178808	-0.85594701986755	0.00741721854304636	-1.25350993377483	0.0797350993377501				0.384529801324503	-0.128529801324503	-0.885721854304636	-1.99708609271523	-0.0964238410596001	-0.895629139072848				0.980026490066225	0.131496688741722	0.149933774834437	2.4717880794702	3.13192052980133	-0.617483443708608				0.415788079470199	-0.142834437086093	-0.852238410596026	0.860397350993377	0.437615894039735	-1.87470198675497			
49	1180	-0.200158940397351	0.130754966887417	-0.935523178807947	-0.806622516556291	-0.144635761589404	-1.74490066225166				0.944953642384106	0.127788079470199	0.301139072847682	2.95390728476821	-6.41218543046358	0.25403973509934				-0.266172185430464	-0.113271523178808	-0.87194701986755	0.00741721854304636	0.426490066225167	0.35973509933775				0.384529801324503	-0.112529801324503	-0.901721854304636	-0.597086092715232	-0.3764238410596	-0.895629139072848				0.964026490066225	0.131496688741722	0.133933774834437	0.791788079470198	1.45192052980132	-0.0574834437086077				0.415788079470199	-0.142834437086093	-0.868238410596026	0.300397350993377	0.157615894039735	-1.87470198675497			
50	1200	-0.216158940397351	0.130754966887417	-0.903523178807947	0.0333774834437086	0.415364238410596	-1.18490066225166				0.944953642384106	0.127788079470199	0.317139072847682	2.39390728476821	-4.73218543046358	0.53403973509934				-0.266172185430464	-0.113271523178808	-0.88794701986755	1.12741721854305	1.26649006622517	-0.20026490066225				0.368529801324503	-0.112529801324503	-0.901721854304636	2.20291390728477	-0.0964238410596001	-0.0556291390728476				0.964026490066225	0.131496688741722	0.149933774834437	1.0717880794702	0.891920529801325	0.502516556291392				0.431788079470199	-0.142834437086093	-0.852238410596026	1.70039735099338	-0.122384105960265	-1.31470198675497			
51	1220	-0.216158940397351	0.130754966887417	-0.967523178807947	0.313377483443709	0.415364238410596	-0.624900662251656				0.944953642384106	0.127788079470199	0.333139072847682	2.11390728476821	-3.33218543046358	1.09403973509934				-0.266172185430464	-0.113271523178808	-0.87194701986755	-0.552582781456954	0.706490066225167	-0.20026490066225				0.368529801324503	-0.112529801324503	-0.901721854304636	2.48291390728477	0.7435761589404	-0.0556291390728476				0.948026490066225	0.131496688741722	0.149933774834437	2.1917880794702	0.331920529801325	0.502516556291392				0.415788079470199	-0.142834437086093	-0.868238410596026	1.70039735099338	-0.402384105960265	-0.754701986754968			
52	1240	-0.216158940397351	0.130754966887417	-0.935523178807947	-0.246622516556291	0.415364238410596	-0.904900662251656				0.944953642384106	0.127788079470199	0.333139072847682	2.39390728476821	-3.33218543046358	1.09403973509934				-0.266172185430464	-0.0972715231788079	-0.87194701986755	-0.272582781456954	0.986490066225167	-0.20026490066225				0.384529801324503	-0.112529801324503	-0.901721854304636	1.36291390728477	-0.3764238410596	-0.615629139072848				0.948026490066225	0.131496688741722	0.149933774834437	1.3517880794702	0.891920529801325	0.222516556291392				0.415788079470199	-0.142834437086093	-0.852238410596026	1.98039735099338	-1.80238410596026	-0.754701986754968			
53	1260	-0.200158940397351	0.130754966887417	-0.935523178807947	1.15337748344371	0.975364238410596	-0.904900662251656				0.960953642384106	0.127788079470199	0.317139072847682	3.79390728476821	-4.17218543046358	0.81403973509934				-0.266172185430464	-0.113271523178808	-0.87194701986755	1.40741721854305	0.426490066225167	-0.48026490066225				0.368529801324503	-0.128529801324503	-0.885721854304636	-0.877086092715232	-0.6564238410596	-0.335629139072848				0.964026490066225	0.115496688741722	0.149933774834437	1.3517880794702	1.17192052980133	0.782516556291392				0.415788079470199	-0.142834437086093	-0.852238410596026	0.860397350993377	-1.80238410596026	-0.474701986754968			
54	1280	-0.200158940397351	0.130754966887417	-0.935523178807947	0.873377483443709	0.415364238410596	-0.344900662251656				0.944953642384106	0.111788079470199	0.317139072847682	4.35390728476821	-6.69218543046358	0.25403973509934				-0.266172185430464	-0.113271523178808	-0.87194701986755	1.40741721854305	0.706490066225167	-0.76026490066225				0.368529801324503	-0.128529801324503	-0.885721854304636	-0.317086092715232	-0.9364238410596	0.224370860927152				0.964026490066225	0.131496688741722	0.133933774834437	0.231788079470198	0.891920529801325	-0.0574834437086077				0.415788079470199	-0.142834437086093	-0.852238410596026	0.0203973509933773	-1.52238410596026	-0.474701986754968			
55	1300	-0.200158940397351	0.130754966887417	-0.935523178807947	0.313377483443709	-0.144635761589404	-0.624900662251656				0.944953642384106	0.127788079470199	0.301139072847682	2.95390728476821	-5.85218543046358	0.81403973509934				-0.266172185430464	-0.0972715231788079	-0.88794701986755	0.567417218543046	0.426490066225167	-0.76026490066225				0.368529801324503	-0.112529801324503	-0.885721854304636	1.64291390728477	-0.6564238410596	-0.335629139072848				0.964026490066225	0.115496688741722	0.133933774834437	-0.888211920529802	0.611920529801325	-0.337483443708608				0.399788079470199	-0.142834437086093	-0.852238410596026	1.42039735099338	-1.80238410596026	-1.31470198675497			
56	1320	-0.216158940397351	0.130754966887417	-0.951523178807947	0.593377483443709	0.415364238410596	-0.904900662251656				0.944953642384106	0.111788079470199	0.301139072847682	1.83390728476821	-2.49218543046358	0.81403973509934				-0.266172185430464	-0.113271523178808	-0.87194701986755	0.287417218543046	-0.133509933774833	-0.48026490066225				0.352529801324503	-0.112529801324503	-0.885721854304636	1.08291390728477	-0.3764238410596	-0.335629139072848				0.948026490066225	0.131496688741722	0.133933774834437	0.511788079470198	-0.508079470198675	0.222516556291392				0.399788079470199	-0.142834437086093	-0.836238410596026	2.26039735099338	-1.80238410596026	-0.754701986754968			
57	1340	-0.200158940397351	0.130754966887417	-0.951523178807947	0.593377483443709	0.415364238410596	-0.904900662251656				0.944953642384106	0.111788079470199	0.301139072847682	0.433907284768212	0.307814569536424	1.09403973509934				-0.266172185430464	-0.113271523178808	-0.87194701986755	1.12741721854305	0.706490066225167	-1.04026490066225				0.352529801324503	-0.112529801324503	-0.885721854304636	1.08291390728477	0.1835761589404	-0.335629139072848				0.948026490066225	0.131496688741722	0.133933774834437	-0.0482119205298018	1.45192052980132	-0.0574834437086077				0.383788079470199	-0.142834437086093	-0.852238410596026	2.26039735099338	-1.80238410596026	-0.474701986754968			
58	1360	-0.200158940397351	0.114754966887417	-0.935523178807947	0.593377483443709	-0.144635761589404	-1.18490066225166				0.960953642384106	0.111788079470199	0.333139072847682	1.27390728476821	0.587814569536424	1.65403973509934				-0.266172185430464	-0.113271523178808	-0.87194701986755	1.40741721854305	0.146490066225167	-0.76026490066225				0.368529801324503	-0.112529801324503	-0.885721854304636	1.64291390728477	1.0235761589404	-0.335629139072848				0.948026490066225	0.115496688741722	0.133933774834437	1.0717880794702	0.611920529801325	1.06251655629139				0.399788079470199	-0.126834437086093	-0.852238410596026	0.300397350993377	-1.52238410596026	0.645298013245032			
59	1380	-0.200158940397351	0.130754966887417	-0.935523178807947	0.593377483443709	-0.144635761589404	-1.74490066225166				0.960953642384106	0.111788079470199	0.333139072847682	2.39390728476821	-0.812185430463576	1.37403973509934				-0.266172185430464	-0.113271523178808	-0.88794701986755	0.847417218543046	-0.133509933774833	-1.04026490066225				0.368529801324503	-0.128529801324503	-0.885721854304636	1.36291390728477	-0.9364238410596	-0.335629139072848				0.964026490066225	0.115496688741722	0.149933774834437	0.791788079470198	0.891920529801325	0.502516556291392				0.399788079470199	-0.126834437086093	-0.868238410596026	1.70039735099338	-0.962384105960265	-1.03470198675497			
60	1400	-0.216158940397351	0.130754966887417	-0.951523178807947	0.593377483443709	0.135364238410596	-0.904900662251656				0.944953642384106	0.111788079470199	0.317139072847682	0.993907284768212	-2.49218543046358	0.53403973509934				-0.266172185430464	-0.113271523178808	-0.88794701986755	0.847417218543046	0.146490066225167	-0.20026490066225				0.368529801324503	-0.128529801324503	-0.885721854304636	1.08291390728477	-0.0964238410596001	-0.0556291390728476				0.964026490066225	0.131496688741722	0.133933774834437	-0.328211920529802	0.0519205298013249	0.782516556291392				0.399788079470199	-0.142834437086093	-0.852238410596026	2.54039735099338	-1.52238410596026	-1.03470198675497			
61	1420	-0.200158940397351	0.114754966887417	-0.951523178807947	0.873377483443709	-0.144635761589404	-0.904900662251656				0.944953642384106	0.127788079470199	0.317139072847682	0.713907284768212	-1.37218543046358	1.09403973509934				-0.266172185430464	-0.113271523178808	-0.87194701986755	0.567417218543046	0.426490066225167	0.35973509933775				0.368529801324503	-0.112529801324503	-0.885721854304636	3.60291390728477	1.3035761589404	0.224370860927152				0.948026490066225	0.131496688741722	0.149933774834437	0.791788079470198	0.611920529801325	1.34251655629139				0.399788079470199	-0.142834437086093	-0.852238410596026	1.98039735099338	-0.402384105960265	-1.03470198675497			
62	1440	-0.200158940397351	0.130754966887417	-0.951523178807947	0.593377483443709	0.135364238410596	-1.18490066225166				0.960953642384106	0.127788079470199	0.301139072847682	0.713907284768212	-2.77218543046358	1.37403973509934				-0.266172185430464	-0.113271523178808	-0.87194701986755	1.40741721854305	0.146490066225167	0.0797350993377501				0.368529801324503	-0.128529801324503	-0.901721854304636	2.48291390728477	1.3035761589404	-0.615629139072848				0.964026490066225	0.131496688741722	0.149933774834437	0.791788079470198	1.17192052980133	1.34251655629139				0.399788079470199	-0.142834437086093	-0.852238410596026	1.14039735099338	0.437615894039735	-0.194701986754968			
63	1460	-0.200158940397351	0.114754966887417	-0.951523178807947	0.313377483443709	0.135364238410596	-0.0649006622516557				0.960953642384106	0.111788079470199	0.317139072847682	1.27390728476821	-2.49218543046358	1.09403973509934				-0.266172185430464	-0.129271523178808	-0.87194701986755	0.847417218543046	-0.693509933774834	-0.20026490066225				0.384529801324503	-0.128529801324503	-0.885721854304636	0.522913907284768	0.4635761589404	-0.335629139072848				0.964026490066225	0.115496688741722	0.133933774834437	-0.0482119205298018	0.611920529801325	0.502516556291392				0.415788079470199	-0.142834437086093	-0.852238410596026	1.98039735099338	-0.122384105960265	-1.03470198675497			
64	1480	-0.200158940397351	0.114754966887417	-0.935523178807947	0.313377483443709	-0.144635761589404	-1.18490066225166				0.960953642384106	0.111788079470199	0.317139072847682	1.83390728476821	-3.05218543046358	1.93403973509934				-0.266172185430464	-0.113271523178808	-0.87194701986755	-0.272582781456954	0.146490066225167	-0.20026490066225				0.368529801324503	-0.128529801324503	-0.901721854304636	0.522913907284768	-0.0964238410596001	-0.0556291390728476				0.964026490066225	0.115496688741722	0.133933774834437	-1.1682119205298	-0.228079470198675	1.06251655629139				0.399788079470199	-0.158834437086093	-0.852238410596026	1.70039735099338	-1.52238410596026	-0.474701986754968			
65	1500	-0.200158940397351	0.130754966887417	-0.951523178807947	-0.246622516556291	0.135364238410596	-1.46490066225166				0.960953642384106	0.111788079470199	0.317139072847682	1.55390728476821	-3.33218543046358	2.21403973509934				-0.266172185430464	-0.113271523178808	-0.88794701986755	-0.272582781456954	0.426490066225167	-0.48026490066225				0.368529801324503	-0.128529801324503	-0.901721854304636	1.64291390728477	-0.3764238410596	0.784370860927152				0.964026490066225	0.115496688741722	0.133933774834437	-0.888211920529802	-0.228079470198675	1.34251655629139				0.399788079470199	-0.158834437086093	-0.852238410596026	1.14039735099338	-1.24238410596026	1.20529801324503			
66	1520	-0.216158940397351	0.114754966887417	-0.935523178807947	0.593377483443709	0.415364238410596	-0.624900662251656				0.960953642384106	0.127788079470199	0.317139072847682	0.713907284768212	-2.49218543046358	1.09403973509934				-0.266172185430464	-0.113271523178808	-0.88794701986755	-0.272582781456954	0.426490066225167	-0.20026490066225				0.368529801324503	-0.144529801324503	-0.901721854304636	1.36291390728477	-0.9364238410596	0.504370860927152				0.964026490066225	0.115496688741722	0.133933774834437	0.231788079470198	-0.228079470198675	1.34251655629139				0.399788079470199	-0.142834437086093	-0.852238410596026	0.580397350993377	-0.402384105960265	0.925298013245032			
67	1540	-0.200158940397351	0.130754966887417	-0.951523178807947	0.593377483443709	-0.424635761589404	-0.624900662251656				0.960953642384106	0.127788079470199	0.301139072847682	0.713907284768212	-3.89218543046358	1.65403973509934				-0.266172185430464	-0.113271523178808	-0.87194701986755	1.12741721854305	0.146490066225167	-0.48026490066225				0.352529801324503	-0.112529801324503	-0.901721854304636	-0.0370860927152318	-0.0964238410596001	1.34437086092715				0.964026490066225	0.115496688741722	0.149933774834437	0.231788079470198	0.611920529801325	1.06251655629139				0.399788079470199	-0.158834437086093	-0.868238410596026	1.98039735099338	-0.402384105960265	0.925298013245032			
68	1560	-0.216158940397351	0.130754966887417	-0.935523178807947	-0.526622516556291	-0.144635761589404	-0.904900662251656				0.944953642384106	0.127788079470199	0.301139072847682	0.993907284768212	-2.77218543046358	1.37403973509934				-0.266172185430464	-0.129271523178808	-0.87194701986755	0.847417218543046	0.146490066225167	-0.76026490066225				0.368529801324503	-0.128529801324503	-0.885721854304636	1.08291390728477	-0.3764238410596	0.504370860927152				0.948026490066225	0.115496688741722	0.133933774834437	-0.328211920529802	0.0519205298013249	0.782516556291392				0.399788079470199	-0.142834437086093	-0.868238410596026	1.42039735099338	-0.402384105960265	0.925298013245032			
69	1580	-0.216158940397351	0.130754966887417	-0.935523178807947	0.873377483443709	0.135364238410596	-0.624900662251656				0.944953642384106	0.111788079470199	0.317139072847682	0.713907284768212	-0.812185430463576	0.81403973509934				-0.266172185430464	-0.113271523178808	-0.87194701986755	0.287417218543046	-0.693509933774834	-0.76026490066225				0.368529801324503	-0.128529801324503	-0.885721854304636	-0.317086092715232	-0.3764238410596	0.224370860927152				0.948026490066225	0.115496688741722	0.133933774834437	0.791788079470198	0.331920529801325	0.502516556291392				0.399788079470199	-0.142834437086093	-0.852238410596026	0.860397350993377	-0.402384105960265	0.365298013245032			
70	1600	-0.200158940397351	0.130754966887417	-0.951523178807947	0.873377483443709	0.135364238410596	-0.904900662251656				0.944953642384106	0.111788079470199	0.301139072847682	1.27390728476821	-1.37218543046358	1.09403973509934				-0.266172185430464	-0.113271523178808	-0.88794701986755	-0.832582781456954	-0.133509933774833	-0.20026490066225				0.368529801324503	-0.128529801324503	-0.885721854304636	1.08291390728477	-0.6564238410596	-0.335629139072848				0.948026490066225	0.115496688741722	0.133933774834437	-0.328211920529802	-0.228079470198675	0.782516556291392				0.399788079470199	-0.158834437086093	-0.852238410596026	1.70039735099338	-1.24238410596026	-0.194701986754968			
71	1620	-0.216158940397351	0.130754966887417	-0.935523178807947	0.313377483443709	0.135364238410596	-0.904900662251656				0.944953642384106	0.0957880794701987	0.301139072847682	0.713907284768212	-1.93218543046358	1.65403973509934				-0.266172185430464	-0.113271523178808	-0.87194701986755	1.12741721854305	0.426490066225167	-0.20026490066225				0.368529801324503	-0.112529801324503	-0.885721854304636	0.522913907284768	-0.3764238410596	-1.45562913907285				0.948026490066225	0.131496688741722	0.165933774834437	1.6317880794702	3.69192052980133	0.782516556291392				0.383788079470199	-0.158834437086093	-0.868238410596026	2.54039735099338	-0.402384105960265	-0.754701986754968			
72	1640	-0.216158940397351	0.130754966887417	-0.919523178807947	-0.526622516556291	-0.144635761589404	-1.18490066225166				0.960953642384106	0.111788079470199	0.301139072847682	-0.406092715231788	-1.93218543046358	1.37403973509934				-0.266172185430464	-0.129271523178808	-0.87194701986755	0.847417218543046	0.146490066225167	-0.76026490066225				0.368529801324503	-0.128529801324503	-0.885721854304636	-0.317086092715232	-0.0964238410596001	-0.895629139072848				0.948026490066225	0.131496688741722	0.117933774834437	-0.0482119205298018	-0.228079470198675	0.502516556291392				0.383788079470199	-0.142834437086093	-0.852238410596026	0.300397350993377	-0.402384105960265	0.645298013245032			
73	1660	-0.216158940397351	0.130754966887417	-0.951523178807947	0.313377483443709	-0.144635761589404	-1.46490066225166				0.944953642384106	0.111788079470199	0.285139072847682	0.713907284768212	-1.65218543046358	1.93403973509934				-0.266172185430464	-0.129271523178808	-0.88794701986755	0.567417218543046	-0.413509933774833	-0.48026490066225				0.352529801324503	-0.128529801324503	-0.885721854304636	4.16291390728477	0.4635761589404	-0.895629139072848				0.948026490066225	0.115496688741722	0.133933774834437	-1.4482119205298	1.45192052980132	0.502516556291392				0.399788079470199	-0.142834437086093	-0.852238410596026	1.42039735099338	-0.962384105960265	-0.194701986754968			
74	1680	-0.200158940397351	0.130754966887417	-0.951523178807947	0.313377483443709	-0.144635761589404	-1.46490066225166				0.960953642384106	0.127788079470199	0.269139072847682	0.713907284768212	1.70781456953642	2.77403973509934				-0.266172185430464	-0.113271523178808	-0.87194701986755	0.00741721854304636	0.426490066225167	-0.76026490066225				0.352529801324503	-0.128529801324503	-0.885721854304636	1.64291390728477	2.7035761589404	-1.45562913907285				0.948026490066225	0.115496688741722	0.133933774834437	-1.4482119205298	4.25192052980133	0.222516556291392				0.383788079470199	-0.158834437086093	-0.852238410596026	3.10039735099338	-1.24238410596026	0.0852980132450323			
75	1700	-0.200158940397351	0.130754966887417	-0.935523178807947	-0.246622516556291	0.135364238410596	-0.904900662251656				0.944953642384106	0.111788079470199	0.317139072847682	-1.80609271523179	1.70781456953642	2.21403973509934				-0.266172185430464	-0.113271523178808	-0.87194701986755	-0.552582781456954	0.146490066225167	-0.48026490066225				0.368529801324503	-0.128529801324503	-0.885721854304636	1.36291390728477	2.7035761589404	-0.615629139072848				0.964026490066225	0.115496688741722	0.133933774834437	-0.328211920529802	3.13192052980133	0.222516556291392				0.383788079470199	-0.158834437086093	-0.852238410596026	1.98039735099338	-0.402384105960265	-0.754701986754968			
76	1720	-0.200158940397351	0.130754966887417	-0.951523178807947	0.873377483443709	-0.144635761589404	-1.18490066225166				0.960953642384106	0.111788079470199	0.317139072847682	-0.406092715231788	-1.37218543046358	1.65403973509934				-0.266172185430464	-0.113271523178808	-0.87194701986755	1.12741721854305	0.426490066225167	-0.20026490066225				0.384529801324503	-0.144529801324503	-0.901721854304636	-0.317086092715232	-0.0964238410596001	0.224370860927152				0.964026490066225	0.115496688741722	0.133933774834437	1.0717880794702	1.73192052980133	1.06251655629139				0.399788079470199	-0.142834437086093	-0.852238410596026	0.300397350993377	1.55761589403974	-0.194701986754968			
77	1740	-0.216158940397351	0.130754966887417	-0.951523178807947	0.0333774834437086	0.135364238410596	-0.904900662251656				0.960953642384106	0.111788079470199	0.301139072847682	0.153907284768212	-1.37218543046358	0.81403973509934				-0.282172185430464	-0.129271523178808	-0.87194701986755	0.00741721854304636	0.146490066225167	-0.76026490066225				0.368529801324503	-0.112529801324503	-0.901721854304636	-0.597086092715232	0.4635761589404	-0.335629139072848				0.964026490066225	0.131496688741722	0.133933774834437	-0.0482119205298018	1.73192052980133	0.502516556291392				0.399788079470199	-0.158834437086093	-0.868238410596026	1.42039735099338	0.157615894039735	-0.194701986754968			
78	1760	-0.216158940397351	0.130754966887417	-0.951523178807947	-0.246622516556291	0.695364238410596	-1.46490066225166				0.960953642384106	0.127788079470199	0.285139072847682	0.993907284768212	-0.812185430463576	1.65403973509934				-0.266172185430464	-0.129271523178808	-0.87194701986755	0.567417218543046	1.26649006622517	-0.76026490066225				0.368529801324503	-0.128529801324503	-0.901721854304636	-0.0370860927152318	1.0235761589404	-0.615629139072848				0.964026490066225	0.115496688741722	0.133933774834437	0.231788079470198	1.73192052980133	0.502516556291392				0.383788079470199	-0.158834437086093	-0.852238410596026	3.10039735099338	-0.122384105960265	0.0852980132450323			
79	1780	-0.216158940397351	0.114754966887417	-0.935523178807947	0.0333774834437086	0.415364238410596	-0.344900662251656				0.960953642384106	0.111788079470199	0.301139072847682	2.39390728476821	0.0278145695364242	2.49403973509934				-0.266172185430464	-0.113271523178808	-0.88794701986755	0.00741721854304636	0.426490066225167	-0.48026490066225				0.352529801324503	-0.128529801324503	-0.901721854304636	0.242913907284768	1.3035761589404	-0.0556291390728476				0.948026490066225	0.115496688741722	0.149933774834437	0.511788079470198	1.73192052980133	0.782516556291392				0.399788079470199	-0.174834437086093	-0.852238410596026	0.860397350993377	1.55761589403974	-0.194701986754968			
80	1800	-0.216158940397351	0.130754966887417	-0.951523178807947	-0.246622516556291	0.695364238410596	-1.46490066225166				0.960953642384106	0.111788079470199	0.301139072847682	0.153907284768212	0.587814569536424	1.37403973509934				-0.266172185430464	-0.113271523178808	-0.87194701986755	-0.272582781456954	0.146490066225167	-0.76026490066225				0.368529801324503	-0.128529801324503	-0.901721854304636	-1.15708609271523	1.5835761589404	-1.45562913907285				0.964026490066225	0.115496688741722	0.149933774834437	-0.0482119205298018	2.01192052980133	0.222516556291392				0.399788079470199	-0.174834437086093	-0.852238410596026	1.42039735099338	0.717615894039735	1.20529801324503			
81	1820	-0.216158940397351	0.130754966887417	-0.935523178807947	0.313377483443709	0.695364238410596	-1.74490066225166				0.960953642384106	0.111788079470199	0.301139072847682	0.153907284768212	-0.812185430463576	1.09403973509934				-0.266172185430464	-0.113271523178808	-0.87194701986755	0.847417218543046	0.706490066225167	-0.20026490066225				0.368529801324503	-0.128529801324503	-0.885721854304636	-1.15708609271523	1.3035761589404	-0.615629139072848				0.948026490066225	0.131496688741722	0.133933774834437	-0.328211920529802	1.73192052980133	-0.0574834437086077				0.399788079470199	-0.158834437086093	-0.852238410596026	0.300397350993377	0.717615894039735	1.20529801324503			
82	1840	-0.200158940397351	0.130754966887417	-0.935523178807947	0.593377483443709	0.695364238410596	-0.624900662251656				0.960953642384106	0.111788079470199	0.269139072847682	1.55390728476821	-0.532185430463576	1.37403973509934				-0.266172185430464	-0.0972715231788079	-0.87194701986755	0.287417218543046	2.10649006622517	-0.20026490066225				0.368529801324503	-0.128529801324503	-0.885721854304636	0.522913907284768	0.1835761589404	-0.335629139072848				0.948026490066225	0.115496688741722	0.133933774834437	-0.888211920529802	2.01192052980133	0.222516556291392				0.399788079470199	-0.158834437086093	-0.852238410596026	1.14039735099338	-0.122384105960265	1.20529801324503			
83	1860	-0.200158940397351	0.114754966887417	-0.951523178807947	-0.526622516556291	0.415364238410596	-1.18490066225166				0.944953642384106	0.111788079470199	0.285139072847682	1.55390728476821	0.587814569536424	1.37403973509934				-0.266172185430464	-0.113271523178808	-0.87194701986755	0.287417218543046	0.986490066225167	-0.20026490066225				0.368529801324503	-0.128529801324503	-0.885721854304636	-0.0370860927152318	-0.6564238410596	-0.335629139072848				0.964026490066225	0.115496688741722	0.149933774834437	0.231788079470198	4.25192052980133	-0.0574834437086077				0.383788079470199	-0.174834437086093	-0.852238410596026	2.54039735099338	-0.682384105960265	1.20529801324503			
84	1880	-0.200158940397351	0.114754966887417	-0.935523178807947	-0.246622516556291	0.695364238410596	-0.904900662251656				0.960953642384106	0.127788079470199	0.285139072847682	2.11390728476821	2.54781456953642	1.65403973509934				-0.266172185430464	-0.113271523178808	-0.87194701986755	1.12741721854305	0.426490066225167	-0.76026490066225				0.368529801324503	-0.128529801324503	-0.885721854304636	-1.43708609271523	-0.0964238410596001	-0.0556291390728476				0.964026490066225	0.115496688741722	0.149933774834437	0.231788079470198	2.01192052980133	-0.337483443708608				0.383788079470199	-0.158834437086093	-0.852238410596026	1.98039735099338	0.437615894039735	1.76529801324503			
85	1900	-0.216158940397351	0.130754966887417	-0.951523178807947	-0.526622516556291	0.415364238410596	-0.344900662251656				0.944953642384106	0.111788079470199	0.285139072847682	2.95390728476821	3.10781456953642	1.93403973509934				-0.266172185430464	-0.113271523178808	-0.87194701986755	0.847417218543046	-0.133509933774833	-0.48026490066225				0.368529801324503	-0.128529801324503	-0.885721854304636	-1.15708609271523	-0.6564238410596	0.224370860927152				0.948026490066225	0.115496688741722	0.133933774834437	-0.888211920529802	1.73192052980133	0.502516556291392				0.383788079470199	-0.158834437086093	-0.852238410596026	1.14039735099338	1.27761589403974	2.04529801324503			
86	1920	-0.200158940397351	0.130754966887417	-0.951523178807947	0.0333774834437086	0.135364238410596	-1.18490066225166				0.960953642384106	0.127788079470199	0.301139072847682	2.67390728476821	3.38781456953642	2.77403973509934				-0.266172185430464	-0.113271523178808	-0.87194701986755	1.40741721854305	0.426490066225167	-0.48026490066225				0.368529801324503	-0.112529801324503	-0.901721854304636	-1.15708609271523	0.4635761589404	-0.0556291390728476				0.948026490066225	0.131496688741722	0.149933774834437	0.791788079470198	2.29192052980133	0.782516556291392				0.383788079470199	-0.158834437086093	-0.852238410596026	0.860397350993377	0.717615894039735	2.88529801324503			
87	1940	-0.216158940397351	0.130754966887417	-0.935523178807947	-1.36662251655629	0.415364238410596	-0.344900662251656				0.976953642384106	0.127788079470199	0.285139072847682	2.39390728476821	1.14781456953642	2.21403973509934				-0.266172185430464	-0.113271523178808	-0.87194701986755	1.96741721854305	0.706490066225167	-1.32026490066225				0.352529801324503	-0.144529801324503	-0.885721854304636	-1.43708609271523	1.3035761589404	0.224370860927152				0.964026490066225	0.115496688741722	0.133933774834437	0.231788079470198	2.85192052980133	0.222516556291392				0.399788079470199	-0.158834437086093	-0.852238410596026	1.14039735099338	1.83761589403974	3.44529801324503			
88	1960	-0.216158940397351	0.130754966887417	-0.951523178807947	-1.08662251655629	0.695364238410596	-0.0649006622516557				0.992953642384106	0.111788079470199	0.285139072847682	4.35390728476821	-2.49218543046358	2.21403973509934				0	0	0	0	0	0				0.368529801324503	-0.144529801324503	-0.917721854304636	-2.55708609271523	1.5835761589404	1.62437086092715				0.980026490066225	0.115496688741722	0.149933774834437	-0.888211920529802	2.29192052980133	-0.0574834437086077				0.383788079470199	-0.174834437086093	-0.868238410596026	0.860397350993377	2.39761589403974	2.88529801324503			
89	1980	0	0	0	0	0	0				0	0	0	0	0	0				0	0	0	0	0	0				0.368529801324503	-0.128529801324503	-0.917721854304636	-1.43708609271523	2.7035761589404	1.06437086092715				0	0	0	0	0	0				0	0	0	0	0	0			
90	2080	0	0	0	0	0	0				0	0	0	0	0	0				0	0	0	0	0	0				0.288529801324503	-0.0965298013245033	-1.07772185430464	2.48291390728477	-11.0164238410596	-24.1356291390729				1.01202649006623	0.131496688741722	0.0699337748344371	-2.8482119205298	5.93192052980133	-2.29748344370861				0.383788079470199	-0.302834437086093	-0.916238410596027	-0.259602649006623	6.87761589403974	29.485298013245			
91	2100	-0.264158940397351	0.0827549668874172	-0.935523178807947	-8.92662251655629	1.5353642384106	3.85509933774834				1.00895364238411	0.0797880794701987	0.173139072847682	10.7939072847682	-37.2121854304636	10.6140397350993				-0.282172185430464	-0.129271523178808	-0.83994701986755	11.487417218543	0.146490066225167	-4.40026490066225				0.304529801324503	-0.0485298013245033	-1.02972185430464	-17.1170860927152	-11.0164238410596	-28.8956291390729				1.02802649006623	0.115496688741722	0.0699337748344371	-1.4482119205298	5.93192052980133	-2.01748344370861				0.303788079470199	-0.334834437086093	-0.900238410596026	-19.5796026490066	16.6776158940397	38.445298013245			
92	2120	-0.248158940397351	0.0827549668874172	-0.919523178807947	-10.6066225165563	2.0953642384106	4.41509933774834				0.992953642384106	0.0797880794701987	0.157139072847682	8.55390728476821	-32.1721854304636	6.41403973509934				-0.298172185430464	-0.145271523178808	-0.87194701986755	10.927417218543	-0.973509933774833	-5.80026490066225				0.320529801324503	-0.0805298013245033	-0.981721854304636	-18.5170860927152	-21.6564238410596	-35.6156291390729				1.01202649006623	0.0834966887417219	0.0699337748344371	-5.3682119205298	1.17192052980133	-0.617483443708608				0.303788079470199	-0.238834437086093	-0.852238410596026	-30.7796026490066	15.5576158940397	44.045298013245			
93	2140	-0.232158940397351	0.114754966887417	-0.919523178807947	-12.2866225165563	2.3753642384106	5.53509933774834				1.00895364238411	0.111788079470199	0.125139072847682	7.71390728476821	-27.4121854304636	7.53403973509934				-0.298172185430464	-0.113271523178808	-0.88794701986755	13.167417218543	1.26649006622517	-5.52026490066225				0.320529801324503	-0.0965298013245033	-0.949721854304636	-20.1970860927152	-30.0564238410596	-45.1356291390729				0.980026490066225	0.0834966887417219	0.0219337748344371	-8.4482119205298	-4.14807947019868	0.222516556291392				0.367788079470199	-0.158834437086093	-0.916238410596027	-31.6196026490066	10.5176158940397	59.165298013245			
94	2160	-0.248158940397351	0.130754966887417	-0.935523178807947	-12.8466225165563	2.6553642384106	7.49509933774834				0.976953642384106	0.175788079470199	0.0771390728476822	4.35390728476821	-32.4521854304636	6.97403973509934				-0.298172185430464	-0.113271523178808	-0.88794701986755	14.847417218543	1.82649006622517	-5.80026490066225				0.304529801324503	-0.160529801324503	-0.933721854304636	-25.7970860927152	-37.8964238410596	-46.5356291390729				1.01202649006623	0.147496688741722	0.00593377483443711	-8.4482119205298	-9.18807947019868	-0.0574834437086077				0.287788079470199	-0.142834437086093	-0.948238410596026	-11.4596026490066	-0.682384105960265	71.765298013245			
95	2180	-0.264158940397351	0.130754966887417	-0.935523178807947	-13.6866225165563	3.4953642384106	9.73509933774834				0.928953642384106	0.191788079470199	0.0291390728476822	-0.126092715231788	-22.0921854304636	6.41403973509934				-0.282172185430464	-0.145271523178808	-0.87194701986755	17.927417218543	2.66649006622517	-5.80026490066225				0.224529801324503	-0.160529801324503	-0.949721854304636	-22.1570860927152	-32.5764238410596	-45.1356291390729				1.01202649006623	0.179496688741722	-0.0100662251655629	-7.3282119205298	-12.2680794701987	1.06251655629139				0.319788079470199	-0.110834437086093	-0.964238410596026	-8.37960264900662	-4.88238410596027	70.645298013245			
96	2200	-0.232158940397351	0.130754966887417	-0.919523178807947	-14.8066225165563	4.8953642384106	10.8550993377483				0.976953642384106	0.159788079470199	0.0451390728476822	7.71390728476821	-1.09218543046358	12.8540397350993				-0.266172185430464	-0.145271523178808	-0.85594701986755	18.2074172185431	1.82649006622517	-4.96026490066225				0.208529801324503	-0.128529801324503	-0.917721854304636	-10.3970860927152	-23.3364238410596	-39.8156291390729				1.01202649006623	0.163496688741722	-0.0260662251655629	-1.4482119205298	-6.38807947019868	2.18251655629139				0.303788079470199	-0.0948344370860927	-0.980238410596026	7.30039735099338	-9.36238410596027	68.405298013245			
97	2220	-0.232158940397351	0.146754966887417	-0.919523178807947	-17.3266225165563	3.2153642384106	12.2550993377483				1.00895364238411	0.143788079470199	0.0451390728476822	13.5939072847682	-1.37218543046358	16.2140397350993				-0.282172185430464	-0.129271523178808	-0.85594701986755	21.567417218543	2.10649006622517	-4.96026490066225				0.240529801324503	-0.0965298013245033	-0.901721854304636	7.80291390728477	-11.5764238410596	-33.3756291390728				1.01202649006623	0.131496688741722	-0.0100662251655629	7.2317880794702	-6.66807947019868	2.46251655629139				0.255788079470199	-0.126834437086093	-0.932238410596026	14.0203973509934	-11.6023841059603	68.125298013245			
98	2240	-0.248158940397351	0.194754966887417	-0.935523178807947	-18.4466225165563	4.6153642384106	15.3350993377483				0.944953642384106	0.143788079470199	0.0611390728476822	5.75390728476821	-1.37218543046358	11.4540397350993				-0.298172185430464	-0.145271523178808	-0.85594701986755	23.247417218543	2.10649006622517	-4.40026490066225				0.352529801324503	-0.112529801324503	-0.885721854304636	16.4829139072848	-9.0564238410596	-26.0956291390729				1.01202649006623	0.115496688741722	0.0539337748344371	6.9517880794702	-10.0280794701987	1.62251655629139				0.239788079470199	-0.142834437086093	-0.916238410596027	7.30039735099338	-0.122384105960265	69.805298013245			
99	2260	-0.216158940397351	0.194754966887417	-0.935523178807947	-15.0866225165563	5.1753642384106	16.4550993377483				0.944953642384106	0.127788079470199	0.0931390728476822	1.27390728476821	7.86781456953642	12.8540397350993				-0.298172185430464	-0.177271523178808	-0.90394701986755	22.967417218543	2.66649006622517	-3.56026490066225				0.384529801324503	-0.144529801324503	-0.917721854304636	12.5629139072848	-11.8564238410596	-18.2556291390728				0.964026490066225	0.147496688741722	0.0379337748344371	6.9517880794702	-16.7480794701987	2.74251655629139				0.239788079470199	-0.158834437086093	-0.900238410596026	0.860397350993377	6.87761589403974	68.685298013245			
100	2280	-0.216158940397351	0.194754966887417	-0.951523178807947	-14.8066225165563	6.0153642384106	15.6150993377483				0.992953642384106	0.0957880794701987	0.109139072847682	1.83390728476821	8.98781456953643	15.6540397350993				-0.282172185430464	-0.193271523178808	-0.88794701986755	22.127417218543	4.34649006622517	-4.12026490066225				0.416529801324503	-0.128529801324503	-0.965721854304636	8.36291390728477	-14.9364238410596	-14.6156291390728				0.964026490066225	0.163496688741722	0.0699337748344371	17.3117880794702	-19.5480794701987	3.02251655629139				0.223788079470199	-0.190834437086093	-0.868238410596026	-3.33960264900662	4.63761589403974	66.165298013245			
101	2300	-0.200158940397351	0.258754966887417	-0.935523178807947	-13.6866225165563	7.4153642384106	12.8150993377483				0.960953642384106	0.111788079470199	0.109139072847682	-0.126092715231788	11.7878145695364	14.2540397350993				-0.298172185430464	-0.193271523178808	-0.87194701986755	26.3274172185431	5.18649006622517	-5.80026490066225				0.400529801324503	-0.0965298013245033	-0.949721854304636	5.00291390728477	-14.3764238410596	-17.4156291390728				0.996026490066225	0.115496688741722	0.0699337748344371	27.3917880794702	-22.0680794701987	3.02251655629139				0.207788079470199	-0.190834437086093	-0.836238410596026	-14.2596026490066	6.31761589403974	67.565298013245			
102	2320	-0.152158940397351	0.290754966887417	-0.935523178807947	-10.8866225165563	8.8153642384106	10.8550993377483				0.976953642384106	0.175788079470199	0.109139072847682	10.7939072847682	18.7878145695364	14.5340397350993				-0.298172185430464	-0.177271523178808	-0.85594701986755	26.607417218543	5.46649006622517	-5.52026490066225				0.288529801324503	-0.0805298013245033	-0.965721854304636	4.44291390728477	-13.8164238410596	-24.9756291390729				1.01202649006623	0.115496688741722	0.0699337748344371	30.7517880794702	-26.5480794701987	1.90251655629139				0.239788079470199	-0.174834437086093	-0.820238410596026	-25.4596026490066	16.3976158940397	63.085298013245			
103	2340	-0.200158940397351	0.274754966887417	-0.935523178807947	-12.5666225165563	7.1353642384106	9.73509933774834				1.02495364238411	0.0957880794701987	0.109139072847682	25.9139072847682	9.26781456953642	14.8140397350993				-0.362172185430464	-0.177271523178808	-0.87194701986755	25.767417218543	5.46649006622517	-4.96026490066225				0.256529801324503	-0.0325298013245033	-0.933721854304636	7.80291390728477	-9.6164238410596	-31.9756291390729				1.01202649006623	0.0994966887417219	0.0539337748344371	38.0317880794702	-29.6280794701987	-1.17748344370861				0.303788079470199	-0.126834437086093	-0.868238410596026	-20.6996026490066	20.0376158940397	51.885298013245			
104	2360	-0.280158940397351	0.274754966887417	-0.919523178807947	-16.2066225165563	7.9753642384106	9.17509933774834				0.864953642384106	0.0157880794701987	0.205139072847682	18.6339072847682	19.3478145695364	8.37403973509934				-0.346172185430464	-0.209271523178808	-0.85594701986755	28.287417218543	7.14649006622517	-6.92026490066225				0.160529801324503	-0.112529801324503	-0.933721854304636	27.6829139072848	1.3035761589404	-37.2956291390729				0.980026490066225	0.00349668874172187	0.0379337748344371	41.6717880794702	-31.3080794701987	-5.09748344370861				0.335788079470199	-0.142834437086093	-0.900238410596026	3.94039735099338	16.6776158940397	42.365298013245			
105	2380	-0.232158940397351	0.258754966887417	-0.919523178807947	-18.1666225165563	12.4553642384106	7.49509933774834				0.880953642384106	0.0157880794701987	0.333139072847682	10.7939072847682	41.7478145695364	9.49403973509934				-0.282172185430464	-0.209271523178808	-0.87194701986755	30.247417218543	8.82649006622517	-5.52026490066225				0.0165298013245033	-0.224529801324503	-0.901721854304636	30.2029139072848	1.3035761589404	-32.8156291390729				0.948026490066225	-0.0285033112582781	0.0379337748344371	37.4717880794702	-26.8280794701987	-8.45748344370861				0.415788079470199	-0.206834437086093	-0.900238410596026	14.0203973509934	9.95761589403974	33.965298013245			
106	2400	-0.216158940397351	0.242754966887417	-0.935523178807947	-8.08662251655629	7.4153642384106	5.53509933774834				0.976953642384106	-0.0322119205298013	0.365139072847682	19.1939072847682	44.5478145695364	14.2540397350993				-0.266172185430464	-0.257271523178808	-0.91994701986755	25.2074172185431	14.1464900662252	-6.08026490066225				-0.0634701986754967	-0.224529801324503	-0.885721854304636	27.4029139072848	5.2235761589404	-27.7756291390729				0.884026490066225	0.00349668874172187	-0.0260662251655629	18.9917880794702	-26.2680794701987	-11.5374834437086				0.431788079470199	-0.318834437086093	-0.884238410596026	22.7003973509934	7.43761589403974	31.725298013245			
107	2420	-0.248158940397351	0.290754966887417	-1.09552317880795	-14.8066225165563	4.0553642384106	5.25509933774834				0.960953642384106	0.0317880794701987	0.397139072847682	13.5939072847682	45.9478145695364	7.53403973509934				-0.234172185430464	-0.321271523178808	-0.90394701986755	29.1274172185431	10.7864900662252	-9.72026490066225				-0.0954701986754967	-0.144529801324503	-0.853721854304636	30.7629139072848	18.9435761589404	-25.2556291390729				0.820026490066225	0.0834966887417219	0.0219337748344371	1.6317880794702	-17.3080794701987	-8.17748344370861				0.447788079470199	-0.414834437086093	-0.884238410596026	23.5403973509934	9.11761589403974	37.045298013245			
108	2440	-0.168158940397351	0.258754966887417	-1.04752317880795	-42.8066225165563	30.3753642384106	6.65509933774834				0.880953642384106	0.0157880794701987	0.381139072847682	17.2339072847682	42.5878145695364	3.89403973509934				-0.250172185430464	-0.257271523178808	-0.90394701986755	32.2074172185431	6.30649006622517	-12.2402649006623				0.0645298013245033	-0.0645298013245033	-0.885721854304636	55.9629139072848	27.3435761589404	-17.1356291390729				0.852026490066225	0.179496688741722	0.0539337748344371	-0.328211920529802	0.611920529801325	-3.13748344370861				0.463788079470199	-0.430834437086093	-0.868238410596026	1.14039735099338	11.6376158940397	51.045298013245			
109	2460	-0.104158940397351	0.146754966887417	-0.983523178807947	-19.0066225165563	25.8953642384106	7.21509933774835				0.976953642384106	-0.160211920529801	0.397139072847682	18.0739072847682	51.5478145695364	8.65403973509934				-0.250172185430464	-0.257271523178808	-0.83994701986755	18.487417218543	1.26649006622517	-12.5202649006623				0.416529801324503	-0.112529801324503	-0.965721854304636	71.6429139072848	15.8635761589404	-5.09562913907285				0.996026490066225	0.211496688741722	0.0859337748344371	8.9117880794702	16.0119205298013	2.74251655629139				0.431788079470199	-0.350834437086093	-0.884238410596026	-28.5396026490066	8.55761589403974	65.045298013245			
110	2480	-0.168158940397351	0.194754966887417	-1.07952317880795	-29.0866225165563	28.1353642384106	12.5350993377483				1.02495364238411	-0.128211920529801	0.365139072847682	-14.4060927152318	44.5478145695364	4.17403973509934				-0.282172185430464	-0.337271523178808	-0.96794701986755	20.1674172185431	2.38649006622517	-15.6002649006622				0.528529801324503	-0.272529801324503	-1.09372185430464	48.1229139072848	3.5435761589404	3.02437086092715				1.04402649006623	0.0994966887417219	0.117933774834437	18.7117880794702	20.2119205298013	12.8225165562914				0.399788079470199	-0.286834437086093	-0.916238410596027	-49.5396026490066	19.1976158940397	65.885298013245			
111	2500	-0.200158940397351	0.258754966887417	-0.935523178807947	-32.4466225165563	32.3353642384106	15.3350993377483				1.00895364238411	0.0477880794701987	0.589139072847682	-30.6460927152318	29.7078145695364	-1.14596026490066				-0.234172185430464	-0.385271523178808	-0.87194701986755	25.4874172185431	11.6264900662252	-16.1602649006623				0.464529801324503	-0.288529801324503	-1.14172185430464	-14.3170860927152	-12.9764238410596	11.1443708609272				1.06002649006623	0.0994966887417219	0.197933774834437	14.5117880794702	28.8919205298013	15.3425165562914				0.479788079470199	-0.270834437086093	-0.900238410596026	-22.9396026490066	30.3976158940397	50.205298013245			
112	2520	-0.152158940397351	0.370754966887417	-0.871523178807947	-30.2066225165563	35.4153642384106	15.0550993377483				1.07295364238411	0.239788079470199	0.669139072847682	-7.96609271523179	10.3878145695364	-5.34596026490066				-0.186172185430464	-0.401271523178808	-0.91994701986755	4.20741721854305	16.1064900662252	-9.44026490066225				0.336529801324503	-0.256529801324503	-1.09372185430464	-25.7970860927152	8.3035761589404	13.9443708609272				1.04402649006623	0.0994966887417219	0.261933774834437	-5.9282119205298	26.0919205298013	7.78251655629139				0.543788079470199	-0.334834437086093	-0.852238410596026	28.0203973509934	34.0376158940397	32.005298013245			
113	2540	-0.088158940397351	0.402754966887417	-1.09552317880795	-21.8066225165563	29.8153642384106	19.8150993377483				1.13695364238411	0.0317880794701987	0.653139072847682	25.0739072847682	30.5478145695364	5.01403973509934				-0.266172185430464	-0.433271523178808	-0.99994701986755	2.80741721854305	26.4664900662252	-8.88026490066225				0.224529801324503	-0.176529801324503	-1.01372185430464	-25.7970860927152	36.3035761589404	6.38437086092715				1.04402649006623	0.163496688741722	0.325933774834437	-20.7682119205298	37.2919205298013	-2.29748344370861				0.543788079470199	-0.494834437086093	-0.836238410596026	62.7403973509934	24.2376158940397	22.765298013245			
114	2560	-0.088158940397351	0.258754966887417	-1.03152317880795	-10.6066225165563	35.9753642384106	19.2550993377483				1.08895364238411	-0.144211920529801	0.781139072847682	0.433907284768212	33.9078145695364	5.57403973509934				-0.202172185430464	-0.497271523178808	-0.88794701986755	-3.63258278145695	39.3464900662252	-3.84026490066225				0.192529801324503	-0.112529801324503	-0.885721854304636	-24.3970860927152	51.7035761589404	6.66437086092715				0.980026490066225	0.179496688741722	0.293933774834437	-21.8882119205298	51.2919205298013	-2.85748344370861				0.511788079470199	-0.638834437086093	-0.788238410596027	51.8203973509934	18.9176158940397	28.925298013245			
115	2580	0.023841059602649	0.274754966887417	-0.999523178807947	-11.1666225165563	38.2153642384106	16.4550993377483				1.02495364238411	-0.0642119205298013	0.733139072847682	-42.9660927152318	28.3078145695364	0.53403973509934				-0.0261721854304636	-0.513271523178808	-0.87194701986755	-22.952582781457	43.2664900662252	-1.32026490066225				0.224529801324503	-0.0645298013245033	-0.821721854304636	-35.0370860927152	69.3435761589404	10.3043708609272				0.996026490066225	0.131496688741722	0.357933774834437	-10.4082119205298	69.7719205298013	-2.29748344370861				0.511788079470199	-0.590834437086093	-0.756238410596026	15.4203973509934	25.0776158940397	35.085298013245			
116	2600	0.055841059602649	0.274754966887417	-1.03152317880795	0.313377483443709	45.4953642384106	14.4950993377483				1.23295364238411	0.127788079470199	0.605139072847682	-29.2460927152318	24.3878145695364	5.29403973509934				-0.138172185430464	-0.401271523178808	-1.04794701986755	-32.472582781457	48.8664900662252	-5.52026490066225				0.432529801324503	0.0314701986754967	-0.901721854304636	-10.3970860927152	106.86357615894	21.5043708609272				1.18802649006623	0.0994966887417219	0.453933774834437	-28.3282119205298	80.1319205298013	-5.37748344370861				0.559788079470199	-0.478834437086093	-0.772238410596026	10.1003973509934	36.2776158940397	30.605298013245			
117	2620	-0.008158940397351	0.274754966887417	-1.03152317880795	-1.64662251655629	55.2953642384106	12.2550993377483				1.15295364238411	0.0317880794701987	0.541139072847682	-5.44609271523179	0.307814569536424	6.13403973509934				-0.0901721854304636	-0.209271523178808	-1.03194701986755	-30.792582781457	57.5464900662252	-9.44026490066225				0.704529801324503	0.0314701986754967	-0.901721854304636	26.5629139072848	128.42357615894	26.2643708609272				1.26802649006623	0.179496688741722	0.421933774834437	-48.7682119205298	61.0919205298013	-9.01748344370861				0.655788079470199	-0.478834437086093	-0.772238410596026	33.0603973509934	41.3176158940397	12.125298013245			
118	2640	0.167841059602649	0.322754966887417	-1.03152317880795	-1.64662251655629	65.6553642384106	17.0150993377483				1.23295364238411	0.0317880794701987	0.509139072847682	-7.68609271523179	20.1878145695364	9.77403973509934				-0.0101721854304636	-0.177271523178808	-1.03194701986755	-25.752582781457	64.2664900662252	-14.4802649006623				1.0245298013245	-0.0325298013245033	-1.09372185430464	25.4429139072848	103.78357615894	17.8643708609272				1.26802649006623	0.259496688741722	0.341933774834437	-52.4082119205298	50.4519205298013	-7.89748344370861				0.639788079470199	-0.526834437086093	-0.788238410596027	53.5003973509934	53.6376158940397	-2.43470198675497			
119	2660	0.119841059602649	0.338754966887417	-1.06352317880795	10.1133774834437	71.2553642384106	21.2150993377483				1.18495364238411	0.0157880794701987	0.477139072847682	-17.2060927152318	4.22781456953642	18.4540397350993				-0.0421721854304636	-0.129271523178808	-1.06394701986755	-7.83258278145695	71.2664900662252	-20.0802649006623				1.0405298013245	-0.192529801324503	-1.18972185430464	-1.43708609271523	72.9835761589404	11.7043708609272				1.30002649006623	0.259496688741722	0.325933774834437	-32.8082119205298	41.7719205298013	-1.45748344370861				0.543788079470199	-0.510834437086093	-0.804238410596027	41.4603973509934	76.8776158940397	-12.234701986755			
120	2680	-0.040158940397351	0.322754966887417	-1.09552317880795	9.27337748344371	76.5753642384106	20.9350993377483				1.21695364238411	0.127788079470199	0.365139072847682	-22.5260927152318	2.54781456953642	8.09403973509934				0.0218278145695364	-0.273271523178808	-1.09594701986755	1.40741721854305	76.3064900662252	-27.3602649006623				0.992529801324503	-0.304529801324503	-1.14172185430464	-14.5970860927152	63.7435761589404	19.5443708609272				1.30002649006623	0.179496688741722	0.421933774834437	-14.3282119205298	35.6119205298013	1.06251655629139				0.511788079470199	-0.478834437086093	-0.836238410596026	31.6603973509934	102.91761589404	-25.114701986755			
121	2700	0.023841059602649	0.466754966887417	-1.09552317880795	4.51337748344371	84.9753642384106	20.9350993377483				1.37695364238411	0.0957880794701987	0.397139072847682	-6.56609271523179	-1.09218543046358	6.69403973509934				-0.0101721854304636	-0.369271523178808	-0.99994701986755	2.24741721854305	86.3864900662252	-27.3602649006623				0.896529801324503	-0.352529801324503	-1.15772185430464	-23.8370860927152	67.6635761589404	17.3043708609272				1.34802649006623	0.131496688741722	0.469933774834437	-12.9282119205298	33.0919205298013	-6.21748344370861				0.559788079470199	-0.526834437086093	-0.916238410596027	36.7003973509934	102.91761589404	-32.954701986755			
122	2720	0.023841059602649	0.482754966887417	-1.03152317880795	7.31337748344371	95.6153642384106	26.8150993377483				1.40895364238411	0.0957880794701987	0.557139072847682	8.55390728476821	-1.37218543046358	10.0540397350993				-0.0741721854304636	-0.369271523178808	-1.09594701986755	1.68741721854305	96.4664900662252	-20.9202649006623				0.816529801324503	-0.304529801324503	-1.18972185430464	-39.2370860927152	75.5035761589404	22.0643708609272				1.41202649006623	0.115496688741722	0.357933774834437	-23.5682119205298	28.6119205298013	-12.9374834437086				0.671788079470199	-0.702834437086093	-0.980238410596026	39.2203973509934	103.19761589404	-32.674701986755			
123	2740	-0.040158940397351	0.498754966887417	-1.03152317880795	23.5533774834437	107.375364238411	29.8950993377483				1.48895364238411	0.0317880794701987	0.685139072847682	-10.2060927152318	2.82781456953642	9.77403973509934				-0.0901721854304636	-0.433271523178808	-1.07994701986755	-8.11258278145695	111.866490066225	-14.2002649006623				0.800529801324503	-0.224529801324503	-1.12572185430464	-37.5570860927152	80.2635761589404	21.2243708609272				1.42802649006623	0.163496688741722	0.357933774834437	-22.4482119205298	26.3719205298013	-16.5774834437086				0.735788079470199	-0.670834437086093	-0.884238410596026	-6.97960264900662	120.55761589404	-25.674701986755			
124	2760	-0.024158940397351	0.402754966887417	-1.01552317880795	48.4733774834437	121.375364238411	29.0550993377483				1.26495364238411	0.111788079470199	0.557139072847682	-16.3660927152318	-26.2921854304636	-0.30596026490066				0.00582781456953642	-0.433271523178808	-0.95194701986755	-30.512582781457	124.466490066225	-5.80026490066225				0.768529801324503	-0.208529801324503	-1.04572185430464	-17.1170860927152	89.5035761589404	20.6643708609272				1.33202649006623	0.131496688741722	0.325933774834437	-16.8482119205298	21.0519205298013	-18.8174834437086				0.815788079470199	-0.526834437086093	-0.852238410596026	-33.5796026490066	149.11761589404	-31.834701986755			
125	2780	0.183841059602649	0.194754966887417	-0.951523178807947	47.6333774834437	133.415364238411	28.7750993377483				1.34495364238411	0.159788079470199	0.157139072847682	-11.3260927152318	-32.7321854304636	-8.14596026490066				0.133827814569536	-0.177271523178808	-0.93594701986755	-46.752582781457	130.626490066225	-1.32026490066225				0.784529801324503	-0.256529801324503	-0.981721854304636	-12.0770860927152	94.5435761589404	25.7043708609272				1.26802649006623	0.131496688741722	0.357933774834437	-18.2482119205298	19.6519205298013	-21.6174834437086				1.0397880794702	-0.462834437086093	-0.820238410596026	-18.7396026490066	152.19761589404	-48.074701986755			
126	2800	0.231841059602649	0.194754966887417	-0.999523178807947	33.0733774834437	132.295364238411	33.5350993377483				1.48895364238411	0.0157880794701987	0.205139072847682	8.27390728476821	-12.8521854304636	-3.94596026490066				0.0858278145695364	0.0307284768211921	-1.01594701986755	-30.232582781457	133.426490066225	-2.44026490066225				0.816529801324503	-0.288529801324503	-0.885721854304636	-28.5970860927152	86.4235761589404	34.1043708609272				1.31602649006623	0.115496688741722	0.325933774834437	-15.7282119205298	18.2519205298013	-18.8174834437086				1.1677880794702	-0.446834437086093	-0.820238410596026	-0.259602649006623	131.19761589404	-63.754701986755			
127	2820	0.151841059602649	0.226754966887417	-0.919523178807947	28.5933774834437	135.095364238411	36.0550993377484				1.31295364238411	0.0797880794701987	0.381139072847682	8.27390728476821	-30.2121854304636	-8.14596026490066				0.0698278145695364	0.0147284768211921	-0.98394701986755	-5.31258278145695	136.506490066225	-3.84026490066225				0.784529801324503	-0.192529801324503	-0.901721854304636	-21.0370860927152	90.3435761589404	44.7443708609272				1.25202649006623	0.163496688741722	0.309933774834437	-30.0082119205298	10.1319205298013	-21.0574834437086				1.0717880794702	-0.462834437086093	-0.836238410596026	12.9003973509934	101.23761589404	-76.914701986755			
128	2840	0.311841059602649	0.178754966887417	-0.903523178807947	28.3133774834437	142.375364238411	37.7350993377484				1.10495364238411	0.0477880794701987	0.221139072847682	2.67390728476821	-41.4121854304636	-3.38596026490066				0.149827814569536	-0.129271523178808	-0.91994701986755	-6.43258278145695	141.826490066225	-6.08026490066225				0.688529801324503	-0.160529801324503	-0.837721854304636	-23.2770860927152	95.9435761589404	47.5443708609272				1.12402649006623	0.211496688741722	0.213933774834437	-36.7282119205298	-10.5880794701987	-21.8974834437086				0.847788079470199	-0.334834437086093	-0.788238410596027	-6.97960264900662	89.7576158940397	-86.434701986755			
129	2860	0.151841059602649	0.0667549668874172	-0.935523178807947	15.9933774834437	144.615364238411	40.2550993377484				1.15295364238411	0.0477880794701987	-0.0508609271523178	-12.1660927152318	-37.4921854304636	-11.2259602649007				0.181827814569536	-0.0812715231788079	-0.85594701986755	-22.672582781457	146.306490066225	-16.4402649006623				0.656529801324503	-0.112529801324503	-0.837721854304636	-15.4370860927152	79.7035761589404	52.8643708609272				1.12402649006623	0.115496688741722	0.133933774834437	-24.9682119205298	-14.2280794701987	-17.9774834437086				0.847788079470199	-0.222834437086093	-0.820238410596026	-30.2196026490066	81.9176158940397	-85.594701986755			
130	2880	0.263841059602649	0.0667549668874172	-0.839523178807947	-3.88662251655629	148.535364238411	47.8150993377484				1.13695364238411	0.0317880794701987	-0.00286092715231785	-37.3660927152318	-39.7321854304636	-15.1459602649007				0.0858278145695364	-0.0172715231788079	-0.80794701986755	-32.752582781457	148.266490066225	-19.2402649006623				0.736529801324503	-0.208529801324503	-0.741721854304636	-10.9570860927152	62.6235761589404	53.4243708609272				1.06002649006623	0.115496688741722	0.117933774834437	-24.6882119205298	-20.9480794701987	-14.8974834437086				0.847788079470199	-0.238834437086093	-0.884238410596026	-29.6596026490066	63.9976158940397	-77.474701986755			
131	2900	0.231841059602649	0.210754966887417	-0.775523178807947	-12.8466225165563	150.495364238411	46.9750993377484				0.992953642384106	0.111788079470199	-0.0668609271523178	-14.9660927152318	-43.0921854304636	-7.02596026490066				0.133827814569536	-0.0652715231788079	-0.80794701986755	-23.232582781457	153.866490066225	-13.3602649006623				0.656529801324503	-0.336529801324503	-0.581721854304636	-20.4770860927152	46.3835761589404	38.3043708609272				0.964026490066225	0.163496688741722	0.0539337748344371	-28.6082119205298	-25.9880794701987	-9.57748344370861				0.783788079470199	-0.222834437086093	-0.884238410596026	-28.2596026490066	34.3176158940397	-66.834701986755			
132	2920	0.359841059602649	0.194754966887417	-0.743523178807947	13.7533774834437	156.935364238411	43.3350993377484				0.896953642384106	0.0797880794701987	-0.114860927152318	14.4339072847682	-44.7721854304636	-13.4659602649007				0.229827814569536	-0.161271523178808	-0.79194701986755	-19.032582781457	157.226490066225	-6.36026490066225				0.656529801324503	-0.0485298013245033	-0.741721854304636	-64.9970860927152	12.5035761589404	18.1443708609272				0.964026490066225	0.147496688741722	0.0219337748344371	-13.7682119205298	-23.4680794701987	-5.65748344370861				0.671788079470199	-0.158834437086093	-0.788238410596027	-43.3796026490066	19.4776158940397	-53.394701986755			
133	2940	0.407841059602649	0.178754966887417	-0.711523178807947	15.1533774834437	159.455364238411	43.0550993377484				0.944953642384106	0.0637880794701987	-0.0508609271523178	-7.12609271523179	-25.1721854304636	-27.4659602649007				0.309827814569536	-0.177271523178808	-0.77594701986755	-34.432582781457	155.826490066225	0.0797350993377501				0.656529801324503	-0.0485298013245033	-0.565721854304636	-8.15708609271523	29.8635761589404	33.5443708609272				0.900026490066225	0.0994966887417219	0.0379337748344371	-8.1682119205298	-33.2680794701987	-5.93748344370861				0.575788079470199	-0.158834437086093	-0.724238410596026	-52.3396026490066	8.27761589403974	-40.514701986755			
134	2960	0.455841059602649	0.0667549668874172	-0.647523178807947	5.91337748344371	162.815364238411	43.8950993377483				0.832953642384106	0.111788079470199	0.0611390728476822	-26.1660927152318	-29.0921854304636	-17.9459602649007				0.309827814569536	-0.0812715231788079	-0.63194701986755	-36.672582781457	156.106490066225	2.87973509933775				0.608529801324503	-0.0805298013245033	-0.565721854304636	27.4029139072848	23.7035761589404	17.5843708609272				0.804026490066225	0.163496688741722	0.0219337748344371	-11.2482119205298	-45.5880794701987	-3.69748344370861				0.479788079470199	-0.158834437086093	-0.660238410596027	-51.7796026490066	-4.32238410596027	-28.474701986755			
135	2980	0.519841059602649	0.146754966887417	-0.535523178807947	19.3533774834437	167.295364238411	39.4150993377484				0.880953642384106	0.0637880794701987	-0.0828609271523179	-9.64609271523179	-53.7321854304636	-16.2659602649007				0.357827814569536	-0.0652715231788079	-0.61594701986755	-36.112582781457	164.226490066225	-4.68026490066225				0	0	0	0	0	0				0	0	0	0	0	0				0	0	0	0	0	0			
136	3000	0.615841059602649	0.0667549668874172	-0.487523178807947	22.4333774834437	175.135364238411	31.8550993377483				0	0	0	0	0	0				0	0	0	0	0	0				0	0	0	0	0	0				0	0	0	0	0	0				0	0	0	0	0	0			
137	3100	0	0	0	0	0	0				0.480953642384106	0.111788079470199	0.0291390728476822	59.7939072847682	-11.1721854304636	-15.7059602649007				0.677827814569536	-0.225271523178808	-0.27994701986755	-9.51258278145695	139.586490066225	-6.64026490066225				0.240529801324503	0.0634701986754967	-0.325721854304636	-14.0370860927152	-138.97642384106	-40.0956291390729				0.564026490066225	0.0994966887417219	0.0859337748344371	31.8717880794702	-39.4280794701987	-1.73748344370861				0.559788079470199	0.177165562913907	-0.452238410596026	-35.8196026490066	-45.7623841059603	-43.034701986755			
138	3120	0.887841059602649	0.210754966887417	-0.199523178807947	33.6333774834437	170.935364238411	11.4150993377483				0.592953642384106	0.0157880794701987	0.205139072847682	31.5139072847682	-0.532185430463576	-12.9059602649007				0.677827814569536	-0.177271523178808	-0.24794701986755	-7.55258278145695	137.626490066225	-2.72026490066225				0.240529801324503	0.0634701986754967	-0.389721854304636	29.6429139072848	-125.81642384106	-26.0956291390729				0.708026490066225	0.115496688741722	0.133933774834437	30.7517880794702	-45.3080794701987	1.62251655629139				0.719788079470199	0.0171655629139073	-0.452238410596026	9.82039735099338	-58.6423841059603	-57.314701986755			
139	3140	0.983841059602649	0.258754966887417	-0.327523178807947	51.5533774834437	149.375364238411	-0.624900662251656				0.608953642384106	0.0477880794701987	0.189139072847682	15.5539072847682	-14.8121854304636	-17.1059602649007				0.741827814569536	-0.177271523178808	-0.23194701986755	-26.592582781457	138.186490066225	-1.04026490066225				0.288529801324503	0.0314701986754967	-0.469721854304636	65.7629139072848	-96.6964238410596	-21.8956291390728				0.596026490066225	0.195496688741722	0.149933774834437	20.9517880794702	-50.9080794701987	5.82251655629139				0.911788079470199	-0.270834437086093	-0.388238410596026	-0.539602649006623	-53.8823841059603	-57.874701986755			
140	3160	0.951841059602649	0.0827549668874172	-0.375523178807947	68.6333774834437	119.695364238411	-3.14490066225166				0.624953642384106	-0.0322119205298013	0.333139072847682	-0.966092715231788	-8.37218543046358	-8.70596026490066				0.821827814569536	-0.177271523178808	-0.23194701986755	-39.192582781457	126.146490066225	2.87973509933775				0.288529801324503	0.0954701986754967	-0.469721854304636	102.442913907285	-56.6564238410596	-21.3356291390729				0.580026490066225	0.259496688741722	0.181933774834437	23.1917880794702	-43.0680794701987	13.6625165562914				1.0077880794702	-0.270834437086093	-0.452238410596026	-49.2596026490066	-48.5623841059603	-49.194701986755			
141	3180	0.919841059602649	-0.253245033112583	-0.215523178807947	70.3133774834437	109.615364238411	24.8550993377483				0.720953642384106	0.111788079470199	0.381139072847682	-0.686092715231788	6.74781456953642	-1.42596026490066				0.789827814569536	-0.0812715231788079	-0.19994701986755	-62.992582781457	106.546490066225	10.4397350993378				0.320529801324503	0.143470198675497	-0.501721854304636	135.762913907285	-46.8564238410596	-6.21562913907285				0.580026490066225	0.227496688741722	0.293933774834437	25.1517880794702	-30.4680794701987	23.1825165562914				0.799788079470199	-0.158834437086093	-0.500238410596026	-1.65960264900662	-89.7223841059603	-26.234701986755			
142	3200	0.935841059602649	-0.461245033112583	0.072476821192053	53.5133774834437	109.895364238411	40.8150993377484				0.736953642384106	0.239788079470199	0.333139072847682	16.1139072847682	-16.7721854304636	3.61403973509934				0.933827814569536	-0.0332715231788079	-0.15194701986755	-65.232582781457	100.386490066225	14.0797350993378				0.416529801324503	-0.160529801324503	-0.517721854304636	77.5229139072848	-77.6564238410596	-5.37562913907285				0.676026490066225	0.195496688741722	0.181933774834437	13.6717880794702	-20.3880794701987	20.6625165562914				0.559788079470199	-0.0148344370860927	-0.388238410596026	24.9403973509934	-121.08238410596	0.925298013245032			
143	3220	0.871841059602649	-0.413245033112583	0.136476821192053	-44.7666225165563	109.895364238411	26.8150993377483				0.704953642384106	0.0477880794701987	0.189139072847682	-7.68609271523179	-31.3321854304636	-8.70596026490066				0.917827814569536	-0.0812715231788079	-0.18394701986755	-54.032582781457	89.4664900662252	14.6397350993378				0.464529801324503	-0.112529801324503	-0.677721854304636	67.7229139072848	-63.6564238410596	6.10437086092715				0.676026490066225	0.179496688741722	0.197933774834437	1.6317880794702	-19.5480794701987	16.7425165562914				0.303788079470199	0.0491655629139073	-0.276238410596026	58.5403973509934	-125.28238410596	-2.99470198675497			
144	3240	0.759841059602649	0.0187549668874172	0.200476821192053	-106.926622516556	99.8153642384106	7.77509933774834				0.672953642384106	-0.0642119205298013	0.0451390728476822	-32.3260927152318	2.82781456953642	6.97403973509934				0.885827814569536	-0.161271523178808	-0.19994701986755	-36.112582781457	70.7064900662252	14.9197350993378				0.656529801324503	-0.224529801324503	-0.437721854304636	29.9229139072848	-42.0964238410596	8.06437086092715				0.708026490066225	0.147496688741722	0.101933774834437	13.6717880794702	-39.7080794701987	14.7825165562914				0.159788079470199	0.0171655629139073	-0.132238410596026	19.9003973509934	-100.92238410596	-24.834701986755			
145	3260	0.855841059602649	0.0827549668874172	0.120476821192053	-76.6866225165563	85.8153642384106	-0.344900662251656				0.640953642384106	-0.0322119205298013	0.477139072847682	-29.8060927152318	32.7878145695364	20.6940397350993				0.949827814569536	-0.0972715231788079	-0.10394701986755	-23.232582781457	59.2264900662252	8.19973509933775				0.464529801324503	-0.112529801324503	-0.437721854304636	47.0029139072848	-30.8964238410596	-0.335629139072848				0.676026490066225	0.131496688741722	0.0379337748344371	22.6317880794702	-35.2280794701987	13.6625165562914				0.287788079470199	0.0491655629139073	-0.244238410596026	-64.9396026490066	-42.9623841059603	-43.314701986755			
146	3280	0.919841059602649	0.162754966887417	0.152476821192053	-26.5666225165563	77.9753642384106	0.215099337748344				0.704953642384106	0.159788079470199	0.317139072847682	0.433907284768212	20.4678145695364	32.4540397350993				0.869827814569536	0.0307284768211921	-0.0879470198675496	7.00741721854305	43.2664900662252	-0.20026490066225				0.416529801324503	-0.192529801324503	-0.581721854304636	69.1229139072848	-27.5364238410596	-9.85562913907285				0.676026490066225	0.131496688741722	0.117933774834437	29.9117880794702	-25.7080794701987	9.46251655629139				0.479788079470199	0.129165562913907	-0.564238410596026	-52.6196026490066	8.55761589403974	-55.914701986755			
147	3300	0.999841059602649	0.242754966887417	0.280476821192053	19.0733774834437	60.8953642384106	9.73509933774834				0.688953642384106	0.399788079470199	0.237139072847682	20.5939072847682	35.0278145695364	17.8940397350993				0.789827814569536	0.238728476821192	-0.0559470198675496	51.5274172185431	48.5864900662252	-6.36026490066225				0.560529801324503	-0.256529801324503	-0.645721854304636	41.4029139072848	-45.1764238410596	-13.4956291390728				0.708026490066225	0.131496688741722	0.101933774834437	32.1517880794702	-18.1480794701987	5.82251655629139				0.575788079470199	0.0491655629139073	-0.644238410596026	39.5003973509934	22.5576158940397	-66.554701986755			
148	3320	0.951841059602649	0.0827549668874172	0.280476821192053	49.3133774834437	32.0553642384106	10.8550993377483				0.864953642384106	0.111788079470199	0.237139072847682	25.6339072847682	17.1078145695364	20.6940397350993				0.869827814569536	0.174728476821192	-0.00794701986754963	59.3674172185431	24.2264900662252	-0.20026490066225				0.720529801324503	-0.400529801324503	-0.709721854304636	17.6029139072848	-44.3364238410596	-8.45562913907285				0.852026490066225	0.163496688741722	0.101933774834437	35.2317880794702	-8.34807947019868	1.34251655629139				0.591788079470199	-0.142834437086093	-0.644238410596026	69.1803973509934	16.3976158940397	-68.234701986755			
149	3340	0.967841059602649	0.00275496688741723	0.280476821192053	59.1133774834437	16.3753642384106	6.37509933774834				0.816953642384106	0.0797880794701987	0.557139072847682	25.9139072847682	23.2678145695364	9.21403973509934				0.901827814569536	-0.0492715231788079	0.0560529801324504	62.4474172185431	30.3864900662252	0.91973509933775				0.592529801324503	-0.384529801324503	-0.773721854304636	7.24291390728477	-40.4164238410596	-20.4956291390729				0.868026490066225	0.0834966887417219	0.0859337748344371	43.3517880794702	-2.18807947019868	-2.29748344370861				0.591788079470199	-0.222834437086093	-0.644238410596026	51.5403973509934	-7.40238410596027	-48.074701986755			
150	3360	0.983841059602649	-0.0292450331125828	0.216476821192053	57.7133774834437	5.4553642384106	5.25509933774834				0.864953642384106	0.143788079470199	0.493139072847682	49.1539072847682	6.46781456953642	10.3340397350993				0.949827814569536	-0.0652715231788079	0.12005298013245	71.127417218543	28.1464900662252	0.0797350993377501				0.432529801324503	-0.176529801324503	-0.805721854304636	-1.71708609271523	-36.7764238410596	-36.4556291390729				0.852026490066225	0.163496688741722	0.149933774834437	36.0717880794702	3.41192052980132	-9.29748344370861				0.591788079470199	-0.302834437086093	-0.644238410596026	50.7003973509934	-32.8823841059603	-22.874701986755			
151	3380	0	0	0	0	0	0				1.00895364238411	0.159788079470199	0.253139072847682	46.3539072847682	24.9478145695364	6.97403973509934				0.997827814569536	-0.0812715231788079	0.10405298013245	68.607417218543	25.9064900662252	2.87973509933775				0.336529801324503	-0.144529801324503	-0.693721854304636	-5.35708609271523	-42.3764238410596	-39.5356291390729				0.916026490066225	0.195496688741722	0.117933774834437	35.7917880794702	8.45192052980133	-9.01748344370861				0.751788079470199	-0.238834437086093	-0.596238410596026	24.6603973509934	-37.9223841059603	0.645298013245032			
152	3400	0.935841059602649	-0.125245033112583	0.280476821192053	70.5933774834437	9.9353642384106	5.25509933774834				0.992953642384106	-0.0322119205298013	0.285139072847682	40.7539072847682	20.1878145695364	7.53403973509934				1.01382781456954	-0.161271523178808	0.0880529801324504	56.8474172185431	23.1064900662252	3.15973509933775				0.400529801324503	-0.208529801324503	-0.709721854304636	-0.317086092715232	-34.5364238410596	-33.0956291390728				0.980026490066225	0.115496688741722	0.149933774834437	32.9917880794702	9.57192052980133	-5.93748344370861				0.815788079470199	-0.0948344370860927	-0.596238410596026	-14.2596026490066	-27.5623841059603	10.445298013245			
153	3420	0.967841059602649	-0.157245033112583	0.280476821192053	46.7933774834437	13.5753642384106	5.25509933774834				0.976953642384106	0.0317880794701987	0.365139072847682	35.4339072847682	14.0278145695364	5.85403973509934				1.02982781456954	-0.257271523178808	0.10405298013245	44.8074172185431	18.6264900662252	1.75973509933775				0.400529801324503	-0.240529801324503	-0.725721854304636	17.6029139072848	-3.1764238410596	-26.0956291390729				1.01202649006623	0.0834966887417219	0.149933774834437	25.9917880794702	4.25192052980133	-4.25748344370861				0.799788079470199	-0.0468344370860927	-0.612238410596026	-17.3396026490066	-21.6823841059603	2.04529801324503			
154	3440	0.935841059602649	-0.125245033112583	0.184476821192053	27.7533774834437	16.0953642384106	2.73509933774834				0.960953642384106	-0.0642119205298013	0.461139072847682	35.9939072847682	20.4678145695364	6.97403973509934				1.01382781456954	-0.289271523178808	0.15205298013245	28.8474172185431	14.4264900662252	-2.16026490066225				0.400529801324503	-0.224529801324503	-0.805721854304636	25.1629139072848	15.8635761589404	-26.0956291390729				0.948026490066225	0.147496688741722	0.0859337748344371	15.3517880794702	3.41192052980132	-3.13748344370861				0.783788079470199	0.00116556291390731	-0.596238410596026	-11.4596026490066	-10.2023841059603	-15.314701986755			
155	3460	0.983841059602649	-0.0932450331125828	0.232476821192053	17.6733774834437	21.6953642384106	2.17509933774834				0.928953642384106	0.0157880794701987	0.333139072847682	20.0339072847682	13.1878145695364	4.45403973509934				0.997827814569536	-0.273271523178808	0.12005298013245	14.007417218543	17.2264900662252	-1.88026490066225				0.480529801324503	-0.208529801324503	-0.853721854304636	12.2829139072848	7.7435761589404	-23.5756291390728				0.884026490066225	0.179496688741722	0.133933774834437	17.3117880794702	5.65192052980133	-0.617483443708608				0.687788079470199	0.0971655629139073	-0.644238410596026	16.5403973509934	-9.08238410596027	-28.754701986755			
156	3480	0.983841059602649	-0.0292450331125828	0.264476821192053	10.9533774834437	21.1353642384106	-2.58490066225166				0.976953642384106	-0.000211920529801304	0.317139072847682	10.5139072847682	19.6278145695364	12.2940397350993				1.02982781456954	-0.193271523178808	0.13605298013245	9.24741721854305	14.4264900662252	1.47973509933775				0.528529801324503	-0.256529801324503	-0.869721854304636	1.92291390728477	-5.4164238410596	-19.9356291390729				0.916026490066225	0.179496688741722	0.0859337748344371	19.5517880794702	10.4119205298013	-1.17748344370861				0.671788079470199	0.00116556291390731	-0.628238410596026	47.3403973509934	5.19761589403974	-30.154701986755			
157	3500	0.951841059602649	-0.0932450331125828	0.216476821192053	16.2733774834437	16.3753642384106	-4.82490066225166				0.928953642384106	-0.0162119205298013	0.349139072847682	7.43390728476821	10.9478145695364	7.53403973509934				0.965827814569536	-0.145271523178808	0.12005298013245	13.727417218543	7.14649006622517	2.03973509933775				0.528529801324503	-0.304529801324503	-0.869721854304636	0.242913907284768	-10.7364238410596	-19.9356291390729				0.964026490066225	0.147496688741722	0.133933774834437	18.7117880794702	11.8119205298013	-1.45748344370861				0.703788079470199	-0.174834437086093	-0.676238410596026	35.8603973509934	13.3176158940397	-23.714701986755			
158	3520	0.919841059602649	-0.0772450331125828	0.232476821192053	12.9133774834437	13.8553642384106	-4.54490066225166				0.944953642384106	0.0157880794701987	0.397139072847682	8.83390728476821	19.9078145695364	5.29403973509934				0.933827814569536	-0.129271523178808	0.0880529801324504	3.92741721854305	6.58649006622517	1.19973509933775				0.496529801324503	-0.288529801324503	-0.837721854304636	-6.19708609271523	-13.2564238410596	-14.8956291390728				0.948026490066225	0.131496688741722	0.133933774834437	11.4317880794702	14.0519205298013	-2.29748344370861				0.751788079470199	-0.222834437086093	-0.692238410596026	38.3803973509934	-5.16238410596027	-15.594701986755			
159	3540	0.935841059602649	-0.0612450331125828	0.248476821192053	10.9533774834437	13.5753642384106	-2.58490066225166				0.928953642384106	0.0157880794701987	0.397139072847682	7.43390728476821	8.70781456953642	5.57403973509934				0.981827814569536	-0.0812715231788079	0.0720529801324504	4.20741721854305	12.1864900662252	0.35973509933775				0.432529801324503	-0.240529801324503	-0.805721854304636	-17.9570860927152	-19.4164238410596	-9.57562913907285				0.948026490066225	0.115496688741722	0.133933774834437	7.7917880794702	14.6119205298013	-2.57748344370861				0.719788079470199	-0.206834437086093	-0.676238410596026	22.9803973509934	-18.0423841059603	-3.83470198675497			
160	3560	0.951841059602649	-0.0932450331125828	0.264476821192053	9.55337748344371	12.4553642384106	-3.14490066225166				0.992953642384106	0.0477880794701987	0.285139072847682	-0.126092715231788	9.26781456953642	3.33403973509934				1.02982781456954	-0.0492715231788079	0.0880529801324504	5.88741721854305	14.9864900662252	0.35973509933775				0.448529801324503	-0.224529801324503	-0.789721854304636	-18.5170860927152	-18.8564238410596	-5.93562913907285				0.948026490066225	0.131496688741722	0.133933774834437	1.0717880794702	9.29192052980133	-3.41748344370861				0.655788079470199	-0.126834437086093	-0.660238410596027	12.0603973509934	-21.4023841059603	4.00529801324503			
161	3580	0.951841059602649	-0.0772450331125828	0.232476821192053	2.55337748344371	12.4553642384106	-4.26490066225166				0.944953642384106	0.0637880794701987	0.333139072847682	1.83390728476821	9.54781456953642	0.81403973509934				0.997827814569536	-0.0812715231788079	0.10405298013245	5.32741721854305	10.2264900662252	-1.60026490066225				0.464529801324503	-0.176529801324503	-0.773721854304636	-15.4370860927152	-14.3764238410596	-5.09562913907285				0.932026490066225	0.179496688741722	0.133933774834437	-0.0482119205298018	9.57192052980133	-2.57748344370861				0.639788079470199	-0.110834437086093	-0.612238410596026	-0.539602649006623	-12.7223841059603	5.68529801324503			
162	3600	0.967841059602649	-0.0292450331125828	0.248476821192053	1.15337748344371	14.6953642384106	-2.30490066225166				0.912953642384106	0.0797880794701987	0.349139072847682	5.47390728476821	2.54781456953642	-0.86596026490066				0.981827814569536	-0.129271523178808	0.0720529801324504	7.56741721854305	8.82649006622517	-1.60026490066225				0.480529801324503	-0.160529801324503	-0.757721854304636	-12.9170860927152	-9.6164238410596	-3.97562913907285				0.932026490066225	0.211496688741722	0.133933774834437	0.511788079470198	11.2519205298013	-2.29748344370861				0.671788079470199	-0.0468344370860927	-0.628238410596026	-9.21960264900662	-1.24238410596026	4.00529801324503			
163	3620	0.983841059602649	0.00275496688741723	0.232476821192053	0.873377483443709	11.6153642384106	-0.0649006622516557				0.912953642384106	0.0637880794701987	0.317139072847682	8.55390728476821	4.22781456953642	1.65403973509934				0.949827814569536	-0.113271523178808	0.0560529801324504	7.84741721854305	8.54649006622517	-0.76026490066225				0.464529801324503	-0.160529801324503	-0.821721854304636	-14.3170860927152	-7.9364238410596	-3.13562913907285				0.948026490066225	0.195496688741722	0.101933774834437	3.5917880794702	12.3719205298013	-0.897483443708608				0.687788079470199	0.0171655629139073	-0.692238410596026	7.58039735099338	-0.402384105960265	-0.474701986754968			
164	3640	0.999841059602649	0.0187549668874172	0.264476821192053	-1.92662251655629	8.8153642384106	-0.0649006622516557				0.960953642384106	0.0797880794701987	0.349139072847682	4.35390728476821	10.9478145695364	-0.0259602649006601				0.949827814569536	-0.0652715231788079	0.00805298013245037	5.88741721854305	6.30649006622517	-1.32026490066225				0.448529801324503	-0.192529801324503	-0.837721854304636	-12.9170860927152	-5.6964238410596	-5.93562913907285				0.964026490066225	0.179496688741722	0.117933774834437	3.8717880794702	13.7719205298013	-2.01748344370861				0.639788079470199	-0.0308344370860927	-0.676238410596026	27.4603973509934	0.437615894039735	-2.43470198675497			
165	3660	0.999841059602649	0.00275496688741723	0.248476821192053	1.71337748344371	5.1753642384106	-2.30490066225166				0.976953642384106	0.0477880794701987	0.333139072847682	2.95390728476821	14.0278145695364	0.53403973509934				0.981827814569536	-0.0652715231788079	0.00805298013245037	6.72741721854305	6.86649006622517	-1.04026490066225				0.464529801324503	-0.192529801324503	-0.837721854304636	-10.6770860927152	-4.0164238410596	-9.57562913907285				0.932026490066225	0.195496688741722	0.117933774834437	3.3117880794702	14.3319205298013	-2.29748344370861				0.623788079470199	-0.0948344370860927	-0.692238410596026	17.9403973509934	7.43761589403974	-2.15470198675497			
166	3680	0.951841059602649	-0.0132450331125828	0.216476821192053	8.15337748344371	3.4953642384106	-3.14490066225166				0.976953642384106	0.0317880794701987	0.365139072847682	4.07390728476821	10.1078145695364	1.09403973509934				1.01382781456954	-0.0972715231788079	0.0400529801324504	7.56741721854305	9.10649006622517	-2.16026490066225				0.496529801324503	-0.176529801324503	-0.837721854304636	-14.0370860927152	-4.2964238410596	-9.85562913907285				0.964026490066225	0.179496688741722	0.133933774834437	3.5917880794702	15.4519205298013	-2.29748344370861				0.655788079470199	-0.126834437086093	-0.676238410596026	14.8603973509934	5.75761589403974	-0.474701986754968			
167	3700	0.935841059602649	-0.0292450331125828	0.232476821192053	15.7133774834437	5.1753642384106	-3.42490066225166				0.960953642384106	0.0957880794701987	0.349139072847682	3.79390728476821	5.34781456953642	0.81403973509934				0.965827814569536	-0.113271523178808	0.0240529801324504	8.68741721854305	8.54649006622517	-3.84026490066225				0.496529801324503	-0.176529801324503	-0.805721854304636	-16.2770860927152	-2.0564238410596	-7.89562913907285				0.980026490066225	0.195496688741722	0.149933774834437	2.7517880794702	15.4519205298013	-2.85748344370861				0.719788079470199	-0.126834437086093	-0.724238410596026	6.46039735099338	4.07761589403974	0.645298013245032			
168	3720	0.967841059602649	-0.0612450331125828	0.248476821192053	9.27337748344371	4.8953642384106	-2.02490066225166				0.976953642384106	0.111788079470199	0.317139072847682	7.71390728476821	5.34781456953642	1.93403973509934				0.997827814569536	-0.0652715231788079	0.0240529801324504	10.647417218543	7.14649006622517	-3.28026490066225				0.512529801324503	-0.112529801324503	-0.821721854304636	-5.63708609271523	-0.6564238410596	-5.65562913907285				0.996026490066225	0.179496688741722	0.149933774834437	1.3517880794702	13.2119205298013	-2.29748344370861				0.735788079470199	-0.110834437086093	-0.740238410596026	7.58039735099338	-3.76238410596027	0.645298013245032			
169	3740	0.999841059602649	-0.0452450331125828	0.248476821192053	1.71337748344371	2.9353642384106	-2.86490066225166				0.976953642384106	0.0477880794701987	0.301139072847682	7.43390728476821	5.62781456953642	0.53403973509934				1.02982781456954	-0.113271523178808	0.00805298013245037	7.28741721854305	3.78649006622517	-1.60026490066225				0.496529801324503	-0.0965298013245033	-0.837721854304636	8.36291390728477	-0.0964238410596001	-3.41562913907285				0.964026490066225	0.163496688741722	0.181933774834437	4.1517880794702	9.85192052980133	-0.897483443708608				0.687788079470199	-0.0948344370860927	-0.692238410596026	8.98039735099338	-2.08238410596027	0.0852980132450323			
170	3760	0.983841059602649	0.00275496688741723	0.216476821192053	-3.32662251655629	3.7753642384106	-2.30490066225166				0.992953642384106	0.0317880794701987	0.285139072847682	2.67390728476821	2.82781456953642	-0.86596026490066				1.01382781456954	-0.145271523178808	0.0240529801324504	13.727417218543	1.26649006622517	-1.32026490066225				0.480529801324503	-0.192529801324503	-0.837721854304636	-0.0370860927152318	-2.8964238410596	-5.37562913907285				0.980026490066225	0.195496688741722	0.165933774834437	1.6317880794702	7.89192052980133	-0.617483443708608				0.671788079470199	-0.110834437086093	-0.676238410596026	3.38039735099338	1.83761589403974	-2.15470198675497			
171	3780	0.983841059602649	-0.0292450331125828	0.200476821192053	3.39337748344371	4.6153642384106	-2.02490066225166				0.992953642384106	0.0957880794701987	0.301139072847682	-0.126092715231788	3.10781456953642	0.53403973509934				0.981827814569536	-0.113271523178808	0.00805298013245037	7.84741721854305	0.146490066225167	-1.60026490066225				0.496529801324503	-0.176529801324503	-0.837721854304636	-13.1970860927152	-5.9764238410596	-4.81562913907285				0.980026490066225	0.211496688741722	0.133933774834437	0.511788079470198	7.05192052980133	-0.0574834437086077				0.671788079470199	-0.0788344370860927	-0.692238410596026	2.26039735099338	2.95761589403974	-2.15470198675497			
172	3800	0.983841059602649	-0.0132450331125828	0.168476821192053	8.15337748344371	2.0953642384106	-1.74490066225166				0.992953642384106	0.0637880794701987	0.365139072847682	4.63390728476821	5.90781456953642	3.89403973509934				0.965827814569536	-0.0972715231788079	0.00805298013245037	1.68741721854305	3.50649006622517	0.0797350993377501				0.464529801324503	-0.144529801324503	-0.853721854304636	-5.91708609271523	-0.6564238410596	-0.0556291390728476				0.980026490066225	0.163496688741722	0.165933774834437	4.1517880794702	7.05192052980133	0.782516556291392				0.671788079470199	-0.0628344370860927	-0.724238410596026	10.3803973509934	-4.32238410596027	-2.43470198675497			
173	3820	0.983841059602649	-0.0452450331125828	0.168476821192053	8.99337748344371	-0.144635761589404	-2.30490066225166				0.960953642384106	0.0157880794701987	0.269139072847682	5.47390728476821	2.54781456953642	3.89403973509934				0.965827814569536	-0.0972715231788079	-0.0239470198675496	0.847417218543046	2.94649006622517	0.35973509933775				0.448529801324503	-0.192529801324503	-0.853721854304636	0.522913907284768	-1.7764238410596	3.30437086092715				0.964026490066225	0.163496688741722	0.133933774834437	4.1517880794702	3.69192052980133	1.06251655629139				0.655788079470199	-0.0948344370860927	-0.708238410596026	10.3803973509934	-4.32238410596027	-3.55470198675497			
174	3840	0.983841059602649	-0.0612450331125828	0.168476821192053	5.91337748344371	-2.1046357615894	-3.42490066225166				0.992953642384106	0.0477880794701987	0.269139072847682	-2.64609271523179	6.18781456953642	2.49403973509934				0.981827814569536	-0.0972715231788079	-0.0239470198675496	0.00741721854304636	1.54649006622517	-1.32026490066225				0.480529801324503	-0.208529801324503	-0.837721854304636	-8.15708609271523	-8.7764238410596	3.30437086092715				0.964026490066225	0.163496688741722	0.117933774834437	1.9117880794702	2.57192052980133	1.90251655629139				0.655788079470199	-0.110834437086093	-0.740238410596026	5.34039735099338	1.83761589403974	-2.71470198675497			
175	3860	0.967841059602649	-0.0452450331125828	0.152476821192053	-1.08662251655629	-5.1846357615894	-3.98490066225166				0.976953642384106	0.0477880794701987	0.333139072847682	-1.52609271523179	0.867814569536424	3.61403973509934				0.997827814569536	-0.0812715231788079	-0.00794701986754963	3.64741721854305	0.986490066225167	-3.84026490066225				0.464529801324503	-0.160529801324503	-0.853721854304636	-12.9170860927152	-11.0164238410596	6.38437086092715				0.948026490066225	0.179496688741722	0.133933774834437	5.2717880794702	5.09192052980133	3.30251655629139				0.639788079470199	-0.0788344370860927	-0.740238410596026	6.18039735099338	-0.682384105960265	-3.55470198675497			
176	3880	0.983841059602649	-0.0292450331125828	0.168476821192053	-4.44662251655629	-3.2246357615894	-4.26490066225166				0.992953642384106	0.0317880794701987	0.301139072847682	2.11390728476821	-5.29218543046358	3.33403973509934				0.997827814569536	-0.0812715231788079	0.00805298013245037	3.92741721854305	0.706490066225167	-4.12026490066225				0.432529801324503	-0.176529801324503	-0.869721854304636	-14.3170860927152	-7.3764238410596	6.66437086092715				0.980026490066225	0.147496688741722	0.0859337748344371	3.3117880794702	2.01192052980133	4.42251655629139				0.623788079470199	-0.0788344370860927	-0.756238410596026	8.14039735099338	-3.48238410596027	-3.83470198675497			
177	3900	0.951841059602649	-0.0292450331125828	0.184476821192053	-4.44662251655629	-3.2246357615894	-3.98490066225166				0.960953642384106	0.0477880794701987	0.253139072847682	-0.126092715231788	-4.45218543046358	1.09403973509934				1.01382781456954	-0.0972715231788079	-0.0239470198675496	0.847417218543046	-1.53350993377483	-2.16026490066225				0.400529801324503	-0.192529801324503	-0.837721854304636	-11.7970860927152	-8.4964238410596	4.98437086092715				0.964026490066225	0.147496688741722	0.0699337748344371	2.1917880794702	1.73192052980133	3.86251655629139				0.623788079470199	-0.126834437086093	-0.740238410596026	10.9403973509934	-3.20238410596026	-2.43470198675497			
178	3920	0.951841059602649	-0.0132450331125828	0.184476821192053	-1.92662251655629	-1.5446357615894	-2.86490066225166				0.976953642384106	0.0637880794701987	0.269139072847682	-5.44609271523179	-2.77218543046358	0.81403973509934				0.981827814569536	-0.113271523178808	-0.0239470198675496	-0.272582781456954	-5.45350993377483	-1.60026490066225				0.400529801324503	-0.160529801324503	-0.821721854304636	-4.23708609271523	-7.0964238410596	2.74437086092715				0.980026490066225	0.147496688741722	0.0699337748344371	0.791788079470198	1.45192052980132	4.70251655629139				0.607788079470199	-0.0948344370860927	-0.740238410596026	6.74039735099338	0.717615894039735	0.645298013245032			
179	3940	0.967841059602649	-0.0132450331125828	0.184476821192053	-0.246622516556291	-2.6646357615894	-2.58490066225166				0.960953642384106	0.0637880794701987	0.301139072847682	-4.04609271523179	-3.33218543046358	1.09403973509934				0.965827814569536	-0.0972715231788079	-0.0239470198675496	-2.23258278145695	-5.45350993377483	-2.44026490066225				0.416529801324503	-0.160529801324503	-0.853721854304636	-1.71708609271523	-2.8964238410596	3.58437086092715				0.948026490066225	0.147496688741722	0.0859337748344371	3.3117880794702	0.331920529801325	6.10251655629139				0.607788079470199	-0.0788344370860927	-0.724238410596026	7.58039735099338	0.157615894039735	0.645298013245032			
