No	Time	12-AccX	12-AccY	12-AccZ	12-GyroX	12-GyroY	12-GyroZ	13-AccX	13-AccY	13-AccZ	13-GyroX	13-GyroY	13-GyroZ	14-AccX	14-AccY	14-AccZ	14-GyroX	14-GyroY	14-GyroZ	15-AccX	15-AccY	15-AccZ	15-GyroX	15-GyroY	15-GyroZ	16-AccX	16-AccY	16-AccZ	16-GyroX	16-GyroY	16-GyroZ	17-AccX	17-AccY	17-AccZ	17-GyroX	17-GyroY	17-GyroZ
0	100	0	0	0	0	0	0				0	0	0	0	0	0				-0.266172185430464	-0.0972715231788079	-0.88794701986755	-0.272582781456954	-0.413509933774833	0.0797350993377501				0.384529801324503	-0.0485298013245033	-0.885721854304636	-0.0370860927152318	-0.6564238410596	0.504370860927152				0.948026490066225	0.131496688741722	0.213933774834437	1.0717880794702	-0.788079470198675	-0.0574834437086077				0.431788079470199	-0.206834437086093	-0.820238410596026	-0.539602649006623	0.157615894039735	-1.31470198675497			
1	120	-0.216158940397351	0.162754966887417	-0.935523178807947	0.593377483443709	0.415364238410596	-1.18490066225166				0.896953642384106	0.0797880794701987	0.445139072847682	1.83390728476821	-2.21218543046358	0.53403973509934				-0.266172185430464	-0.0812715231788079	-0.88794701986755	0.287417218543046	0.426490066225167	-0.48026490066225				0.368529801324503	-0.0325298013245033	-0.901721854304636	-0.0370860927152318	-1.2164238410596	-0.335629139072848				0.948026490066225	0.115496688741722	0.213933774834437	1.6317880794702	-0.788079470198675	-0.617483443708608				0.431788079470199	-0.222834437086093	-0.820238410596026	0.0203973509933773	0.157615894039735	-1.31470198675497			
2	140	-0.216158940397351	0.146754966887417	-0.935523178807947	-0.246622516556291	0.975364238410596	-1.46490066225166				0.896953642384106	0.0797880794701987	0.461139072847682	0.993907284768212	-0.252185430463576	0.25403973509934				-0.266172185430464	-0.0812715231788079	-0.87194701986755	0.287417218543046	0.426490066225167	-0.20026490066225				0.352529801324503	-0.0325298013245033	-0.885721854304636	-0.317086092715232	-0.0964238410596001	0.224370860927152				0.948026490066225	0.131496688741722	0.213933774834437	2.4717880794702	-1.34807947019868	0.222516556291392				0.447788079470199	-0.222834437086093	-0.820238410596026	-0.819602649006623	0.997615894039735	-0.754701986754968			
3	160	-0.200158940397351	0.162754966887417	-0.935523178807947	0.593377483443709	0.135364238410596	-0.344900662251656				0.880953642384106	0.0957880794701987	0.477139072847682	0.993907284768212	0.0278145695364242	0.53403973509934				-0.266172185430464	-0.0972715231788079	-0.87194701986755	0.00741721854304636	0.146490066225167	0.63973509933775				0.352529801324503	-0.0325298013245033	-0.885721854304636	-0.0370860927152318	0.7435761589404	-0.615629139072848				0.948026490066225	0.131496688741722	0.245933774834437	2.4717880794702	2.85192052980133	-0.0574834437086077				0.431788079470199	-0.222834437086093	-0.804238410596027	-0.539602649006623	0.717615894039735	-2.71470198675497			
4	180	-0.200158940397351	0.146754966887417	-0.935523178807947	0.593377483443709	-0.144635761589404	-1.46490066225166				0.912953642384106	0.0797880794701987	0.461139072847682	1.55390728476821	-1.65218543046358	-0.30596026490066				-0.266172185430464	-0.0812715231788079	-0.87194701986755	0.567417218543046	-0.133509933774833	-0.20026490066225				0.352529801324503	-0.0325298013245033	-0.885721854304636	1.92291390728477	1.0235761589404	-0.335629139072848				0.932026490066225	0.131496688741722	0.197933774834437	1.3517880794702	0.0519205298013249	-0.337483443708608				0.447788079470199	-0.206834437086093	-0.820238410596026	-0.539602649006623	0.437615894039735	-3.27470198675497			
5	200	-0.200158940397351	0.146754966887417	-0.935523178807947	-0.246622516556291	-0.144635761589404	-1.74490066225166				0.896953642384106	0.0957880794701987	0.461139072847682	3.23390728476821	-1.09218543046358	0.25403973509934				-0.266172185430464	-0.0972715231788079	-0.88794701986755	0.287417218543046	0.426490066225167	-0.20026490066225				0.352529801324503	-0.0325298013245033	-0.917721854304636	1.36291390728477	0.7435761589404	-0.335629139072848				0.948026490066225	0.115496688741722	0.229933774834437	0.791788079470198	0.611920529801325	-0.897483443708608				0.447788079470199	-0.222834437086093	-0.820238410596026	0.860397350993377	-0.962384105960265	-2.99470198675497			
6	220	-0.200158940397351	0.146754966887417	-0.951523178807947	0.0333774834437086	0.415364238410596	-1.18490066225166				0.896953642384106	0.0957880794701987	0.429139072847682	0.433907284768212	1.14781456953642	0.53403973509934				-0.266172185430464	-0.0972715231788079	-0.88794701986755	0.847417218543046	0.706490066225167	-0.48026490066225				0.352529801324503	-0.0325298013245033	-0.901721854304636	-0.0370860927152318	0.1835761589404	-0.615629139072848				0.932026490066225	0.131496688741722	0.213933774834437	-1.1682119205298	2.01192052980133	-1.73748344370861				0.431788079470199	-0.222834437086093	-0.820238410596026	1.14039735099338	-0.682384105960265	-2.71470198675497			
7	240	-0.216158940397351	0.146754966887417	-0.935523178807947	-0.246622516556291	0.415364238410596	-1.18490066225166				0.912953642384106	0.0957880794701987	0.477139072847682	-2.08609271523179	1.42781456953642	-0.0259602649006601				-0.266172185430464	-0.0972715231788079	-0.87194701986755	0.00741721854304636	0.706490066225167	-0.76026490066225				0.352529801324503	-0.0325298013245033	-0.901721854304636	-0.317086092715232	0.4635761589404	-0.0556291390728476				0.948026490066225	0.131496688741722	0.213933774834437	1.0717880794702	0.891920529801325	-1.17748344370861				0.431788079470199	-0.222834437086093	-0.820238410596026	-0.819602649006623	-0.122384105960265	-2.43470198675497			
8	260	-0.216158940397351	0.162754966887417	-0.935523178807947	0.0333774834437086	0.415364238410596	-0.904900662251656				0.912953642384106	0.0797880794701987	0.509139072847682	-0.126092715231788	-2.77218543046358	-0.86596026490066				-0.266172185430464	-0.0972715231788079	-0.87194701986755	1.68741721854305	0.706490066225167	-0.48026490066225				0.368529801324503	-0.0325298013245033	-0.885721854304636	-0.317086092715232	-0.6564238410596	-0.335629139072848				0.964026490066225	0.131496688741722	0.213933774834437	1.9117880794702	0.891920529801325	0.222516556291392				0.447788079470199	-0.206834437086093	-0.836238410596026	-0.819602649006623	0.717615894039735	-1.31470198675497			
9	280	-0.216158940397351	0.162754966887417	-0.935523178807947	-0.526622516556291	0.695364238410596	-0.904900662251656				0.912953642384106	0.0797880794701987	0.445139072847682	0.433907284768212	-2.21218543046358	-0.0259602649006601				-0.266172185430464	-0.0972715231788079	-0.90394701986755	0.00741721854304636	0.426490066225167	-0.48026490066225				0.368529801324503	-0.0325298013245033	-0.917721854304636	-0.597086092715232	-0.0964238410596001	-0.895629139072848				0.948026490066225	0.147496688741722	0.229933774834437	0.791788079470198	2.01192052980133	-0.0574834437086077				0.447788079470199	-0.222834437086093	-0.836238410596026	0.0203973509933773	0.437615894039735	-1.31470198675497			
10	300	-0.216158940397351	0.146754966887417	-0.935523178807947	0.313377483443709	0.415364238410596	-0.344900662251656				0.896953642384106	0.0797880794701987	0.445139072847682	0.713907284768212	0.867814569536424	-0.0259602649006601				-0.266172185430464	-0.0972715231788079	-0.88794701986755	0.00741721854304636	0.146490066225167	0.0797350993377501				0.368529801324503	-0.0325298013245033	-0.901721854304636	1.64291390728477	0.4635761589404	-0.335629139072848				0.948026490066225	0.131496688741722	0.229933774834437	0.511788079470198	0.0519205298013249	-1.17748344370861				0.447788079470199	-0.222834437086093	-0.820238410596026	2.26039735099338	-0.402384105960265	-1.31470198675497			
11	320	-0.216158940397351	0.146754966887417	-0.919523178807947	0.313377483443709	0.415364238410596	-0.904900662251656				0.896953642384106	0.0797880794701987	0.477139072847682	1.27390728476821	-1.37218543046358	0.81403973509934				-0.250172185430464	-0.0972715231788079	-0.87194701986755	0.567417218543046	0.706490066225167	-0.20026490066225				0.368529801324503	-0.0325298013245033	-0.901721854304636	0.802913907284768	1.3035761589404	-0.335629139072848				0.932026490066225	0.131496688741722	0.229933774834437	0.511788079470198	0.611920529801325	-0.337483443708608				0.447788079470199	-0.222834437086093	-0.804238410596027	-1.09960264900662	0.717615894039735	0.0852980132450323			
12	340	-0.216158940397351	0.146754966887417	-0.935523178807947	-0.806622516556291	0.695364238410596	-1.46490066225166				0.912953642384106	0.0957880794701987	0.477139072847682	0.993907284768212	-3.89218543046358	0.53403973509934				-0.266172185430464	-0.0972715231788079	-0.87194701986755	0.567417218543046	0.146490066225167	-0.20026490066225				0.368529801324503	-0.0325298013245033	-0.901721854304636	-0.317086092715232	1.5835761589404	-0.335629139072848				0.948026490066225	0.131496688741722	0.229933774834437	1.0717880794702	0.891920529801325	-0.0574834437086077				0.447788079470199	-0.222834437086093	-0.804238410596027	-1.09960264900662	-0.122384105960265	0.645298013245032			
13	360	-0.216158940397351	0.162754966887417	-0.935523178807947	-0.246622516556291	0.695364238410596	-0.624900662251656				0.912953642384106	0.0957880794701987	0.461139072847682	1.55390728476821	-5.01218543046358	0.81403973509934				-0.266172185430464	-0.0972715231788079	-0.88794701986755	0.287417218543046	0.146490066225167	-0.48026490066225				0.368529801324503	-0.0325298013245033	-0.885721854304636	-0.0370860927152318	1.3035761589404	0.784370860927152				0.932026490066225	0.131496688741722	0.229933774834437	0.791788079470198	0.611920529801325	-0.897483443708608				0.447788079470199	-0.206834437086093	-0.820238410596026	-0.539602649006623	1.27761589403974	0.925298013245032			
14	380	-0.200158940397351	0.146754966887417	-0.935523178807947	0.0333774834437086	0.415364238410596	-0.904900662251656				0.896953642384106	0.0797880794701987	0.445139072847682	2.67390728476821	-3.61218543046358	0.53403973509934				-0.266172185430464	-0.0812715231788079	-0.87194701986755	0.287417218543046	0.146490066225167	0.35973509933775				0.352529801324503	-0.0325298013245033	-0.885721854304636	0.522913907284768	0.7435761589404	1.06437086092715				0.932026490066225	0.131496688741722	0.229933774834437	-0.0482119205298018	-0.228079470198675	-0.617483443708608				0.447788079470199	-0.206834437086093	-0.820238410596026	1.14039735099338	0.157615894039735	0.0852980132450323			
15	400	-0.200158940397351	0.146754966887417	-0.919523178807947	0.0333774834437086	0.415364238410596	-1.18490066225166				0.896953642384106	0.0797880794701987	0.445139072847682	2.39390728476821	-1.37218543046358	1.09403973509934				-0.250172185430464	-0.0812715231788079	-0.87194701986755	0.00741721854304636	0.706490066225167	-0.20026490066225				0.368529801324503	-0.0325298013245033	-0.885721854304636	0.522913907284768	1.3035761589404	0.224370860927152				0.948026490066225	0.131496688741722	0.245933774834437	1.3517880794702	1.17192052980133	-0.617483443708608				0.431788079470199	-0.222834437086093	-0.820238410596026	1.70039735099338	-0.402384105960265	-0.194701986754968			
16	420	-0.200158940397351	0.162754966887417	-0.935523178807947	0.0333774834437086	0.135364238410596	-1.18490066225166				0.896953642384106	0.0797880794701987	0.445139072847682	0.993907284768212	-0.812185430463576	1.37403973509934				-0.250172185430464	-0.0972715231788079	-0.88794701986755	0.567417218543046	0.146490066225167	-0.48026490066225				0.368529801324503	-0.0485298013245033	-0.885721854304636	1.64291390728477	1.5835761589404	-0.335629139072848				0.932026490066225	0.115496688741722	0.213933774834437	-0.0482119205298018	-0.788079470198675	-0.0574834437086077				0.447788079470199	-0.222834437086093	-0.820238410596026	-0.539602649006623	-0.402384105960265	-0.754701986754968			
17	440	-0.216158940397351	0.162754966887417	-0.919523178807947	-1.08662251655629	-0.424635761589404	-1.46490066225166				0.896953642384106	0.0797880794701987	0.445139072847682	0.993907284768212	-0.532185430463576	0.53403973509934				-0.266172185430464	-0.0972715231788079	-0.87194701986755	0.847417218543046	-0.973509933774833	-0.48026490066225				0.352529801324503	-0.0485298013245033	-0.901721854304636	0.522913907284768	0.7435761589404	0.224370860927152				0.932026490066225	0.147496688741722	0.229933774834437	-0.0482119205298018	1.73192052980133	-0.337483443708608				0.447788079470199	-0.222834437086093	-0.820238410596026	-0.259602649006623	-0.962384105960265	0.365298013245032			
18	460	-0.216158940397351	0.162754966887417	-0.935523178807947	-1.64662251655629	0.415364238410596	-0.904900662251656				0.896953642384106	0.0957880794701987	0.445139072847682	0.713907284768212	1.42781456953642	0.53403973509934				-0.266172185430464	-0.0972715231788079	-0.87194701986755	1.40741721854305	0.146490066225167	0.0797350993377501				0.352529801324503	-0.0485298013245033	-0.901721854304636	-0.317086092715232	0.1835761589404	1.62437086092715				0.932026490066225	0.131496688741722	0.229933774834437	-1.4482119205298	2.01192052980133	-0.337483443708608				0.431788079470199	-0.206834437086093	-0.820238410596026	0.580397350993377	-1.24238410596026	0.925298013245032			
19	480	-0.200158940397351	0.146754966887417	-0.935523178807947	0.0333774834437086	-0.424635761589404	-0.624900662251656				0.912953642384106	0.0797880794701987	0.477139072847682	0.993907284768212	2.26781456953642	-0.30596026490066				-0.266172185430464	-0.0812715231788079	-0.88794701986755	0.287417218543046	-0.133509933774833	0.0797350993377501				0.352529801324503	-0.0325298013245033	-0.901721854304636	-0.877086092715232	-0.0964238410596001	2.18437086092715				0.948026490066225	0.115496688741722	0.213933774834437	1.0717880794702	1.17192052980133	-0.617483443708608				0.431788079470199	-0.222834437086093	-0.836238410596026	1.70039735099338	-0.402384105960265	0.365298013245032			
20	500	-0.216158940397351	0.162754966887417	-0.919523178807947	-0.246622516556291	-0.144635761589404	-0.904900662251656				0.912953642384106	0.0957880794701987	0.461139072847682	1.55390728476821	0.307814569536424	0.25403973509934				-0.266172185430464	-0.0972715231788079	-0.87194701986755	0.847417218543046	0.146490066225167	-0.20026490066225				0.352529801324503	-0.0325298013245033	-0.901721854304636	-0.317086092715232	-0.0964238410596001	1.06437086092715				0.964026490066225	0.131496688741722	0.229933774834437	-1.7282119205298	1.73192052980133	-0.617483443708608				0.447788079470199	-0.222834437086093	-0.820238410596026	1.42039735099338	0.717615894039735	0.365298013245032			
21	520	-0.216158940397351	0.146754966887417	-0.935523178807947	0.0333774834437086	-0.144635761589404	-0.904900662251656				0.912953642384106	0.0797880794701987	0.461139072847682	0.993907284768212	-0.532185430463576	-0.86596026490066				-0.266172185430464	-0.0812715231788079	-0.87194701986755	0.567417218543046	-0.693509933774834	0.35973509933775				0.352529801324503	-0.0325298013245033	-0.901721854304636	0.242913907284768	1.8635761589404	1.62437086092715				0.948026490066225	0.131496688741722	0.229933774834437	-2.2882119205298	1.73192052980133	-0.337483443708608				0.447788079470199	-0.222834437086093	-0.820238410596026	0.0203973509933773	0.157615894039735	0.365298013245032			
22	540	-0.216158940397351	0.146754966887417	-0.951523178807947	-0.526622516556291	0.135364238410596	-0.904900662251656				0.912953642384106	0.0957880794701987	0.461139072847682	0.433907284768212	-1.37218543046358	0.25403973509934				-0.266172185430464	-0.0972715231788079	-0.88794701986755	0.287417218543046	0.986490066225167	-0.48026490066225				0.352529801324503	-0.0485298013245033	-0.901721854304636	-0.317086092715232	1.3035761589404	1.90437086092715				0.948026490066225	0.131496688741722	0.229933774834437	-1.7282119205298	0.891920529801325	-0.897483443708608				0.447788079470199	-0.222834437086093	-0.820238410596026	-0.259602649006623	0.157615894039735	0.365298013245032			
23	560	-0.216158940397351	0.146754966887417	-0.951523178807947	-0.246622516556291	0.135364238410596	-0.904900662251656				0.912953642384106	0.0957880794701987	0.445139072847682	0.153907284768212	-0.812185430463576	-0.0259602649006601				-0.266172185430464	-0.0972715231788079	-0.88794701986755	-0.272582781456954	0.426490066225167	0.0797350993377501				0.368529801324503	-0.0325298013245033	-0.901721854304636	-0.877086092715232	0.1835761589404	2.18437086092715				0.948026490066225	0.131496688741722	0.213933774834437	-2.8482119205298	0.611920529801325	0.222516556291392				0.431788079470199	-0.222834437086093	-0.804238410596027	0.580397350993377	-0.402384105960265	0.925298013245032			
24	580	-0.216158940397351	0.146754966887417	-0.935523178807947	-1.36662251655629	0.975364238410596	-1.46490066225166				0.912953642384106	0.0957880794701987	0.445139072847682	0.713907284768212	-0.252185430463576	0.25403973509934				-0.266172185430464	-0.0972715231788079	-0.87194701986755	-0.272582781456954	0.146490066225167	-0.48026490066225				0.368529801324503	-0.0485298013245033	-0.917721854304636	-0.597086092715232	0.7435761589404	3.30437086092715				0.948026490066225	0.131496688741722	0.229933774834437	-1.7282119205298	0.891920529801325	0.782516556291392				0.447788079470199	-0.222834437086093	-0.820238410596026	-0.259602649006623	0.157615894039735	1.48529801324503			
25	600	-0.216158940397351	0.146754966887417	-0.935523178807947	-0.246622516556291	0.135364238410596	-0.344900662251656				0.912953642384106	0.0957880794701987	0.461139072847682	2.67390728476821	-2.21218543046358	-0.0259602649006601				-0.266172185430464	-0.0812715231788079	-0.87194701986755	0.567417218543046	0.426490066225167	-0.20026490066225				0.368529801324503	-0.0325298013245033	-0.901721854304636	0.242913907284768	1.0235761589404	4.42437086092715				0.948026490066225	0.131496688741722	0.229933774834437	-1.4482119205298	0.331920529801325	-0.0574834437086077				0.431788079470199	-0.222834437086093	-0.836238410596026	-0.259602649006623	0.437615894039735	1.76529801324503			
26	620	-0.200158940397351	0.146754966887417	-0.935523178807947	0.313377483443709	0.415364238410596	-0.344900662251656				0.912953642384106	0.0957880794701987	0.445139072847682	3.79390728476821	-3.61218543046358	0.81403973509934				-0.266172185430464	-0.0812715231788079	-0.88794701986755	0.287417218543046	0.426490066225167	0.35973509933775				0.368529801324503	-0.0325298013245033	-0.901721854304636	0.242913907284768	1.3035761589404	3.02437086092715				0.948026490066225	0.115496688741722	0.213933774834437	-2.0082119205298	-0.228079470198675	-0.337483443708608				0.431788079470199	-0.222834437086093	-0.820238410596026	-1.09960264900662	0.437615894039735	2.60529801324503			
27	640	-0.216158940397351	0.146754966887417	-0.935523178807947	-1.36662251655629	0.415364238410596	-1.18490066225166				0.912953642384106	0.0957880794701987	0.445139072847682	1.27390728476821	-2.77218543046358	0.25403973509934				-0.266172185430464	-0.0812715231788079	-0.88794701986755	0.287417218543046	0.146490066225167	-0.20026490066225				0.352529801324503	-0.0325298013245033	-0.901721854304636	-0.0370860927152318	1.5835761589404	2.74437086092715				0.932026490066225	0.131496688741722	0.229933774834437	-1.4482119205298	0.0519205298013249	0.222516556291392				0.415788079470199	-0.206834437086093	-0.820238410596026	-1.37960264900662	0.157615894039735	2.04529801324503			
28	660	-0.216158940397351	0.162754966887417	-0.935523178807947	0.313377483443709	0.975364238410596	-0.904900662251656				0.912953642384106	0.0957880794701987	0.445139072847682	0.153907284768212	-0.812185430463576	0.25403973509934				-0.266172185430464	-0.0972715231788079	-0.87194701986755	0.287417218543046	0.146490066225167	-0.48026490066225				0.352529801324503	-0.0325298013245033	-0.885721854304636	-0.877086092715232	1.3035761589404	2.46437086092715				0.932026490066225	0.131496688741722	0.213933774834437	-1.4482119205298	0.0519205298013249	-0.0574834437086077				0.415788079470199	-0.206834437086093	-0.820238410596026	0.0203973509933773	0.157615894039735	0.645298013245032			
29	680	-0.216158940397351	0.162754966887417	-0.935523178807947	0.313377483443709	0.135364238410596	-0.624900662251656				0.912953642384106	0.0957880794701987	0.445139072847682	-0.406092715231788	1.14781456953642	0.53403973509934				-0.266172185430464	-0.0812715231788079	-0.88794701986755	0.287417218543046	1.26649006622517	0.0797350993377501				0.368529801324503	-0.0325298013245033	-0.901721854304636	-0.877086092715232	0.1835761589404	2.18437086092715				0.932026490066225	0.147496688741722	0.229933774834437	-0.888211920529802	1.73192052980133	-0.0574834437086077				0.431788079470199	-0.222834437086093	-0.820238410596026	0.300397350993377	0.997615894039735	0.925298013245032			
30	700	-0.216158940397351	0.162754966887417	-0.935523178807947	-0.246622516556291	0.695364238410596	-1.18490066225166				0.912953642384106	0.0957880794701987	0.461139072847682	1.83390728476821	0.307814569536424	0.53403973509934				-0.266172185430464	-0.0812715231788079	-0.87194701986755	0.567417218543046	0.426490066225167	0.0797350993377501				0.352529801324503	-0.0485298013245033	-0.885721854304636	-1.15708609271523	0.4635761589404	2.46437086092715				0.948026490066225	0.115496688741722	0.229933774834437	-0.328211920529802	1.17192052980133	-0.0574834437086077				0.431788079470199	-0.222834437086093	-0.820238410596026	-0.539602649006623	1.55761589403974	1.48529801324503			
31	720	-0.200158940397351	0.162754966887417	-0.919523178807947	0.0333774834437086	0.695364238410596	-1.18490066225166				0.912953642384106	0.0957880794701987	0.445139072847682	2.39390728476821	-0.252185430463576	0.25403973509934				-0.266172185430464	-0.0972715231788079	-0.87194701986755	0.287417218543046	-0.413509933774833	0.0797350993377501				0.368529801324503	-0.0485298013245033	-0.901721854304636	-0.877086092715232	0.4635761589404	2.74437086092715				0.948026490066225	0.115496688741722	0.229933774834437	0.231788079470198	0.611920529801325	-0.337483443708608				0.431788079470199	-0.222834437086093	-0.820238410596026	-1.09960264900662	0.717615894039735	0.365298013245032			
32	740	-0.200158940397351	0.146754966887417	-0.935523178807947	-0.246622516556291	-0.144635761589404	-0.624900662251656				0.912953642384106	0.0957880794701987	0.445139072847682	1.83390728476821	-0.252185430463576	-0.0259602649006601				-0.266172185430464	-0.0972715231788079	-0.87194701986755	1.96741721854305	0.706490066225167	-0.20026490066225				0.368529801324503	-0.0325298013245033	-0.901721854304636	-2.27708609271523	1.0235761589404	3.02437086092715				0.948026490066225	0.131496688741722	0.213933774834437	-0.608211920529802	2.29192052980133	-0.617483443708608				0.431788079470199	-0.222834437086093	-0.820238410596026	1.14039735099338	0.437615894039735	-0.754701986754968			
33	760	-0.216158940397351	0.162754966887417	-0.935523178807947	0.313377483443709	0.135364238410596	-1.18490066225166				0.912953642384106	0.0957880794701987	0.461139072847682	1.83390728476821	0.867814569536424	0.81403973509934				-0.266172185430464	-0.0972715231788079	-0.87194701986755	0.847417218543046	0.146490066225167	0.0797350993377501				0.368529801324503	-0.0325298013245033	-0.901721854304636	-1.71708609271523	0.7435761589404	1.62437086092715				0.932026490066225	0.131496688741722	0.229933774834437	-0.0482119205298018	2.01192052980133	-0.897483443708608				0.431788079470199	-0.222834437086093	-0.820238410596026	0.0203973509933773	1.55761589403974	0.925298013245032			
34	780	-0.200158940397351	0.146754966887417	-0.935523178807947	0.593377483443709	0.415364238410596	-0.624900662251656				0.912953642384106	0.0957880794701987	0.461139072847682	2.11390728476821	0.587814569536424	1.65403973509934				-0.266172185430464	-0.0812715231788079	-0.87194701986755	0.00741721854304636	0.146490066225167	-0.20026490066225				0.368529801324503	-0.0325298013245033	-0.901721854304636	-0.317086092715232	1.3035761589404	1.06437086092715				0.932026490066225	0.131496688741722	0.245933774834437	-0.0482119205298018	1.45192052980132	-1.73748344370861				0.431788079470199	-0.222834437086093	-0.820238410596026	-0.819602649006623	1.83761589403974	0.925298013245032			
35	800	-0.200158940397351	0.146754966887417	-0.935523178807947	0.0333774834437086	0.135364238410596	-0.624900662251656				0.896953642384106	0.0957880794701987	0.445139072847682	0.433907284768212	2.26781456953642	1.37403973509934				-0.266172185430464	-0.0812715231788079	-0.88794701986755	0.287417218543046	0.146490066225167	-0.20026490066225				0.368529801324503	-0.0325298013245033	-0.901721854304636	-1.15708609271523	1.5835761589404	1.06437086092715				0.948026490066225	0.131496688741722	0.213933774834437	-1.7282119205298	2.01192052980133	-2.01748344370861				0.431788079470199	-0.222834437086093	-0.820238410596026	0.0203973509933773	1.27761589403974	0.645298013245032			
36	820	-0.216158940397351	0.146754966887417	-0.903523178807947	0.593377483443709	0.135364238410596	-1.46490066225166				0.912953642384106	0.0957880794701987	0.477139072847682	-0.686092715231788	2.82781456953642	0.81403973509934				-0.266172185430464	-0.0972715231788079	-0.87194701986755	0.847417218543046	0.426490066225167	-0.76026490066225				0.368529801324503	-0.0325298013245033	-0.885721854304636	-1.71708609271523	1.5835761589404	-0.0556291390728476				0.948026490066225	0.131496688741722	0.245933774834437	1.6317880794702	1.45192052980132	-0.897483443708608				0.447788079470199	-0.222834437086093	-0.836238410596026	0.0203973509933773	0.997615894039735	-0.474701986754968			
37	840	-0.216158940397351	0.162754966887417	-0.919523178807947	-0.246622516556291	0.415364238410596	-0.904900662251656				0.912953642384106	0.0957880794701987	0.477139072847682	0.153907284768212	0.587814569536424	-1.14596026490066				-0.266172185430464	-0.0972715231788079	-0.88794701986755	0.00741721854304636	0.706490066225167	-0.20026490066225				0.368529801324503	-0.0325298013245033	-0.885721854304636	-1.99708609271523	1.0235761589404	-0.0556291390728476				0.948026490066225	0.131496688741722	0.245933774834437	1.0717880794702	2.01192052980133	-0.617483443708608				0.447788079470199	-0.222834437086093	-0.836238410596026	0.300397350993377	1.55761589403974	-0.474701986754968			
38	860	-0.216158940397351	0.146754966887417	-0.935523178807947	-0.246622516556291	0.695364238410596	-0.904900662251656				0.912953642384106	0.0957880794701987	0.445139072847682	1.55390728476821	0.0278145695364242	0.25403973509934				-0.266172185430464	-0.0972715231788079	-0.88794701986755	-0.552582781456954	0.426490066225167	0.0797350993377501				0.368529801324503	-0.0165298013245033	-0.901721854304636	-0.0370860927152318	1.8635761589404	0.224370860927152				0.948026490066225	0.147496688741722	0.245933774834437	-0.328211920529802	1.73192052980133	-0.617483443708608				0.447788079470199	-0.222834437086093	-0.820238410596026	-0.259602649006623	1.27761589403974	-1.03470198675497			
39	880	-0.200158940397351	0.146754966887417	-0.935523178807947	0.593377483443709	0.695364238410596	-0.344900662251656				0.912953642384106	0.0957880794701987	0.461139072847682	1.83390728476821	0.587814569536424	0.25403973509934				-0.266172185430464	-0.0812715231788079	-0.87194701986755	0.567417218543046	0.986490066225167	-0.20026490066225				0.368529801324503	-0.0325298013245033	-0.901721854304636	1.36291390728477	2.7035761589404	1.06437086092715				0.948026490066225	0.131496688741722	0.245933774834437	0.511788079470198	1.73192052980133	-0.897483443708608				0.463788079470199	-0.222834437086093	-0.820238410596026	0.0203973509933773	1.83761589403974	-0.754701986754968			
40	900	-0.200158940397351	0.146754966887417	-0.935523178807947	-0.246622516556291	0.975364238410596	-1.74490066225166				0.896953642384106	0.0957880794701987	0.461139072847682	2.67390728476821	-0.812185430463576	0.53403973509934				-0.250172185430464	-0.0972715231788079	-0.88794701986755	0.00741721854304636	0.986490066225167	0.0797350993377501				0.384529801324503	-0.0485298013245033	-0.917721854304636	1.92291390728477	1.8635761589404	1.90437086092715				0.948026490066225	0.147496688741722	0.229933774834437	-0.0482119205298018	0.331920529801325	-0.897483443708608				0.447788079470199	-0.222834437086093	-0.820238410596026	0.580397350993377	1.55761589403974	-0.754701986754968			
41	920	-0.200158940397351	0.162754966887417	-0.935523178807947	-0.246622516556291	0.695364238410596	-0.344900662251656				0.912953642384106	0.0957880794701987	0.445139072847682	2.67390728476821	-0.532185430463576	1.37403973509934				-0.250172185430464	-0.0972715231788079	-0.87194701986755	-0.272582781456954	-0.133509933774833	-0.20026490066225				0.384529801324503	-0.0485298013245033	-0.901721854304636	-1.15708609271523	0.7435761589404	0.224370860927152				0	0	0	0	0	0				0	0	0	0	0	0			
42	940	-0.200158940397351	0.146754966887417	-0.935523178807947	-0.246622516556291	0.135364238410596	-1.18490066225166				0.896953642384106	0.0797880794701987	0.445139072847682	2.11390728476821	-1.09218543046358	0.81403973509934				-0.266172185430464	-0.0972715231788079	-0.87194701986755	0.567417218543046	0.146490066225167	0.0797350993377501				0	0	0	0	0	0				0	0	0	0	0	0				0	0	0	0	0	0			
43	1040	0	0	0	0	0	0				0	0	0	0	0	0				0	0	0	0	0	0				0	0	0	0	0	0				0.932026490066225	0.131496688741722	0.245933774834437	1.6317880794702	0.891920529801325	0.502516556291392				0.431788079470199	-0.222834437086093	-0.820238410596026	0.0203973509933773	-0.962384105960265	-0.474701986754968			
44	1060	-0.216158940397351	0.162754966887417	-0.919523178807947	0.593377483443709	-0.424635761589404	-0.904900662251656				0.912953642384106	0.0797880794701987	0.461139072847682	0.713907284768212	2.26781456953642	0.25403973509934				-0.266172185430464	-0.0812715231788079	-0.87194701986755	0.287417218543046	-0.413509933774833	-0.48026490066225				0.368529801324503	-0.0325298013245033	-0.885721854304636	-0.597086092715232	-0.3764238410596	0.504370860927152				0.932026490066225	0.147496688741722	0.261933774834437	1.0717880794702	0.331920529801325	-0.337483443708608				0.447788079470199	-0.222834437086093	-0.804238410596027	0.0203973509933773	0.717615894039735	-1.31470198675497			
45	1080	-0.216158940397351	0.162754966887417	-0.903523178807947	-0.806622516556291	-0.144635761589404	-1.46490066225166				0.912953642384106	0.0957880794701987	0.445139072847682	-1.80609271523179	1.70781456953642	-1.70596026490066				-0.250172185430464	-0.0972715231788079	-0.87194701986755	0.00741721854304636	-0.413509933774833	-0.48026490066225				0.368529801324503	-0.0165298013245033	-0.901721854304636	-0.597086092715232	-0.3764238410596	-0.335629139072848				0.932026490066225	0.147496688741722	0.245933774834437	-0.608211920529802	-0.508079470198675	-0.617483443708608				0.447788079470199	-0.222834437086093	-0.804238410596027	0.300397350993377	0.997615894039735	-2.43470198675497			
46	1100	-0.200158940397351	0.146754966887417	-0.919523178807947	-0.806622516556291	0.135364238410596	-1.18490066225166				0.896953642384106	0.0797880794701987	0.461139072847682	-3.76609271523179	1.14781456953642	-0.86596026490066				-0.266172185430464	-0.0972715231788079	-0.88794701986755	0.00741721854304636	-0.973509933774833	-0.20026490066225				0.368529801324503	-0.0325298013245033	-0.901721854304636	0.522913907284768	-0.3764238410596	-0.335629139072848				0.948026490066225	0.147496688741722	0.245933774834437	-0.608211920529802	0.0519205298013249	-0.0574834437086077				0.447788079470199	-0.222834437086093	-0.820238410596026	0.580397350993377	0.157615894039735	-1.59470198675497			
47	1120	-0.216158940397351	0.146754966887417	-0.951523178807947	-0.806622516556291	0.135364238410596	-1.18490066225166				0.912953642384106	0.111788079470199	0.461139072847682	-2.08609271523179	-0.252185430463576	0.53403973509934				-0.266172185430464	-0.0972715231788079	-0.87194701986755	0.287417218543046	-0.133509933774833	-0.48026490066225				0.368529801324503	-0.0485298013245033	-0.901721854304636	-0.877086092715232	-0.0964238410596001	0.224370860927152				0.948026490066225	0.131496688741722	0.245933774834437	-0.608211920529802	0.891920529801325	-0.0574834437086077				0.447788079470199	-0.238834437086093	-0.836238410596026	1.14039735099338	-0.122384105960265	-1.59470198675497			
48	1140	-0.200158940397351	0.146754966887417	-0.935523178807947	-1.08662251655629	0.135364238410596	-1.18490066225166				0.896953642384106	0.111788079470199	0.477139072847682	1.55390728476821	2.82781456953642	0.25403973509934				-0.266172185430464	-0.0972715231788079	-0.87194701986755	-1.39258278145695	0.146490066225167	-0.48026490066225				0.384529801324503	-0.0325298013245033	-0.901721854304636	-1.15708609271523	-0.6564238410596	-0.0556291390728476				0.948026490066225	0.131496688741722	0.261933774834437	-0.888211920529802	1.17192052980133	-0.0574834437086077				0.447788079470199	-0.222834437086093	-0.836238410596026	0.580397350993377	-0.962384105960265	-0.754701986754968			
49	1160	-0.216158940397351	0.162754966887417	-0.935523178807947	-0.246622516556291	0.415364238410596	-1.46490066225166				0.912953642384106	0.0957880794701987	0.477139072847682	4.35390728476821	1.98781456953642	1.37403973509934				-0.266172185430464	-0.0812715231788079	-0.88794701986755	-0.272582781456954	0.146490066225167	0.0797350993377501				0.384529801324503	-0.0165298013245033	-0.885721854304636	-0.597086092715232	-0.3764238410596	1.06437086092715				0.964026490066225	0.147496688741722	0.245933774834437	-0.328211920529802	1.73192052980133	1.06251655629139				0.447788079470199	-0.238834437086093	-0.820238410596026	0.580397350993377	-0.122384105960265	-0.194701986754968			
50	1180	-0.216158940397351	0.162754966887417	-0.935523178807947	0.0333774834437086	0.135364238410596	-0.344900662251656				0.912953642384106	0.0957880794701987	0.461139072847682	4.63390728476821	-1.65218543046358	0.25403973509934				-0.266172185430464	-0.0812715231788079	-0.88794701986755	1.12741721854305	0.426490066225167	0.0797350993377501				0.384529801324503	-0.0325298013245033	-0.901721854304636	1.36291390728477	0.7435761589404	0.784370860927152				0.964026490066225	0.147496688741722	0.245933774834437	0.231788079470198	0.611920529801325	0.222516556291392				0.431788079470199	-0.222834437086093	-0.804238410596027	0.0203973509933773	0.157615894039735	0.645298013245032			
51	1200	-0.216158940397351	0.162754966887417	-0.919523178807947	0.593377483443709	0.135364238410596	-0.904900662251656				0.912953642384106	0.0957880794701987	0.429139072847682	3.23390728476821	-4.73218543046358	0.25403973509934				-0.266172185430464	-0.0812715231788079	-0.87194701986755	0.567417218543046	-0.133509933774833	0.35973509933775				0.368529801324503	-0.0165298013245033	-0.901721854304636	1.92291390728477	1.5835761589404	1.06437086092715				0.948026490066225	0.147496688741722	0.245933774834437	-0.328211920529802	-1.06807947019868	0.222516556291392				0.431788079470199	-0.222834437086093	-0.820238410596026	-1.37960264900662	0.717615894039735	0.365298013245032			
52	1220	-0.200158940397351	0.146754966887417	-0.935523178807947	-0.246622516556291	0.415364238410596	-0.904900662251656				0.896953642384106	0.0957880794701987	0.445139072847682	0.713907284768212	-2.77218543046358	-0.30596026490066				-0.266172185430464	-0.0812715231788079	-0.87194701986755	-0.272582781456954	0.426490066225167	0.63973509933775				0.368529801324503	-0.0325298013245033	-0.901721854304636	2.20291390728477	0.7435761589404	0.224370860927152				0.932026490066225	0.131496688741722	0.245933774834437	-0.608211920529802	-1.90807947019868	-0.0574834437086077				0.431788079470199	-0.206834437086093	-0.804238410596027	0.0203973509933773	0.437615894039735	-0.754701986754968			
53	1240	-0.200158940397351	0.146754966887417	-0.935523178807947	-1.08662251655629	0.695364238410596	-0.624900662251656				0.896953642384106	0.111788079470199	0.461139072847682	0.993907284768212	0.867814569536424	1.37403973509934				-0.266172185430464	-0.0812715231788079	-0.87194701986755	0.567417218543046	0.146490066225167	-0.20026490066225				0.368529801324503	-0.0325298013245033	-0.885721854304636	0.802913907284768	-0.3764238410596	-0.615629139072848				0.932026490066225	0.131496688741722	0.229933774834437	0.231788079470198	-1.34807947019868	-0.337483443708608				0.415788079470199	-0.222834437086093	-0.820238410596026	0.860397350993377	0.437615894039735	-2.15470198675497			
54	1260	-0.200158940397351	0.162754966887417	-0.935523178807947	0.0333774834437086	0.695364238410596	-0.624900662251656				0.912953642384106	0.0957880794701987	0.445139072847682	3.23390728476821	0.0278145695364242	1.09403973509934				-0.266172185430464	-0.0812715231788079	-0.87194701986755	0.00741721854304636	0.706490066225167	-0.48026490066225				0.368529801324503	-0.0325298013245033	-0.901721854304636	-0.597086092715232	-0.6564238410596	-0.615629139072848				0.932026490066225	0.147496688741722	0.245933774834437	1.3517880794702	0.0519205298013249	0.222516556291392				0.431788079470199	-0.222834437086093	-0.820238410596026	-1.09960264900662	-0.122384105960265	-1.31470198675497			
55	1280	-0.200158940397351	0.146754966887417	-0.935523178807947	-1.08662251655629	0.695364238410596	-1.46490066225166				0.896953642384106	0.0957880794701987	0.461139072847682	3.23390728476821	0.0278145695364242	1.65403973509934				-0.250172185430464	-0.0812715231788079	-0.87194701986755	-0.552582781456954	-0.133509933774833	-0.48026490066225				0.352529801324503	-0.0325298013245033	-0.901721854304636	-0.597086092715232	0.1835761589404	-0.0556291390728476				0.932026490066225	0.147496688741722	0.245933774834437	1.3517880794702	0.891920529801325	-0.0574834437086077				0.447788079470199	-0.222834437086093	-0.820238410596026	-0.819602649006623	0.717615894039735	-1.03470198675497			
56	1300	-0.200158940397351	0.162754966887417	-0.935523178807947	-0.806622516556291	0.135364238410596	-0.904900662251656				0.896953642384106	0.0957880794701987	0.461139072847682	2.39390728476821	-0.252185430463576	1.65403973509934				-0.250172185430464	-0.0812715231788079	-0.87194701986755	0.567417218543046	0.146490066225167	-0.48026490066225				0.352529801324503	-0.0325298013245033	-0.869721854304636	0.522913907284768	1.0235761589404	0.504370860927152				0.932026490066225	0.131496688741722	0.229933774834437	0.791788079470198	0.331920529801325	-0.0574834437086077				0.447788079470199	-0.222834437086093	-0.804238410596027	0.580397350993377	0.717615894039735	-0.754701986754968			
57	1320	-0.200158940397351	0.162754966887417	-0.935523178807947	-0.806622516556291	0.415364238410596	-0.624900662251656				0.896953642384106	0.0957880794701987	0.445139072847682	1.27390728476821	0.587814569536424	0.81403973509934				-0.266172185430464	-0.0812715231788079	-0.87194701986755	0.00741721854304636	-0.133509933774833	-0.48026490066225				0.368529801324503	-0.0325298013245033	-0.885721854304636	1.08291390728477	2.1435761589404	0.784370860927152				0.916026490066225	0.147496688741722	0.261933774834437	1.3517880794702	2.85192052980133	-0.337483443708608				0.431788079470199	-0.238834437086093	-0.820238410596026	-0.259602649006623	-0.122384105960265	0.365298013245032			
58	1340	-0.216158940397351	0.162754966887417	-0.935523178807947	0.0333774834437086	0.135364238410596	-1.18490066225166				0.896953642384106	0.0957880794701987	0.461139072847682	0.433907284768212	1.70781456953642	0.81403973509934				-0.266172185430464	-0.0972715231788079	-0.87194701986755	1.12741721854305	0.146490066225167	-0.48026490066225				0.384529801324503	-0.0325298013245033	-0.901721854304636	0.802913907284768	1.5835761589404	0.224370860927152				0.932026490066225	0.147496688741722	0.229933774834437	-0.328211920529802	-0.788079470198675	0.222516556291392				0.447788079470199	-0.222834437086093	-0.804238410596027	-0.259602649006623	-0.122384105960265	1.48529801324503			
59	1360	-0.216158940397351	0.162754966887417	-0.935523178807947	0.593377483443709	0.415364238410596	-0.904900662251656				0.912953642384106	0.111788079470199	0.461139072847682	2.67390728476821	1.42781456953642	0.53403973509934				-0.266172185430464	-0.0812715231788079	-0.88794701986755	0.847417218543046	0.146490066225167	0.35973509933775				0.384529801324503	-0.0485298013245033	-0.901721854304636	0.242913907284768	2.1435761589404	0.784370860927152				0.932026490066225	0.147496688741722	0.245933774834437	-2.2882119205298	1.73192052980133	-1.17748344370861				0.447788079470199	-0.222834437086093	-0.820238410596026	0.0203973509933773	0.157615894039735	1.20529801324503			
60	1380	-0.200158940397351	0.162754966887417	-0.935523178807947	0.313377483443709	-0.424635761589404	-0.344900662251656				0.896953642384106	0.0957880794701987	0.445139072847682	1.27390728476821	3.10781456953642	0.53403973509934				-0.266172185430464	-0.0972715231788079	-0.88794701986755	0.287417218543046	0.426490066225167	0.0797350993377501				0.368529801324503	-0.0325298013245033	-0.901721854304636	-0.0370860927152318	2.9835761589404	0.504370860927152				0.932026490066225	0.147496688741722	0.261933774834437	-2.2882119205298	0.891920529801325	-1.17748344370861				0.447788079470199	-0.222834437086093	-0.820238410596026	-0.819602649006623	0.717615894039735	2.04529801324503			
61	1400	-0.200158940397351	0.146754966887417	-0.935523178807947	0.0333774834437086	0.135364238410596	-1.46490066225166				0.896953642384106	0.0957880794701987	0.477139072847682	-2.64609271523179	2.82781456953642	-0.585960264900661				-0.250172185430464	-0.0812715231788079	-0.87194701986755	1.12741721854305	0.146490066225167	-0.20026490066225				0.352529801324503	-0.0165298013245033	-0.901721854304636	-0.0370860927152318	2.9835761589404	1.06437086092715				0.948026490066225	0.131496688741722	0.229933774834437	-1.7282119205298	0.331920529801325	-0.337483443708608				0.447788079470199	-0.222834437086093	-0.820238410596026	-0.819602649006623	0.157615894039735	1.76529801324503			
62	1420	-0.200158940397351	0.146754966887417	-0.935523178807947	0.873377483443709	0.415364238410596	-1.74490066225166				0.896953642384106	0.0957880794701987	0.493139072847682	-0.686092715231788	0.867814569536424	1.37403973509934				-0.266172185430464	-0.0972715231788079	-0.87194701986755	1.12741721854305	-0.413509933774833	-0.20026490066225				0.368529801324503	-0.0325298013245033	-0.885721854304636	0.802913907284768	1.8635761589404	1.90437086092715				0.932026490066225	0.147496688741722	0.245933774834437	0.231788079470198	0.891920529801325	-0.0574834437086077				0.463788079470199	-0.222834437086093	-0.836238410596026	-0.259602649006623	-0.122384105960265	3.44529801324503			
63	1440	-0.216158940397351	0.162754966887417	-0.935523178807947	-0.526622516556291	-0.424635761589404	-1.74490066225166				0.912953642384106	0.0797880794701987	0.461139072847682	5.75390728476821	3.94781456953642	3.61403973509934				-0.266172185430464	-0.0972715231788079	-0.88794701986755	-0.272582781456954	-0.133509933774833	-0.48026490066225				0.384529801324503	-0.0325298013245033	-0.901721854304636	-1.15708609271523	0.7435761589404	1.34437086092715				0.932026490066225	0.147496688741722	0.245933774834437	-2.2882119205298	2.01192052980133	0.782516556291392				0.447788079470199	-0.222834437086093	-0.852238410596026	0.580397350993377	0.437615894039735	2.32529801324503			
64	1460	-0.216158940397351	0.146754966887417	-0.951523178807947	-0.246622516556291	0.975364238410596	-2.02490066225166				0.912953642384106	0.0797880794701987	0.461139072847682	4.91390728476821	4.50781456953642	0.81403973509934				-0.266172185430464	-0.0972715231788079	-0.87194701986755	-0.272582781456954	0.146490066225167	-1.04026490066225				0.368529801324503	-0.0325298013245033	-0.901721854304636	-1.15708609271523	1.3035761589404	2.46437086092715				0.948026490066225	0.131496688741722	0.245933774834437	-3.1282119205298	2.85192052980133	0.782516556291392				0.431788079470199	-0.222834437086093	-0.836238410596026	1.98039735099338	1.55761589403974	3.72529801324503			
65	1480	-0.216158940397351	0.146754966887417	-0.951523178807947	1.43337748344371	-0.144635761589404	-1.74490066225166				0.912953642384106	0.0957880794701987	0.445139072847682	-0.406092715231788	-2.21218543046358	-1.70596026490066				-0.266172185430464	-0.0812715231788079	-0.87194701986755	0.287417218543046	0.426490066225167	-0.76026490066225				0.368529801324503	-0.0485298013245033	-0.917721854304636	5.56291390728477	-0.3764238410596	1.34437086092715				0.948026490066225	0.131496688741722	0.245933774834437	-2.5682119205298	1.45192052980132	-0.337483443708608				0.431788079470199	-0.238834437086093	-0.836238410596026	2.82039735099338	0.717615894039735	4.84529801324503			
66	1500	-0.200158940397351	0.146754966887417	-0.935523178807947	-0.246622516556291	-0.424635761589404	-1.46490066225166				0.896953642384106	0.127788079470199	0.445139072847682	-3.76609271523179	-2.77218543046358	-0.585960264900661				-0.266172185430464	-0.0812715231788079	-0.87194701986755	0.567417218543046	-0.133509933774833	0.0797350993377501				0.336529801324503	-0.0485298013245033	-0.869721854304636	27.9629139072848	-12.6964238410596	-3.13562913907285				0.932026490066225	0.115496688741722	0.213933774834437	-5.0882119205298	2.01192052980133	-0.0574834437086077				0.431788079470199	-0.238834437086093	-0.852238410596026	2.82039735099338	1.27761589403974	6.52529801324503			
67	1520	-0.200158940397351	0.146754966887417	-0.919523178807947	-1.08662251655629	0.415364238410596	-0.344900662251656				0.896953642384106	0.111788079470199	0.461139072847682	0.153907284768212	-1.09218543046358	1.93403973509934				-0.282172185430464	-0.0812715231788079	-0.88794701986755	0.847417218543046	-0.413509933774833	-0.48026490066225				0.320529801324503	-0.0645298013245033	-0.949721854304636	12.0029139072848	-10.1764238410596	-2.01562913907285				0.932026490066225	0.131496688741722	0.213933774834437	-6.2082119205298	3.97192052980133	1.06251655629139				0.431788079470199	-0.238834437086093	-0.836238410596026	1.70039735099338	1.83761589403974	10.445298013245			
68	1540	-0.200158940397351	0.146754966887417	-0.919523178807947	0.313377483443709	0.415364238410596	-0.0649006622516557				0.912953642384106	0.0797880794701987	0.445139072847682	3.79390728476821	-1.37218543046358	0.81403973509934				-0.266172185430464	-0.0812715231788079	-0.87194701986755	0.567417218543046	1.54649006622517	-1.32026490066225				0.368529801324503	-0.0485298013245033	-0.933721854304636	6.96291390728477	-9.3364238410596	-5.09562913907285				0.932026490066225	0.131496688741722	0.229933774834437	-6.4882119205298	3.13192052980133	-0.0574834437086077				0.431788079470199	-0.238834437086093	-0.804238410596027	4.22039735099338	-2.92238410596027	14.085298013245			
69	1560	-0.216158940397351	0.146754966887417	-0.919523178807947	-0.806622516556291	-0.984635761589404	-0.904900662251656				0.912953642384106	0.143788079470199	0.397139072847682	-0.686092715231788	-7.25218543046358	-3.66596026490066				-0.266172185430464	-0.0812715231788079	-0.85594701986755	1.12741721854305	0.146490066225167	-1.60026490066225				0.336529801324503	-0.0325298013245033	-0.933721854304636	-3.67708609271523	-11.0164238410596	-5.09562913907285				0.932026490066225	0.163496688741722	0.213933774834437	-8.7282119205298	3.13192052980133	-1.45748344370861				0.415788079470199	-0.286834437086093	-0.852238410596026	3.66039735099338	-9.64238410596027	20.245298013245			
70	1580	-0.200158940397351	0.162754966887417	-0.935523178807947	-2.48662251655629	-0.424635761589404	-0.0649006622516557				0.880953642384106	0.143788079470199	0.413139072847682	-5.16609271523179	-0.532185430463576	2.77403973509934				-0.266172185430464	-0.0812715231788079	-0.87194701986755	2.52741721854305	0.146490066225167	-2.16026490066225				0.336529801324503	-0.0485298013245033	-0.901721854304636	-1.99708609271523	-6.8164238410596	-2.57562913907285				0.948026490066225	0.179496688741722	0.213933774834437	-8.7282119205298	1.73192052980133	0.502516556291392				0.399788079470199	-0.254834437086093	-0.884238410596026	-0.259602649006623	-9.08238410596027	28.645298013245			
71	1600	-0.200158940397351	0.162754966887417	-0.951523178807947	-3.04662251655629	-0.704635761589404	0.495099337748344				0.928953642384106	0.0957880794701987	0.429139072847682	0.713907284768212	5.90781456953642	8.65403973509934				-0.250172185430464	-0.0652715231788079	-0.88794701986755	0.00741721854304636	-0.133509933774833	-2.16026490066225				0.320529801324503	-0.0645298013245033	-0.933721854304636	6.96291390728477	-6.5364238410596	-4.25562913907285				0.964026490066225	0.163496688741722	0.197933774834437	-6.4882119205298	5.37192052980133	0.782516556291392				0.367788079470199	-0.238834437086093	-0.916238410596027	-1.37960264900662	-8.52238410596027	33.125298013245			
72	1620	-0.184158940397351	0.178754966887417	-0.935523178807947	-0.806622516556291	0.415364238410596	1.89509933774834				0.992953642384106	0.0477880794701987	0.413139072847682	-1.24609271523179	1.42781456953642	6.41403973509934				-0.234172185430464	-0.0652715231788079	-0.88794701986755	2.24741721854305	-1.25350993377483	-3.00026490066225				0.320529801324503	-0.0485298013245033	-0.965721854304636	2.76291390728477	-7.6564238410596	-4.53562913907285				0.980026490066225	0.147496688741722	0.165933774834437	-6.4882119205298	6.49192052980132	0.782516556291392				0.383788079470199	-0.222834437086093	-0.900238410596026	8.42039735099338	-10.2023841059603	34.805298013245			
73	1640	-0.200158940397351	0.162754966887417	-0.935523178807947	-1.36662251655629	2.3753642384106	3.57509933774835				0.976953642384106	0.159788079470199	0.365139072847682	-10.4860927152318	-8.93218543046358	0.81403973509934				-0.234172185430464	-0.0812715231788079	-0.88794701986755	3.92741721854305	-0.973509933774833	-4.12026490066225				0.368529801324503	-0.0965298013245033	-0.965721854304636	1.36291390728477	-7.9364238410596	-3.41562913907285				0.980026490066225	0.147496688741722	0.213933774834437	-1.7282119205298	5.93192052980133	2.74251655629139				0.335788079470199	-0.238834437086093	-0.900238410596026	12.9003973509934	-17.4823841059603	39.845298013245			
74	1660	-0.216158940397351	0.130754966887417	-0.919523178807947	-6.12662251655629	0.975364238410596	1.89509933774834				0.880953642384106	0.111788079470199	0.429139072847682	-7.12609271523179	-6.13218543046358	6.13403973509934				-0.282172185430464	-0.0812715231788079	-0.88794701986755	4.20741721854305	-0.693509933774834	-5.24026490066225				0.368529801324503	-0.0965298013245033	-0.949721854304636	-4.79708609271523	-12.1364238410596	-3.97562913907285				0.964026490066225	0.147496688741722	0.165933774834437	-0.888211920529802	6.77192052980133	3.02251655629139				0.303788079470199	-0.270834437086093	-0.916238410596027	6.18039735099338	-15.8023841059603	43.485298013245			
75	1680	-0.216158940397351	0.130754966887417	-0.951523178807947	-5.00662251655629	1.2553642384106	0.775099337748344				1.00895364238411	0.143788079470199	0.429139072847682	2.11390728476821	-2.21218543046358	8.65403973509934				-0.266172185430464	-0.0972715231788079	-0.88794701986755	3.64741721854305	-0.413509933774833	-6.64026490066225				0.352529801324503	-0.0965298013245033	-0.965721854304636	-5.35708609271523	-17.7364238410596	-2.01562913907285				1.01202649006623	0.131496688741722	0.181933774834437	5.2717880794702	8.45192052980133	3.58251655629139				0.287788079470199	-0.270834437086093	-0.964238410596026	8.98039735099338	-18.8823841059603	47.685298013245			
76	1700	-0.232158940397351	0.146754966887417	-0.967523178807947	-6.96662251655629	0.135364238410596	0.775099337748344				1.10495364238411	0.143788079470199	0.333139072847682	17.5139072847682	-22.0921854304636	12.0140397350993				-0.266172185430464	-0.0812715231788079	-0.88794701986755	4.48741721854305	0.986490066225167	-8.04026490066225				0.368529801324503	-0.0965298013245033	-1.02972185430464	-1.43708609271523	-18.8564238410596	-2.01562913907285				1.06002649006623	0.163496688741722	0.165933774834437	5.8317880794702	7.89192052980133	2.46251655629139				0.303788079470199	-0.286834437086093	-0.932238410596026	13.4603973509934	-21.1223841059603	52.165298013245			
77	1720	-0.264158940397351	0.194754966887417	-0.919523178807947	-10.8866225165563	0.975364238410596	3.57509933774835				1.07295364238411	0.175788079470199	0.285139072847682	19.4739072847682	-36.9321854304636	8.65403973509934				-0.282172185430464	-0.0652715231788079	-0.87194701986755	7.56741721854305	2.94649006622517	-8.32026490066225				0.352529801324503	-0.112529801324503	-1.06172185430464	-2.83708609271523	-18.0164238410596	-0.895629139072848				1.10802649006623	0.163496688741722	0.133933774834437	11.4317880794702	4.53192052980133	1.62251655629139				0.239788079470199	-0.318834437086093	-0.996238410596026	12.3403973509934	-24.7623841059603	59.445298013245			
78	1740	-0.248158940397351	0.162754966887417	-0.903523178807947	-13.9666225165563	2.0953642384106	5.25509933774834				1.05695364238411	0.239788079470199	0.253139072847682	16.1139072847682	-49.2521854304636	12.8540397350993				-0.314172185430464	-0.0492715231788079	-0.85594701986755	15.407417218543	0.706490066225167	-8.32026490066225				0.224529801324503	-0.144529801324503	-1.07772185430464	-2.83708609271523	-19.9764238410596	-0.335629139072848				1.10802649006623	0.163496688741722	0.0859337748344371	12.2717880794702	0.331920529801325	-0.617483443708608				0.223788079470199	-0.334834437086093	-1.02823841059603	7.02039735099338	-33.4423841059603	71.485298013245			
79	1760	-0.296158940397351	0.162754966887417	-0.919523178807947	-12.5666225165563	-0.704635761589404	5.25509933774834				1.08895364238411	0.207788079470199	0.237139072847682	16.3939072847682	-65.7721854304636	18.7340397350993				-0.362172185430464	-0.0492715231788079	-0.83994701986755	18.767417218543	0.146490066225167	-9.44026490066225				0.160529801324503	-0.0965298013245033	-1.07772185430464	-9.83708609271523	-24.7364238410596	-1.73562913907285				1.10802649006623	0.147496688741722	0.0219337748344371	15.6317880794702	-0.508079470198675	-2.01748344370861				0.175788079470199	-0.286834437086093	-0.996238410596026	-8.09960264900662	-39.3223841059603	78.765298013245			
80	1780	-0.376158940397351	0.162754966887417	-0.903523178807947	-24.0466225165563	-0.144635761589404	4.69509933774834				1.05695364238411	0.143788079470199	0.0611390728476822	23.1139072847682	-72.4921854304636	18.4540397350993				-0.362172185430464	-0.0972715231788079	-0.83994701986755	24.647417218543	0.426490066225167	-7.48026490066225				0.144529801324503	-0.112529801324503	-1.07772185430464	-3.95708609271523	-26.4164238410596	-5.09562913907285				1.12402649006623	0.0834966887417219	0.00593377483443711	20.9517880794702	-6.10807947019868	-1.17748344370861				0	0	0	0	0	0			
81	1800	-0.360158940397351	0.130754966887417	-0.935523178807947	-19.5666225165563	2.0953642384106	5.81509933774834				0.880953642384106	0.143788079470199	0.0611390728476822	4.63390728476821	-38.3321854304636	17.3340397350993				-0.378172185430464	-0.193271523178808	-0.88794701986755	21.8474172185431	1.54649006622517	-1.88026490066225				0.160529801324503	-0.176529801324503	-1.07772185430464	2.20291390728477	-30.8964238410596	-3.97562913907285				1.06002649006623	0.115496688741722	0.00593377483443711	17.0317880794702	-17.3080794701987	-0.617483443708608				0.143788079470199	-0.190834437086093	-0.996238410596026	8.42039735099338	-37.3623841059603	76.525298013245			
82	1820	-0.328158940397351	0.114754966887417	-0.951523178807947	-26.8466225165563	-0.144635761589404	4.41509933774834				0.944953642384106	0.159788079470199	0.141139072847682	-4.04609271523179	-12.5721854304636	25.7340397350993				-0.346172185430464	-0.257271523178808	-0.87194701986755	16.807417218543	8.82649006622517	6.51973509933775				0.192529801324503	-0.192529801324503	-1.07772185430464	-10.1170860927152	-39.8564238410596	-1.45562913907285				1.02802649006623	0.0834966887417219	-0.0100662251655629	22.3517880794702	-20.3880794701987	-1.17748344370861				-0.000211920529801336	-0.270834437086093	-0.948238410596026	15.4203973509934	-40.1623841059603	83.805298013245			
83	1840	-0.360158940397351	0.146754966887417	-0.951523178807947	-27.4066225165563	1.8153642384106	4.13509933774834				0.976953642384106	0.0157880794701987	0.0451390728476822	1.27390728476821	-16.7721854304636	37.2140397350993				-0.330172185430464	-0.305271523178808	-0.80794701986755	22.407417218543	9.94649006622517	9.03973509933775				0.0805298013245033	-0.160529801324503	-1.06172185430464	-21.5970860927152	-48.8164238410596	-5.37562913907285				0.996026490066225	0.0354966887417219	0.00593377483443711	26.8317880794702	-22.3480794701987	-0.897483443708608				-0.0162119205298013	-0.286834437086093	-1.01223841059603	-5.01960264900662	-40.1623841059603	94.4452980132451			
84	1860	-0.296158940397351	0.226754966887417	-0.903523178807947	-43.6466225165563	-1.2646357615894	7.49509933774834				0.960953642384106	0.0157880794701987	0.0931390728476822	-0.686092715231788	5.34781456953642	33.8540397350993				-0.314172185430464	-0.273271523178808	-0.90394701986755	33.8874172185431	6.02649006622517	9.03973509933775				0.0165298013245033	-0.160529801324503	-1.06172185430464	-15.7170860927152	-54.9764238410596	-10.9756291390728				0.996026490066225	0.00349668874172187	-0.0260662251655629	30.1917880794702	-19.5480794701987	1.34251655629139				-0.000211920529801336	-0.238834437086093	-0.932238410596026	-23.4996026490066	-25.8823841059603	102.565298013245			
85	1880	-0.296158940397351	0.210754966887417	-0.967523178807947	-44.4866225165563	8.2553642384106	12.5350993377483				0.848953642384106	0.0477880794701987	0.269139072847682	0.153907284768212	44.8278145695364	27.6940397350993				-0.378172185430464	-0.225271523178808	-0.91994701986755	29.6874172185431	7.42649006622517	17.1597350993378				0.112529801324503	-0.144529801324503	-1.04572185430464	-10.3970860927152	-52.4564238410596	-10.6956291390728				0.980026490066225	0.0354966887417219	0.0219337748344371	50.6317880794702	-14.7880794701987	2.46251655629139				-0.0642119205298013	-0.142834437086093	-0.996238410596026	1.70039735099338	-24.4823841059603	98.925298013245			
86	1900	-0.328158940397351	0.242754966887417	-1.03152317880795	-33.8466225165563	18.6153642384106	15.3350993377483				0.912953642384106	-0.0482119205298013	0.349139072847682	24.7939072847682	42.5878145695364	27.9740397350993				-0.426172185430464	-0.129271523178808	-0.99994701986755	14.007417218543	7.42649006622517	22.7597350993378				0.208529801324503	-0.112529801324503	-0.981721854304636	-1.71708609271523	-47.4164238410596	-7.89562913907285				1.04402649006623	-0.0445033112582781	0.133933774834437	28.2317880794702	-24.5880794701987	-4.81748344370861				-0.0802119205298013	-0.0628344370860927	-0.996238410596026	5.90039735099338	-16.9223841059603	94.165298013245			
87	1920	-0.312158940397351	0.210754966887417	-1.03152317880795	-26.5666225165563	20.5753642384106	20.0950993377483				0.928953642384106	-0.0162119205298013	0.365139072847682	27.5939072847682	50.7078145695364	20.6940397350993				-0.426172185430464	-0.113271523178808	-1.07994701986755	35.287417218543	24.5064900662252	20.7997350993378				0.192529801324503	-0.128529801324503	-0.933721854304636	-2.55708609271523	-44.0564238410596	-13.7756291390728				0	0	0	0	0	0				0	0	0	0	0	0			
88	1940	-0.344158940397351	0.194754966887417	-1.06352317880795	-31.8866225165563	27.2953642384106	27.9350993377483				1.02495364238411	0.0317880794701987	0.525139072847682	-7.68609271523179	87.6678145695364	13.4140397350993				-0.282172185430464	-0.0972715231788079	-0.95194701986755	34.1674172185431	28.1464900662252	15.7597350993378				0	0	0	0	0	0				0	0	0	0	0	0				0	0	0	0	0	0			
89	2040	0	0	0	0	0	0				0	0	0	0	0	0				0	0	0	0	0	0				0.304529801324503	0.0794701986754967	-1.22172185430464	8.36291390728477	31.2635761589404	-16.5756291390728				1.26802649006623	0.147496688741722	0.741933774834437	66.5917880794702	43.7319205298013	-11.5374834437086				-0.0322119205298013	-0.878834437086093	-0.628238410596026	142.540397350993	-82.4423841059603	-0.194701986754968			
90	2060	0	0	0	0	0	0				1.18495364238411	0.159788079470199	0.813139072847682	9.11390728476821	50.9878145695364	-13.4659602649007				-0.250172185430464	-0.433271523178808	-0.98394701986755	-5.59258278145695	61.4664900662252	1.47973509933775				0.336529801324503	0.0794701986754967	-1.22172185430464	15.0829139072848	30.9835761589404	-4.81562913907285				1.38002649006623	0.163496688741722	0.517933774834437	-0.328211920529802	27.4919205298013	-19.0974834437086				0.143788079470199	-0.622834437086093	-0.852238410596026	47.0603973509934	2.95761589403974	-12.514701986755			
91	2080	-0.056158940397351	0.450754966887417	-0.951523178807947	-13.9666225165563	77.4153642384106	54.8150993377484				1.21695364238411	0.0317880794701987	0.701139072847682	41.0339072847682	29.4278145695364	-12.3459602649007				-0.250172185430464	-0.257271523178808	-0.95194701986755	-22.952582781457	69.8664900662252	2.31973509933775				0.224529801324503	0.0154701986754967	-1.28572185430464	14.2429139072848	14.7435761589404	1.62437086092715				1.23602649006623	0.259496688741722	0.469933774834437	-8.1682119205298	14.6119205298013	-18.2574834437086				0.255788079470199	-0.830834437086093	-0.708238410596026	144.500397350993	-4.04238410596027	-12.794701986755			
92	2100	-0.024158940397351	0.530754966887417	-1.03152317880795	-9.76662251655629	84.6953642384106	52.8550993377483				1.18495364238411	-0.144211920529801	0.797139072847682	13.3139072847682	15.1478145695364	-13.1859602649007				-0.250172185430464	-0.177271523178808	-1.06394701986755	-17.632582781457	77.9864900662252	1.19973509933775				0.256529801324503	-0.0325298013245033	-1.34972185430464	0.802913907284768	3.8235761589404	-1.73562913907285				1.20402649006623	0.259496688741722	0.517933774834437	-16.2882119205298	16.2919205298013	-15.7374834437086				0.239788079470199	-0.974834437086093	-0.788238410596027	72.5403973509934	46.9176158940397	-24.834701986755			
93	2120	0.071841059602649	0.434754966887417	-0.983523178807947	15.4333774834437	95.6153642384106	43.6150993377484				1.12095364238411	-0.0642119205298013	0.893139072847682	-6.00609271523179	13.1878145695364	-19.3459602649007				-0.106172185430464	-0.241271523178808	-1.06394701986755	-3.63258278145695	89.4664900662252	-6.64026490066225				0.336529801324503	-0.0165298013245033	-1.36572185430464	-21.0370860927152	12.5035761589404	0.784370860927152				1.25202649006623	0.403496688741722	0.437933774834437	-19.0882119205298	15.1719205298013	-16.8574834437086				0.159788079470199	-0.798834437086093	-0.708238410596026	19.9003973509934	68.1976158940397	-18.954701986755			
94	2140	0.247841059602649	0.402754966887417	-0.983523178807947	25.2333774834437	99.5353642384106	34.9350993377483				1.10495364238411	0.0637880794701987	0.925139072847682	6.59390728476821	9.54781456953642	-21.3059602649007				-0.0421721854304636	-0.305271523178808	-1.03194701986755	-5.87258278145695	100.946490066225	-15.8802649006623				0.304529801324503	0.0794701986754967	-1.17372185430464	-28.0370860927152	20.6235761589404	11.9843708609272				1.22002649006623	0.419496688741722	0.325933774834437	-10.4082119205298	16.0119205298013	-17.9774834437086				0.143788079470199	-0.510834437086093	-0.788238410596027	-53.1796026490066	78.2776158940397	-13.634701986755			
95	2160	0.279841059602649	0.434754966887417	-0.967523178807947	16.8333774834437	106.815364238411	27.3750993377483				1.18495364238411	-0.0162119205298013	0.941139072847682	16.1139072847682	10.3878145695364	-12.6259602649007				-0.0101721854304636	-0.289271523178808	-1.07994701986755	-7.27258278145696	109.066490066225	-21.7602649006623				0.352529801324503	0.239470198675497	-1.10972185430464	-5.63708609271523	29.3035761589404	10.0243708609272				1.17202649006623	0.419496688741722	0.341933774834437	-7.8882119205298	16.2919205298013	-19.0974834437086				0.287788079470199	-0.366834437086093	-1.01223841059603	-52.6196026490066	90.3176158940397	-22.314701986755			
96	2180	0.295841059602649	0.402754966887417	-0.999523178807947	20.7533774834437	116.895364238411	23.7350993377483				1.12095364238411	0.0797880794701987	0.877139072847682	-1.24609271523179	22.1478145695364	-3.10596026490066				0.0538278145695364	-0.225271523178808	-1.04794701986755	-17.632582781457	115.226490066225	-25.9602649006623				0.448529801324503	0.159470198675497	-1.20572185430464	6.40291390728477	35.1835761589404	1.62437086092715				1.12402649006623	0.435496688741722	0.389933774834437	-0.328211920529802	18.8119205298013	-17.9774834437086				0.479788079470199	-0.558834437086093	-1.01223841059603	0.0203973509933773	79.9576158940397	-30.154701986755			
97	2200	0.359841059602649	0.370754966887417	-0.951523178807947	28.3133774834437	128.375364238411	19.8150993377483				0.992953642384106	0.143788079470199	0.797139072847682	-8.24609271523179	6.74781456953642	1.09403973509934				0.117827814569536	-0.193271523178808	-1.01594701986755	-19.872582781457	122.506490066225	-30.1602649006623				0.544529801324503	-0.000529801324503289	-1.26972185430464	4.72291390728477	45.5435761589404	-4.53562913907285				1.12402649006623	0.499496688741722	0.453933774834437	3.0317880794702	14.6119205298013	-18.8174834437086				0.383788079470199	-0.702834437086093	-0.980238410596026	38.1003973509934	67.6376158940397	-34.354701986755			
98	2220	0.407841059602649	0.306754966887417	-0.887523178807947	37.5533774834437	136.215364238411	15.3350993377483				0.992953642384106	0.191788079470199	0.829139072847682	-0.686092715231788	-5.29218543046358	3.05403973509934				0.181827814569536	-0.177271523178808	-0.96794701986755	-19.312582781457	128.106490066225	-34.6402649006623				0.480529801324503	0.0314701986754967	-1.18972185430464	-10.1170860927152	53.1035761589404	-7.89562913907285				1.12402649006623	0.467496688741722	0.437933774834437	8.3517880794702	15.1719205298013	-18.8174834437086				0.367788079470199	-0.718834437086093	-0.980238410596026	29.7003973509934	71.8376158940397	-34.074701986755			
99	2240	0.503841059602649	0.242754966887417	-0.855523178807947	40.6333774834437	139.295364238411	15.3350993377483				1.04095364238411	0.127788079470199	0.797139072847682	18.0739072847682	-15.6521854304636	8.65403973509934				0.245827814569536	-0.129271523178808	-0.91994701986755	-17.072582781457	134.266490066225	-36.3202649006623				0.304529801324503	0.127470198675497	-1.04572185430464	-14.5970860927152	57.3035761589404	-5.65562913907285				1.09202649006623	0.355496688741722	0.453933774834437	11.4317880794702	16.0119205298013	-16.8574834437086				0.479788079470199	-0.718834437086093	-0.948238410596026	20.1803973509934	70.7176158940397	-31.834701986755			
100	2260	0.487841059602649	0.194754966887417	-0.871523178807947	36.7133774834437	136.775364238411	14.7750993377483				1.10495364238411	-0.0322119205298013	0.813139072847682	15.2739072847682	-8.09218543046358	11.7340397350993				0.293827814569536	-0.129271523178808	-0.90394701986755	-12.592582781457	136.226490066225	-38.5602649006623				0.336529801324503	0.223470198675497	-0.949721854304636	5.28291390728477	67.3835761589404	1.34437086092715				1.07602649006623	0.291496688741722	0.469933774834437	5.5517880794702	22.4519205298013	-14.0574834437086				0.607788079470199	-0.702834437086093	-0.916238410596027	25.2203973509934	58.3976158940397	-28.474701986755			
101	2280	0.503841059602649	0.194754966887417	-0.839523178807947	28.8733774834437	141.255364238411	15.3350993377483				1.02495364238411	-0.0322119205298013	0.717139072847682	14.1539072847682	-14.2521854304636	8.65403973509934				0.293827814569536	-0.129271523178808	-0.90394701986755	-6.15258278145695	141.266490066225	-39.9602649006623				0.464529801324503	0.175470198675497	-0.949721854304636	23.7629139072848	78.5835761589404	8.34437086092715				1.07602649006623	0.339496688741722	0.469933774834437	-5.0882119205298	22.7319205298013	-10.4174834437086				0.623788079470199	-0.894834437086093	-0.804238410596027	35.5803973509934	47.1976158940397	-30.714701986755			
102	2300	0.503841059602649	0.162754966887417	-0.759523178807947	27.4733774834437	144.615364238411	16.1750993377483				1.07295364238411	0.191788079470199	0.637139072847682	35.1539072847682	-28.5321854304636	-1.14596026490066				0.389827814569536	-0.0652715231788079	-0.83994701986755	4.48741721854305	146.026490066225	-41.3602649006623				0.464529801324503	0.0314701986754967	-0.997721854304636	30.4829139072848	83.6235761589404	11.9843708609272				1.07602649006623	0.371496688741722	0.389933774834437	-13.7682119205298	19.0919205298013	-7.61748344370861				0.751788079470199	-0.894834437086093	-0.788238410596027	35.3003973509934	61.7576158940397	-39.394701986755			
103	2320	0.551841059602649	0.146754966887417	-0.695523178807947	21.5933774834437	150.775364238411	18.1350993377483				1.10495364238411	0.0157880794701987	0.605139072847682	48.0339072847682	-45.8921854304636	5.57403973509934				0.453827814569536	-0.0172715231788079	-0.72794701986755	11.207417218543	148.826490066225	-42.4802649006623				0.304529801324503	-0.000529801324503289	-0.917721854304636	21.2429139072848	83.0635761589404	9.18437086092715				0.980026490066225	0.307496688741722	0.325933774834437	-7.8882119205298	13.7719205298013	-1.73748344370861				0.495788079470199	-0.942834437086093	-0.788238410596027	38.1003973509934	40.4776158940397	-19.234701986755			
104	2340	0.535841059602649	0.162754966887417	-0.679523178807947	13.4733774834437	152.455364238411	19.8150993377483				1.00895364238411	-0.112211920529801	0.525139072847682	19.7539072847682	-54.2921854304636	5.01403973509934				0.405827814569536	-0.145271523178808	-0.69594701986755	7.56741721854305	151.066490066225	-40.2402649006623				0.320529801324503	0.0634701986754967	-0.789721854304636	25.4429139072848	90.3435761589404	11.9843708609272				0.964026490066225	0.211496688741722	0.309933774834437	-13.2082119205298	17.1319205298013	6.66251655629139				0.479788079470199	-0.814834437086093	-0.644238410596026	26.0603973509934	35.4376158940397	-9.15470198675497			
105	2360	0.455841059602649	0.178754966887417	-0.615523178807947	17.3933774834437	159.735364238411	20.9350993377483				0.816953642384106	-0.0482119205298013	0.461139072847682	2.11390728476821	-53.4521854304636	2.49403973509934				0.437827814569536	-0.289271523178808	-0.55194701986755	-7.55258278145695	156.946490066225	-34.0802649006623				0.400529801324503	0.0794701986754967	-0.661721854304636	39.1629139072848	96.7835761589404	20.3843708609272				0.900026490066225	0.131496688741722	0.325933774834437	-29.7282119205298	7.89192052980133	11.1425165562914				0.495788079470199	-0.686834437086093	-0.644238410596026	3.38039735099338	41.8776158940397	-5.51470198675497			
106	2380	0.471841059602649	0.146754966887417	-0.535523178807947	37.2733774834437	171.495364238411	19.2550993377483				0.800953642384106	-0.000211920529801304	0.333139072847682	-0.406092715231788	-55.1321854304636	-3.66596026490066				0.549827814569536	-0.177271523178808	-0.47194701986755	-36.952582781457	165.346490066225	-27.9202649006623				0.416529801324503	-0.000529801324503289	-0.645721854304636	49.2429139072848	87.8235761589404	27.9443708609272				0.788026490066225	0.211496688741722	0.309933774834437	-51.5682119205298	0.611920529801325	12.2625165562914				0.543788079470199	-0.510834437086093	-0.548238410596027	-16.4996026490066	43.5576158940397	-3.27470198675497			
107	2400	0.535841059602649	0.0987549668874172	-0.503523178807947	39.5133774834437	176.255364238411	13.9350993377483				0.832953642384106	0.0477880794701987	0.221139072847682	2.67390728476821	-61.8521854304636	-4.50596026490066				0.613827814569536	0.0147284768211921	-0.39194701986755	-41.152582781457	168.426490066225	-21.4802649006623				0.256529801324503	-0.128529801324503	-0.629721854304636	29.3629139072848	62.3435761589404	30.1843708609272				0.692026490066225	0.179496688741722	0.229933774834437	-52.1282119205298	-22.6280794701987	21.2225165562914				0.447788079470199	-0.382834437086093	-0.580238410596026	-20.4196026490066	36.8376158940397	-6.07470198675497			
108	2420	0.583841059602649	0.0667549668874172	-0.439523178807947	33.0733774834437	180.455364238411	13.0950993377483				0.736953642384106	0.159788079470199	0.189139072847682	21.7139072847682	-90.1321854304636	-12.6259602649007				0.629827814569536	0.190728476821192	-0.39194701986755	-17.352582781457	167.306490066225	-19.8002649006623				0.176529801324503	-0.112529801324503	-0.533721854304636	14.8029139072848	50.8635761589404	34.3843708609272				0.612026490066225	0.131496688741722	0.0859337748344371	-58.2882119205298	-27.1080794701987	26.5425165562914				0.399788079470199	-0.334834437086093	-0.468238410596026	-10.6196026490066	34.8776158940397	-6.91470198675497			
109	2440	0.615841059602649	0.0667549668874172	-0.471523178807947	9.27337748344371	179.335364238411	12.8150993377483				0.576953642384106	0.0157880794701987	0.109139072847682	44.3939072847682	-106.652185430464	3.89403973509934				0.549827814569536	0.158728476821192	-0.43994701986755	11.487417218543	160.866490066225	-24.5602649006623				0.224529801324503	-0.000529801324503289	-0.421721854304636	27.9629139072848	50.5835761589404	44.4643708609272				0.548026490066225	0.147496688741722	0.0219337748344371	-62.4882119205298	-24.8680794701987	27.1025165562914				0.271788079470199	-0.286834437086093	-0.420238410596026	-23.7796026490066	20.3176158940397	-6.63470198675497			
110	2460	0.599841059602649	0.146754966887417	-0.487523178807947	-1.08662251655629	177.935364238411	13.0950993377483				0.432953642384106	-0.0642119205298013	0.125139072847682	8.83390728476821	-88.4521854304636	0.53403973509934				0.357827814569536	0.110728476821192	-0.48794701986755	15.967417218543	160.586490066225	-27.0802649006623				0.352529801324503	0.0154701986754967	-0.357721854304636	48.4029139072848	44.9835761589404	53.1443708609272				0.532026490066225	0.0674966887417219	0.0699337748344371	-49.8882119205298	-25.9880794701987	30.7425165562914				0.223788079470199	-0.222834437086093	-0.404238410596026	-46.4596026490066	19.7576158940397	2.04529801324503			
111	2480	0.551841059602649	0.178754966887417	-0.471523178807947	-0.246622516556291	168.975364238411	13.6550993377483				0.432953642384106	-0.0482119205298013	0.0771390728476822	-17.7660927152318	-71.0921854304636	4.73403973509934				0.469827814569536	0.0787284768211921	-0.48794701986755	15.127417218543	146.866490066225	-24.0002649006623				0.384529801324503	-0.0645298013245033	-0.405721854304636	52.6029139072848	25.6635761589404	61.5443708609272				0.500026490066225	0.0834966887417219	0.165933774834437	-50.7282119205298	-44.4680794701987	32.9825165562914				0.159788079470199	-0.126834437086093	-0.404238410596026	-53.1796026490066	19.4776158940397	5.68529801324503			
112	2500	0.599841059602649	0.162754966887417	-0.407523178807947	-2.20662251655629	165.615364238411	17.5750993377483				0.464953642384106	0.0957880794701987	0.0291390728476822	-29.5260927152318	-69.4121854304636	4.45403973509934				0.645827814569536	-0.0332715231788079	-0.47194701986755	5.60741721854305	147.146490066225	-22.8802649006623				0.384529801324503	-0.192529801324503	-0.501721854304636	45.0429139072848	5.7835761589404	63.2243708609272				0.452026490066225	0.115496688741722	0.165933774834437	-43.7282119205298	-63.5080794701987	35.7825165562914				0.111788079470199	-0.0308344370860927	-0.404238410596026	-54.8596026490066	18.0776158940397	3.16529801324503			
113	2520	0.695841059602649	0.178754966887417	-0.327523178807947	-0.806622516556291	154.695364238411	18.1350993377483				0.352953642384106	0.255788079470199	-0.0348609271523178	0.153907284768212	-98.2521854304636	-7.02596026490066				0.629827814569536	-0.0652715231788079	-0.50394701986755	-5.87258278145695	138.746490066225	-26.8002649006623				0.368529801324503	-0.256529801324503	-0.533721854304636	20.6829139072848	-10.4564238410596	58.4643708609272				0.484026490066225	0.147496688741722	0.0539337748344371	-42.8882119205298	-72.4680794701987	33.5425165562914				0.111788079470199	-0.0148344370860927	-0.404238410596026	-35.5396026490066	12.7576158940397	-2.43470198675497			
114	2540	0.759841059602649	0.178754966887417	-0.375523178807947	-12.8466225165563	145.455364238411	19.8150993377483				0.432953642384106	0.207788079470199	-0.0348609271523178	5.19390728476821	-75.8521854304636	-8.14596026490066				0.613827814569536	-0.0972715231788079	-0.51994701986755	-19.592582781457	123.346490066225	-21.7602649006623				0.416529801324503	-0.240529801324503	-0.469721854304636	6.68291390728477	-18.0164238410596	51.7443708609272				0.532026490066225	0.179496688741722	0.0219337748344371	-30.2882119205298	-63.7880794701987	26.5425165562914				0.0957880794701987	-0.0948344370860927	-0.404238410596026	-27.1396026490066	1.27761589403974	-7.19470198675497			
115	2560	0.791841059602649	0.194754966887417	-0.343523178807947	-8.64662251655629	132.015364238411	22.0550993377483				0.560953642384106	0.0957880794701987	0.333139072847682	-14.4060927152318	-17.0521854304636	-1.70596026490066				0.677827814569536	-0.0652715231788079	-0.51994701986755	-23.512582781457	112.426490066225	-15.0402649006623				0.432529801324503	-0.224529801324503	-0.517721854304636	2.48291390728477	-22.4964238410596	47.5443708609272				0.596026490066225	0.147496688741722	0.101933774834437	-10.1282119205298	-55.9480794701987	19.2625165562914				0.111788079470199	-0.142834437086093	-0.452238410596026	-41.1396026490066	2.95761589403974	-10.274701986755			
116	2580	0.791841059602649	0.226754966887417	-0.327523178807947	11.2333774834437	120.255364238411	20.6550993377483				0.656953642384106	0.191788079470199	0.461139072847682	-21.6860927152318	-20.9721854304636	-0.86596026490066				0.757827814569536	-0.0812715231788079	-0.42394701986755	-24.632582781457	98.7064900662252	-10.8402649006623				0.352529801324503	-0.160529801324503	-0.597721854304636	6.96291390728477	-20.2564238410596	41.6643708609272				0.564026490066225	0.179496688741722	0.117933774834437	-10.9682119205298	-54.5480794701987	13.1025165562914				0.0957880794701987	-0.0628344370860927	-0.468238410596026	-57.9396026490066	11.0776158940397	-10.834701986755			
117	2600	0.871841059602649	0.194754966887417	-0.279523178807947	28.8733774834437	110.175364238411	19.8150993377483				0.624953642384106	0.207788079470199	0.285139072847682	-4.32609271523179	-50.0921854304636	-1.70596026490066				0.789827814569536	-0.0812715231788079	-0.35994701986755	-29.952582781457	82.7464900662252	-5.24026490066225				0.336529801324503	-0.160529801324503	-0.629721854304636	10.0429139072848	-19.6964238410596	34.3843708609272				0.596026490066225	0.131496688741722	0.117933774834437	3.8717880794702	-46.1480794701987	8.06251655629139				0.111788079470199	-0.0628344370860927	-0.516238410596026	-57.0996026490066	16.9576158940397	-16.154701986755			
118	2620	0.967841059602649	0.130754966887417	-0.199523178807947	23.8333774834437	99.2553642384106	17.2950993377483				0.608953642384106	0.207788079470199	0.109139072847682	5.47390728476821	-36.0921854304636	-0.585960264900661				0.869827814569536	-0.0332715231788079	-0.34394701986755	-22.952582781457	66.2264900662252	2.03973509933775				0.416529801324503	-0.176529801324503	-0.613721854304636	15.9229139072848	-17.7364238410596	22.6243708609272				0.724026490066225	0.0834966887417219	0.117933774834437	11.4317880794702	-38.3080794701987	1.90251655629139				0.239788079470199	-0.158834437086093	-0.564238410596026	-34.9796026490066	22.2776158940397	-20.914701986755			
119	2640	0.967841059602649	0.114754966887417	-0.135523178807947	19.3533774834437	86.0953642384106	17.0150993377483				0.688953642384106	0.0797880794701987	0.141139072847682	5.19390728476821	3.66781456953642	-2.82596026490066				0.917827814569536	0.0307284768211921	-0.27994701986755	-22.392582781457	60.9064900662252	2.87973509933775				0.544529801324503	-0.208529801324503	-0.645721854304636	13.9629139072848	-18.8564238410596	11.9843708609272				0.772026490066225	0.131496688741722	0.133933774834437	8.9117880794702	-37.1880794701987	-1.73748344370861				0.319788079470199	-0.302834437086093	-0.612238410596026	-18.1796026490066	27.0376158940397	-20.074701986755			
120	2660	0.887841059602649	0.162754966887417	-0.087523178807947	9.83337748344371	67.3353642384106	17.0150993377483				0.736953642384106	0.0957880794701987	0.365139072847682	2.67390728476821	-8.09218543046358	-5.06596026490066				0.885827814569536	0.0467284768211921	-0.27994701986755	-4.47258278145695	49.7064900662252	-1.32026490066225				0.528529801324503	-0.304529801324503	-0.725721854304636	1.36291390728477	-26.9764238410596	3.58437086092715				0.788026490066225	0.163496688741722	0.133933774834437	13.3917880794702	-36.9080794701987	-2.01748344370861				0.431788079470199	-0.414834437086093	-0.644238410596026	-21.8196026490066	33.4776158940397	-18.954701986755			
121	2680	0.935841059602649	0.146754966887417	-0.023523178807947	20.7533774834437	60.8953642384106	15.6150993377483				0.768953642384106	0.127788079470199	0.413139072847682	4.91390728476821	-9.77218543046358	-3.10596026490066				0.917827814569536	0.0627284768211921	-0.19994701986755	-3.35258278145695	44.9464900662252	-3.28026490066225				0.368529801324503	-0.304529801324503	-0.757721854304636	-23.5570860927152	-34.5364238410596	-8.73562913907285				0.772026490066225	0.163496688741722	0.149933774834437	13.9517880794702	-28.5080794701987	-3.69748344370861				0.495788079470199	-0.462834437086093	-0.644238410596026	-33.0196026490066	34.0376158940397	-8.87470198675497			
122	2700	1.04784105960265	0.0987549668874172	0.040476821192053	35.8733774834437	52.7753642384106	13.6550993377483				0.800953642384106	0.143788079470199	0.429139072847682	9.95390728476821	-7.25218543046358	-1.42596026490066				0.949827814569536	0.110728476821192	-0.15194701986755	-2.23258278145695	46.3464900662252	-4.40026490066225				0.320529801324503	-0.224529801324503	-0.741721854304636	-22.9970860927152	-23.8964238410596	-12.0956291390728				0.756026490066225	0.115496688741722	0.229933774834437	20.6717880794702	-14.2280794701987	-6.77748344370861				0.511788079470199	-0.510834437086093	-0.644238410596026	-37.2196026490066	27.8776158940397	9.88529801324503			
123	2720	1.09584105960265	0.0187549668874172	0.120476821192053	38.3933774834437	39.3353642384106	6.37509933774834				0.960953642384106	0.0477880794701987	0.541139072847682	19.1939072847682	9.54781456953642	-3.94596026490066				1.01382781456954	0.0627284768211921	-0.13594701986755	6.44741721854305	39.3464900662252	-1.60026490066225				0.256529801324503	-0.144529801324503	-0.693721854304636	-8.43708609271523	-12.4164238410596	-9.85562913907285				0.804026490066225	0.0514966887417219	0.261933774834437	15.3517880794702	-2.74807947019868	-10.1374834437086				0.543788079470199	-0.494834437086093	-0.660238410596027	-44.2196026490066	19.4776158940397	29.205298013245			
124	2740	1.01584105960265	0.00275496688741723	0.168476821192053	35.8733774834437	30.6553642384106	4.13509933774834				0.992953642384106	0.0317880794701987	0.429139072847682	28.7139072847682	-7.25218543046358	-4.78596026490066				0.997827814569536	0.0147284768211921	-0.0719470198675496	19.607417218543	35.4264900662252	-0.76026490066225				0.336529801324503	-0.160529801324503	-0.709721854304636	-5.35708609271523	-5.6964238410596	-2.57562913907285				0.852026490066225	0.0674966887417219	0.293933774834437	2.4717880794702	10.6919205298013	-11.2574834437086				0.591788079470199	-0.462834437086093	-0.660238410596027	-42.8196026490066	13.3176158940397	41.245298013245			
125	2760	0.967841059602649	0.0187549668874172	0.200476821192053	34.7533774834437	28.1353642384106	8.61509933774835				0.848953642384106	-0.000211920529801304	0.365139072847682	20.3139072847682	-13.4121854304636	-0.0259602649006601				0.997827814569536	-0.0492715231788079	0.00805298013245037	12.887417218543	30.9464900662252	-2.16026490066225				0.400529801324503	-0.240529801324503	-0.725721854304636	-7.31708609271523	6.3435761589404	6.94437086092715				0.868026490066225	0.0834966887417219	0.229933774834437	-12.3682119205298	9.01192052980133	-9.01748344370861				0.671788079470199	-0.430834437086093	-0.660238410596027	-36.0996026490066	10.7976158940397	37.885298013245			
126	2780	0.951841059602649	0.0347549668874172	0.184476821192053	27.7533774834437	28.9753642384106	14.2150993377483				0.848953642384106	-0.0322119205298013	0.349139072847682	2.11390728476821	-17.3321854304636	-2.26596026490066				0.965827814569536	-0.0812715231788079	0.0240529801324504	11.767417218543	25.0664900662252	-5.24026490066225				0.464529801324503	-0.208529801324503	-0.741721854304636	-4.23708609271523	24.2635761589404	15.3443708609272				0.916026490066225	0.131496688741722	0.245933774834437	-16.8482119205298	14.8919205298013	-7.33748344370861				0.687788079470199	-0.398834437086093	-0.644238410596026	-21.8196026490066	4.63761589403974	28.365298013245			
127	2800	0.967841059602649	0.0507549668874172	0.184476821192053	23.2733774834437	23.9353642384106	9.73509933774834				0.832953642384106	0.0317880794701987	0.333139072847682	-7.12609271523179	-10.8921854304636	-4.78596026490066				0.997827814569536	-0.0492715231788079	0.0240529801324504	16.5274172185431	17.2264900662252	-8.32026490066225				0.512529801324503	-0.144529801324503	-0.725721854304636	1.92291390728477	32.9435761589404	24.0243708609272				0.932026490066225	0.147496688741722	0.229933774834437	-20.2082119205298	8.45192052980133	-5.37748344370861				0.607788079470199	-0.382834437086093	-0.612238410596026	-0.819602649006623	2.11761589403974	15.765298013245			
128	2820	0.935841059602649	0.00275496688741723	0.200476821192053	9.55337748344371	16.3753642384106	4.41509933774834				0.912953642384106	0.0317880794701987	0.333139072847682	-1.24609271523179	0.0278145695364242	-7.02596026490066				1.01382781456954	-0.0492715231788079	0.0720529801324504	18.2074172185431	14.1464900662252	-9.44026490066225				0.576529801324503	-0.112529801324503	-0.725721854304636	-4.79708609271523	29.5835761589404	25.1443708609272				0.884026490066225	0.179496688741722	0.245933774834437	-23.5682119205298	2.85192052980133	-2.57748344370861				0.527788079470199	-0.382834437086093	-0.612238410596026	2.54039735099338	7.15761589403974	9.60529801324503			
129	2840	0.935841059602649	-0.0612450331125828	0.184476821192053	-1.64662251655629	20.8553642384106	-0.344900662251656				0.960953642384106	-0.000211920529801304	0.333139072847682	-6.56609271523179	6.18781456953642	-3.38596026490066				0.997827814569536	-0.0332715231788079	0.0560529801324504	19.607417218543	11.9064900662252	-8.04026490066225				0.592529801324503	-0.128529801324503	-0.757721854304636	-11.2370860927152	20.3435761589404	17.8643708609272				0.884026490066225	0.163496688741722	0.277933774834437	-19.3682119205298	6.21192052980133	-0.897483443708608				0.527788079470199	-0.382834437086093	-0.676238410596026	5.62039735099338	7.99761589403974	10.725298013245			
130	2860	0.935841059602649	-0.0612450331125828	0.232476821192053	0.313377483443709	30.9353642384106	-3.42490066225166				0.864953642384106	0.0157880794701987	0.381139072847682	-17.2060927152318	2.26781456953642	-1.98596026490066				1.01382781456954	-0.0492715231788079	0.0400529801324504	13.167417218543	4.90649006622517	-5.80026490066225				0.608529801324503	-0.160529801324503	-0.773721854304636	-11.7970860927152	6.0635761589404	8.34437086092715				0.932026490066225	0.131496688741722	0.277933774834437	-17.9682119205298	4.81192052980133	1.06251655629139				0.559788079470199	-0.414834437086093	-0.692238410596026	6.46039735099338	6.87761589403974	11.285298013245			
131	2880	0.967841059602649	-0.0132450331125828	0.264476821192053	-6.96662251655629	32.3353642384106	-1.46490066225166				0.880953642384106	0.0157880794701987	0.317139072847682	-22.5260927152318	1.14781456953642	-2.82596026490066				1.01382781456954	-0.0492715231788079	-0.00794701986754963	8.68741721854305	1.82649006622517	-9.44026490066225				0.640529801324503	-0.240529801324503	-0.773721854304636	-10.3970860927152	-3.4564238410596	8.90437086092715				0.996026490066225	0.131496688741722	0.245933774834437	-16.2882119205298	1.45192052980132	0.782516556291392				0.575788079470199	-0.446834437086093	-0.724238410596026	4.22039735099338	6.87761589403974	10.725298013245			
132	2900	1.01584105960265	0.0187549668874172	0.248476821192053	-14.2466225165563	28.1353642384106	-2.58490066225166				0.992953642384106	0.0637880794701987	0.301139072847682	-27.0060927152318	12.3478145695364	-2.54596026490066				1.01382781456954	-0.0652715231788079	-0.0239470198675496	6.72741721854305	-0.413509933774833	-15.0402649006623				0.576529801324503	-0.304529801324503	-0.789721854304636	-8.71708609271523	-2.3364238410596	11.4243708609272				0.996026490066225	0.147496688741722	0.213933774834437	-16.5682119205298	1.17192052980133	1.06251655629139				0.575788079470199	-0.462834437086093	-0.724238410596026	9.54039735099338	7.71761589403974	9.04529801324503			
133	2920	1.01584105960265	0.0187549668874172	0.216476821192053	-23.4866225165563	23.3753642384106	-4.82490066225166				1.02495364238411	0.127788079470199	0.317139072847682	-25.8860927152318	10.6678145695364	-2.26596026490066				1.02982781456954	-0.0332715231788079	0.0240529801324504	-0.272582781456954	6.02649006622517	-13.3602649006623				0.544529801324503	-0.256529801324503	-0.789721854304636	-8.71708609271523	5.2235761589404	13.3843708609272				0.980026490066225	0.147496688741722	0.245933774834437	-14.3282119205298	2.57192052980133	-0.0574834437086077				0.559788079470199	-0.414834437086093	-0.708238410596026	7.30039735099338	3.51761589403974	9.88529801324503			
134	2940	0.983841059602649	0.0347549668874172	0.216476821192053	-30.7666225165563	22.2553642384106	-5.38490066225166				1.00895364238411	0.127788079470199	0.285139072847682	-13.8460927152318	8.14781456953643	1.65403973509934				1.01382781456954	0.0307284768211921	0.0240529801324504	-1.67258278145695	8.82649006622517	-10.2802649006622				0.544529801324503	-0.240529801324503	-0.773721854304636	-7.03708609271523	9.7035761589404	17.3043708609272				0	0	0	0	0	0				0	0	0	0	0	0			
135	2960	0.951841059602649	0.0667549668874172	0.200476821192053	-18.7266225165563	23.3753642384106	-4.82490066225166				0.928953642384106	0.127788079470199	0.349139072847682	-10.7660927152318	5.34781456953642	0.81403973509934				0.949827814569536	0.0307284768211921	-0.0559470198675496	3.36741721854305	9.38649006622517	-8.32026490066225				0	0	0	0	0	0				0	0	0	0	0	0				0	0	0	0	0	0			
136	3060	0	0	0	0	0	0				0	0	0	0	0	0				0.965827814569536	-0.0972715231788079	-0.10394701986755	5.60741721854305	3.78649006622517	4.55973509933775				0	0	0	0	0	0				0	0	0	0	0	0				0.511788079470199	-0.382834437086093	-0.692238410596026	-1.93960264900662	0.437615894039735	8.76529801324503			
137	3080	0.999841059602649	0.0187549668874172	0.040476821192053	-1.08662251655629	-1.8246357615894	-0.344900662251656				0.960953642384106	0.0637880794701987	0.301139072847682	3.23390728476821	13.1878145695364	1.37403973509934				0.965827814569536	-0.0492715231788079	-0.13594701986755	3.92741721854305	1.54649006622517	4.55973509933775				0.528529801324503	-0.224529801324503	-0.789721854304636	-14.5970860927152	2.4235761589404	12.5443708609272				0.916026490066225	0.163496688741722	0.261933774834437	0.511788079470198	12.3719205298013	-5.09748344370861				0.495788079470199	-0.398834437086093	-0.676238410596026	-7.25960264900662	-0.122384105960265	9.60529801324503			
138	3100	0.983841059602649	0.0347549668874172	0.088476821192053	1.43337748344371	-3.5046357615894	-1.74490066225166				0.976953642384106	0.0317880794701987	0.253139072847682	-3.76609271523179	10.9478145695364	2.77403973509934				0.965827814569536	-0.00127152317880793	-0.13594701986755	-0.272582781456954	0.706490066225167	4.55973509933775				0.544529801324503	-0.208529801324503	-0.773721854304636	-14.0370860927152	3.2635761589404	11.4243708609272				0.932026490066225	0.147496688741722	0.245933774834437	-0.608211920529802	9.29192052980133	-5.09748344370861				0.511788079470199	-0.398834437086093	-0.692238410596026	-3.33960264900662	2.11761589403974	8.20529801324503			
139	3120	0.967841059602649	0.0187549668874172	0.104476821192053	-5.84662251655629	-4.9046357615894	-0.624900662251656				1.00895364238411	0.0797880794701987	0.285139072847682	-4.04609271523179	16.5478145695364	3.89403973509934				0.981827814569536	0.0147284768211921	-0.15194701986755	-4.75258278145695	0.146490066225167	3.71973509933775				0.576529801324503	-0.160529801324503	-0.773721854304636	-14.8770860927152	2.4235761589404	8.62437086092715				0.980026490066225	0.131496688741722	0.261933774834437	-2.8482119205298	12.0919205298013	-4.81748344370861				0.543788079470199	-0.414834437086093	-0.708238410596026	6.46039735099338	0.717615894039735	4.28529801324503			
140	3140	0.967841059602649	0.00275496688741723	0.104476821192053	-12.2866225165563	-2.6646357615894	-0.904900662251656				0.976953642384106	0.0637880794701987	0.285139072847682	-6.56609271523179	11.7878145695364	2.77403973509934				0.981827814569536	0.0307284768211921	-0.11994701986755	-5.59258278145695	2.38649006622517	2.87973509933775				0.544529801324503	-0.192529801324503	-0.773721854304636	-10.3970860927152	2.9835761589404	6.94437086092715				0.980026490066225	0.131496688741722	0.245933774834437	-4.2482119205298	6.77192052980133	-4.25748344370861				0.543788079470199	-0.430834437086093	-0.708238410596026	9.82039735099338	0.717615894039735	0.925298013245032			
141	3160	0.951841059602649	0.0507549668874172	0.104476821192053	-5.84662251655629	-1.5446357615894	-0.344900662251656				1.00895364238411	0.0477880794701987	0.349139072847682	-10.2060927152318	7.30781456953642	1.09403973509934				0.965827814569536	0.0147284768211921	-0.13594701986755	-3.07258278145695	-0.413509933774833	1.75973509933775				0.528529801324503	-0.208529801324503	-0.773721854304636	-8.71708609271523	4.1035761589404	4.98437086092715				0.964026490066225	0.147496688741722	0.213933774834437	-5.0882119205298	2.57192052980133	-2.57748344370861				0.527788079470199	-0.462834437086093	-0.708238410596026	9.82039735099338	0.997615894039735	-1.87470198675497			
142	3180	0.983841059602649	0.0347549668874172	0.104476821192053	-2.48662251655629	2.0953642384106	-0.344900662251656				0.992953642384106	0.0477880794701987	0.285139072847682	-5.44609271523179	-4.17218543046358	0.53403973509934				0.965827814569536	0.0147284768211921	-0.15194701986755	0.287417218543046	0.146490066225167	0.91973509933775				0.512529801324503	-0.192529801324503	-0.773721854304636	-4.79708609271523	3.8235761589404	5.54437086092715				0.964026490066225	0.115496688741722	0.245933774834437	1.0717880794702	5.37192052980133	0.222516556291392				0.527788079470199	-0.462834437086093	-0.708238410596026	5.62039735099338	1.27761589403974	-0.474701986754968			
143	3200	0.983841059602649	0.0507549668874172	0.120476821192053	-2.48662251655629	3.4953642384106	-0.344900662251656				0.976953642384106	0.0797880794701987	0.237139072847682	-7.68609271523179	0.0278145695364242	-0.0259602649006601				0.965827814569536	0.0147284768211921	-0.11994701986755	-4.75258278145695	2.38649006622517	1.47973509933775				0.512529801324503	-0.192529801324503	-0.789721854304636	-2.83708609271523	2.7035761589404	5.82437086092715				0.948026490066225	0.131496688741722	0.229933774834437	-3.6882119205298	1.45192052980132	0.222516556291392				0.511788079470199	-0.430834437086093	-0.708238410596026	3.10039735099338	2.11761589403974	-0.754701986754968			
144	3220	0.983841059602649	0.0827549668874172	0.120476821192053	-3.04662251655629	1.5353642384106	-1.18490066225166				0.960953642384106	0.0797880794701987	0.301139072847682	-6.28609271523179	0.307814569536424	-0.0259602649006601				0.949827814569536	-0.0172715231788079	-0.15194701986755	-4.19258278145695	2.66649006622517	0.91973509933775				0.512529801324503	-0.208529801324503	-0.789721854304636	-3.39708609271523	2.4235761589404	4.98437086092715				0.948026490066225	0.131496688741722	0.213933774834437	-5.0882119205298	2.29192052980133	0.782516556291392				0.511788079470199	-0.414834437086093	-0.708238410596026	3.38039735099338	1.55761589403974	-0.474701986754968			
145	3240	0.983841059602649	0.0667549668874172	0.120476821192053	-2.48662251655629	0.695364238410596	-0.904900662251656				0.976953642384106	0.0797880794701987	0.317139072847682	-0.406092715231788	-3.61218543046358	0.25403973509934				0.965827814569536	0.0147284768211921	-0.13594701986755	-3.91258278145695	0.986490066225167	2.03973509933775				0.528529801324503	-0.224529801324503	-0.789721854304636	-0.597086092715232	2.4235761589404	5.54437086092715				0.948026490066225	0.131496688741722	0.213933774834437	-3.9682119205298	1.73192052980133	1.06251655629139				0.511788079470199	-0.430834437086093	-0.708238410596026	3.66039735099338	2.67761589403974	-2.71470198675497			
146	3260	0.967841059602649	0.0347549668874172	0.120476821192053	1.15337748344371	-0.424635761589404	-0.624900662251656				0.960953642384106	0.0797880794701987	0.269139072847682	3.79390728476821	-6.13218543046358	-0.86596026490066				0.965827814569536	0.0147284768211921	-0.13594701986755	-1.67258278145695	2.38649006622517	2.03973509933775				0.512529801324503	-0.224529801324503	-0.805721854304636	-0.317086092715232	3.2635761589404	4.14437086092715				0.948026490066225	0.147496688741722	0.213933774834437	-3.6882119205298	0.331920529801325	-0.897483443708608				0.495788079470199	-0.414834437086093	-0.708238410596026	3.38039735099338	0.437615894039735	-1.31470198675497			
147	3280	0.983841059602649	0.0347549668874172	0.120476821192053	0.593377483443709	-0.424635761589404	-0.344900662251656				0.960953642384106	0.0797880794701987	0.253139072847682	3.79390728476821	-6.13218543046358	-0.86596026490066				0.981827814569536	-0.00127152317880793	-0.15194701986755	-1.67258278145695	-0.133509933774833	2.87973509933775				0.496529801324503	-0.224529801324503	-0.789721854304636	-1.43708609271523	2.9835761589404	2.74437086092715				0.948026490066225	0.131496688741722	0.197933774834437	-3.1282119205298	0.611920529801325	-0.0574834437086077				0.495788079470199	-0.398834437086093	-0.724238410596026	-2.49960264900662	-0.402384105960265	-0.474701986754968			
148	3300	0.967841059602649	0.0347549668874172	0.104476821192053	0.593377483443709	-0.144635761589404	0.495099337748344				0.976953642384106	0.0957880794701987	0.269139072847682	-0.406092715231788	-2.49218543046358	-0.585960264900661				0.965827814569536	-0.0172715231788079	-0.11994701986755	-3.07258278145695	-0.133509933774833	2.03973509933775				0.480529801324503	-0.208529801324503	-0.789721854304636	0.242913907284768	1.5835761589404	1.90437086092715				0.948026490066225	0.131496688741722	0.197933774834437	-3.9682119205298	0.891920529801325	0.222516556291392				0.495788079470199	-0.382834437086093	-0.724238410596026	-1.93960264900662	-0.402384105960265	-1.87470198675497			
149	3320	0.967841059602649	0.0347549668874172	0.104476821192053	0.593377483443709	0.135364238410596	0.215099337748344				0.960953642384106	0.0797880794701987	0.269139072847682	0.993907284768212	-1.37218543046358	-0.585960264900661				0.965827814569536	-0.00127152317880793	-0.13594701986755	-1.11258278145695	-1.25350993377483	2.03973509933775				0.512529801324503	-0.208529801324503	-0.789721854304636	-0.0370860927152318	-0.0964238410596001	-0.0556291390728476				0.948026490066225	0.147496688741722	0.197933774834437	-3.9682119205298	0.611920529801325	-0.337483443708608				0.495788079470199	-0.350834437086093	-0.724238410596026	1.98039735099338	-0.402384105960265	-4.95470198675497			
150	3340	0.983841059602649	0.0187549668874172	0.120476821192053	1.71337748344371	-0.144635761589404	-1.18490066225166				0.960953642384106	0.0637880794701987	0.253139072847682	5.75390728476821	-3.33218543046358	-0.585960264900661				0.981827814569536	0.0307284768211921	-0.11994701986755	-1.67258278145695	0.146490066225167	1.75973509933775				0.528529801324503	-0.224529801324503	-0.805721854304636	3.32291390728477	-1.2164238410596	0.224370860927152				0.964026490066225	0.147496688741722	0.181933774834437	-3.6882119205298	-2.74807947019868	0.222516556291392				0.495788079470199	-0.382834437086093	-0.724238410596026	7.30039735099338	-1.80238410596026	-6.91470198675497			
151	3360	0.983841059602649	0.0347549668874172	0.120476821192053	0.313377483443709	-0.144635761589404	-1.18490066225166				0.976953642384106	0.0797880794701987	0.253139072847682	2.67390728476821	-0.812185430463576	0.25403973509934				0.981827814569536	0.0147284768211921	-0.10394701986755	-4.47258278145695	0.426490066225167	2.03973509933775				0.528529801324503	-0.240529801324503	-0.821721854304636	1.92291390728477	-1.2164238410596	-0.615629139072848				0.948026490066225	0.163496688741722	0.197933774834437	2.1917880794702	-1.34807947019868	0.502516556291392				0.495788079470199	-0.430834437086093	-0.740238410596026	5.34039735099338	-1.80238410596026	-5.51470198675497			
152	3380	0.967841059602649	0.0507549668874172	0.120476821192053	-1.08662251655629	-0.424635761589404	-0.344900662251656				0.960953642384106	0.0957880794701987	0.253139072847682	1.55390728476821	-1.93218543046358	-0.0259602649006601				0.965827814569536	-0.00127152317880793	-0.10394701986755	-2.51258278145695	-0.693509933774834	0.35973509933775				0.480529801324503	-0.224529801324503	-0.805721854304636	3.04291390728477	1.0235761589404	0.504370860927152				0.948026490066225	0.147496688741722	0.181933774834437	0.791788079470198	-2.18807947019868	0.222516556291392				0.495788079470199	-0.430834437086093	-0.724238410596026	-3.89960264900662	-2.36238410596027	-1.31470198675497			
153	3400	0.967841059602649	0.0507549668874172	0.120476821192053	-1.64662251655629	0.415364238410596	-0.624900662251656				0.944953642384106	0.0797880794701987	0.269139072847682	0.433907284768212	-1.93218543046358	-0.585960264900661				0.949827814569536	-0.00127152317880793	-0.13594701986755	-1.11258278145695	-0.973509933774833	0.35973509933775				0.480529801324503	-0.208529801324503	-0.805721854304636	1.64291390728477	0.7435761589404	-0.0556291390728476				0.948026490066225	0.131496688741722	0.181933774834437	2.4717880794702	-1.90807947019868	0.502516556291392				0.495788079470199	-0.382834437086093	-0.724238410596026	-7.81960264900662	0.437615894039735	0.365298013245032			
154	3420	0.967841059602649	0.0507549668874172	0.120476821192053	-1.08662251655629	0.975364238410596	-0.904900662251656				0.960953642384106	0.0797880794701987	0.269139072847682	0.993907284768212	-1.09218543046358	-0.86596026490066				0.965827814569536	0.0147284768211921	-0.11994701986755	1.12741721854305	1.54649006622517	0.91973509933775				0.496529801324503	-0.192529801324503	-0.789721854304636	1.92291390728477	-0.6564238410596	-0.895629139072848				0.932026490066225	0.147496688741722	0.197933774834437	-0.0482119205298018	-1.62807947019868	0.222516556291392				0.495788079470199	-0.366834437086093	-0.708238410596026	-2.77960264900662	2.11761589403974	-0.754701986754968			
155	3440	0.967841059602649	0.0507549668874172	0.120476821192053	0.313377483443709	0.135364238410596	-0.904900662251656				0.976953642384106	0.0797880794701987	0.269139072847682	2.11390728476821	-2.77218543046358	-0.585960264900661				0.981827814569536	0.0147284768211921	-0.11994701986755	-1.11258278145695	1.26649006622517	1.75973509933775				0.496529801324503	-0.208529801324503	-0.805721854304636	3.32291390728477	-1.2164238410596	-2.01562913907285				0.932026490066225	0.147496688741722	0.197933774834437	-0.0482119205298018	-1.34807947019868	-0.337483443708608				0.495788079470199	-0.366834437086093	-0.708238410596026	3.94039735099338	-0.122384105960265	-2.99470198675497			
156	3460	0.967841059602649	0.0507549668874172	0.136476821192053	0.873377483443709	0.135364238410596	-0.904900662251656				0.960953642384106	0.0797880794701987	0.269139072847682	3.51390728476821	-3.05218543046358	-0.0259602649006601				0.981827814569536	-0.0332715231788079	-0.11994701986755	-2.51258278145695	-0.413509933774833	1.75973509933775				0.480529801324503	-0.224529801324503	-0.805721854304636	2.76291390728477	-1.7764238410596	-3.41562913907285				0.932026490066225	0.147496688741722	0.197933774834437	1.3517880794702	-0.228079470198675	0.782516556291392				0.495788079470199	-0.382834437086093	-0.708238410596026	4.22039735099338	-1.52238410596026	-4.39470198675497			
157	3480	0.983841059602649	0.0347549668874172	0.120476821192053	0.0333774834437086	-1.2646357615894	-1.18490066225166				0.944953642384106	0.0957880794701987	0.253139072847682	2.95390728476821	-1.37218543046358	-0.0259602649006601				0.981827814569536	-0.0172715231788079	-0.11994701986755	0.00741721854304636	-2.37350993377483	1.47973509933775				0.464529801324503	-0.224529801324503	-0.805721854304636	1.36291390728477	0.4635761589404	-3.41562913907285				0.948026490066225	0.147496688741722	0.181933774834437	1.0717880794702	1.17192052980133	-0.337483443708608				0.495788079470199	-0.382834437086093	-0.724238410596026	1.98039735099338	-2.92238410596027	-5.23470198675497			
158	3500	0.983841059602649	0.0347549668874172	0.120476821192053	-0.246622516556291	-0.984635761589404	0.215099337748344				0.944953642384106	0.0797880794701987	0.285139072847682	1.83390728476821	2.54781456953642	0.25403973509934				0.965827814569536	0.0147284768211921	-0.10394701986755	-0.832582781456954	-0.413509933774833	0.91973509933775				0.496529801324503	-0.224529801324503	-0.805721854304636	2.48291390728477	3.2635761589404	-3.69562913907285				0.948026490066225	0.147496688741722	0.197933774834437	1.3517880794702	2.57192052980133	-0.0574834437086077				0.511788079470199	-0.366834437086093	-0.724238410596026	0.580397350993377	-2.36238410596027	-6.07470198675497			
159	3520	0.983841059602649	0.0347549668874172	0.136476821192053	1.43337748344371	-1.8246357615894	0.215099337748344				0.960953642384106	0.0797880794701987	0.285139072847682	1.55390728476821	0.867814569536424	0.81403973509934				0.965827814569536	0.0147284768211921	-0.11994701986755	-3.63258278145695	-0.973509933774833	1.75973509933775				0.512529801324503	-0.208529801324503	-0.789721854304636	3.32291390728477	2.4235761589404	-3.69562913907285				0.932026490066225	0.163496688741722	0.197933774834437	2.7517880794702	3.13192052980133	0.502516556291392				0.511788079470199	-0.366834437086093	-0.724238410596026	2.26039735099338	-1.24238410596026	-5.51470198675497			
160	3540	0.967841059602649	0.0187549668874172	0.136476821192053	1.71337748344371	-1.8246357615894	-0.624900662251656				0.944953642384106	0.0797880794701987	0.285139072847682	1.55390728476821	-1.65218543046358	1.09403973509934				0.981827814569536	0.0147284768211921	-0.11994701986755	-0.552582781456954	-3.21350993377483	1.47973509933775				0.496529801324503	-0.224529801324503	-0.805721854304636	1.64291390728477	-0.6564238410596	-3.69562913907285				0.932026490066225	0.147496688741722	0.213933774834437	4.4317880794702	2.85192052980133	1.34251655629139				0.511788079470199	-0.382834437086093	-0.724238410596026	5.06039735099338	-1.80238410596026	-6.35470198675497			
161	3560	0.983841059602649	0.0347549668874172	0.120476821192053	0.313377483443709	-2.6646357615894	-0.904900662251656				0.944953642384106	0.111788079470199	0.269139072847682	1.83390728476821	-0.252185430463576	1.93403973509934				0.965827814569536	0.0147284768211921	-0.10394701986755	5.04741721854305	-2.65350993377483	0.63973509933775				0.496529801324503	-0.224529801324503	-0.805721854304636	-1.15708609271523	-1.7764238410596	-3.13562913907285				0.948026490066225	0.147496688741722	0.197933774834437	5.5517880794702	2.01192052980133	0.782516556291392				0.511788079470199	-0.398834437086093	-0.724238410596026	3.94039735099338	-2.36238410596027	-6.63470198675497			
162	3580	0.967841059602649	0.00275496688741723	0.216476821192053	-2.20662251655629	0.415364238410596	-3.14490066225166				0.944953642384106	0.0157880794701987	0.301139072847682	-2.36609271523179	3.66781456953642	0.81403973509934				0.981827814569536	-0.0652715231788079	0.00805298013245037	-2.51258278145695	0.986490066225167	-1.04026490066225				0.496529801324503	-0.272529801324503	-0.789721854304636	-4.79708609271523	-1.4964238410596	-0.895629139072848				0.948026490066225	0.147496688741722	0.197933774834437	4.1517880794702	2.29192052980133	-0.337483443708608				0.495788079470199	-0.398834437086093	-0.740238410596026	2.54039735099338	-3.76238410596027	-5.23470198675497			
163	3600	0.983841059602649	0.0507549668874172	0.136476821192053	0.0333774834437086	-4.3446357615894	-0.344900662251656				0.976953642384106	0.0957880794701987	0.285139072847682	4.63390728476821	4.50781456953642	1.09403973509934				0.965827814569536	-0.0172715231788079	-0.11994701986755	2.52741721854305	-3.21350993377483	1.19973509933775				0.496529801324503	-0.208529801324503	-0.789721854304636	2.48291390728477	1.0235761589404	-4.25562913907285				0.932026490066225	0.147496688741722	0.197933774834437	5.5517880794702	4.25192052980133	0.502516556291392				0.495788079470199	-0.382834437086093	-0.724238410596026	1.98039735099338	-3.48238410596027	-4.95470198675497			
164	3620	0.967841059602649	0.0347549668874172	0.136476821192053	0.873377483443709	-4.9046357615894	-0.344900662251656				0.960953642384106	0.0797880794701987	0.269139072847682	4.63390728476821	3.38781456953642	1.37403973509934				0.981827814569536	-0.00127152317880793	-0.11994701986755	4.20741721854305	-2.09350993377483	0.35973509933775				0.496529801324503	-0.224529801324503	-0.805721854304636	0.522913907284768	-0.6564238410596	-5.37562913907285				0.948026490066225	0.147496688741722	0.197933774834437	7.2317880794702	4.81192052980133	1.06251655629139				0.511788079470199	-0.366834437086093	-0.724238410596026	6.18039735099338	-3.20238410596026	-6.07470198675497			
165	3640	0.951841059602649	0.0347549668874172	0.136476821192053	2.55337748344371	-4.0646357615894	-0.344900662251656				0.960953642384106	0.0797880794701987	0.285139072847682	0.713907284768212	5.62781456953642	2.21403973509934				0.981827814569536	-0.00127152317880793	-0.10394701986755	5.88741721854305	-1.25350993377483	-0.76026490066225				0.496529801324503	-0.224529801324503	-0.805721854304636	-0.877086092715232	-1.2164238410596	-5.93562913907285				0.932026490066225	0.147496688741722	0.197933774834437	6.9517880794702	4.53192052980133	0.782516556291392				0.495788079470199	-0.398834437086093	-0.708238410596026	7.86039735099338	-3.48238410596027	-7.19470198675497			
166	3660	0.967841059602649	0.0347549668874172	0.136476821192053	1.71337748344371	-2.3846357615894	-1.18490066225166				0.960953642384106	0.0797880794701987	0.285139072847682	-0.126092715231788	5.06781456953642	2.49403973509934				0.965827814569536	-0.00127152317880793	-0.10394701986755	0.00741721854304636	-1.25350993377483	0.35973509933775				0.480529801324503	-0.208529801324503	-0.805721854304636	-1.15708609271523	-0.9364238410596	-5.93562913907285				0.932026490066225	0.147496688741722	0.229933774834437	7.7917880794702	7.61192052980133	0.502516556291392				0.495788079470199	-0.414834437086093	-0.708238410596026	5.34039735099338	-2.36238410596027	-5.51470198675497			
167	3680	0.967841059602649	0.0347549668874172	0.136476821192053	-0.806622516556291	-2.1046357615894	-0.624900662251656				0.960953642384106	0.0957880794701987	0.269139072847682	1.83390728476821	4.22781456953642	1.65403973509934				0.965827814569536	-0.0172715231788079	-0.10394701986755	2.24741721854305	-2.37350993377483	0.0797350993377501				0.496529801324503	-0.208529801324503	-0.805721854304636	1.08291390728477	0.7435761589404	-5.65562913907285				0.948026490066225	0.131496688741722	0.181933774834437	4.9917880794702	4.25192052980133	-0.337483443708608				0.511788079470199	-0.414834437086093	-0.708238410596026	3.38039735099338	-2.92238410596027	-5.23470198675497			
168	3700	0.967841059602649	0.0347549668874172	0.120476821192053	-2.48662251655629	-2.3846357615894	-0.344900662251656				0.944953642384106	0.0797880794701987	0.285139072847682	1.83390728476821	3.94781456953642	2.21403973509934				0.981827814569536	-0.00127152317880793	-0.11994701986755	4.20741721854305	-3.77350993377483	-0.20026490066225				0.480529801324503	-0.208529801324503	-0.789721854304636	0.802913907284768	-0.0964238410596001	-5.09562913907285				0.916026490066225	0.147496688741722	0.213933774834437	3.0317880794702	5.93192052980133	0.502516556291392				0.527788079470199	-0.398834437086093	-0.724238410596026	5.06039735099338	-1.24238410596026	-6.63470198675497			
169	3720	0.967841059602649	0.0347549668874172	0.120476821192053	-1.36662251655629	-1.8246357615894	-0.624900662251656				0.944953642384106	0.0637880794701987	0.269139072847682	-1.52609271523179	6.74781456953642	2.49403973509934				0.981827814569536	-0.00127152317880793	-0.11994701986755	3.92741721854305	-4.05350993377483	0.0797350993377501				0.480529801324503	-0.208529801324503	-0.805721854304636	-0.317086092715232	-0.9364238410596	-3.97562913907285				0.932026490066225	0.131496688741722	0.213933774834437	4.7117880794702	5.65192052980133	0.502516556291392				0.511788079470199	-0.398834437086093	-0.708238410596026	8.98039735099338	-3.76238410596027	-7.19470198675497			
170	3740	0.983841059602649	0.0507549668874172	0.104476821192053	-0.526622516556291	-2.1046357615894	-1.46490066225166				0.960953642384106	0.0797880794701987	0.285139072847682	-4.32609271523179	10.3878145695364	2.49403973509934				0.981827814569536	-0.00127152317880793	-0.10394701986755	0.00741721854304636	-4.05350993377483	0.35973509933775				0.480529801324503	-0.208529801324503	-0.805721854304636	-0.0370860927152318	0.7435761589404	-2.29562913907285				0.948026490066225	0.131496688741722	0.197933774834437	2.1917880794702	5.93192052980133	-0.617483443708608				0.495788079470199	-0.398834437086093	-0.692238410596026	10.1003973509934	-5.16238410596027	-6.91470198675497			
171	3760	0.983841059602649	0.0507549668874172	0.120476821192053	-4.72662251655629	-4.6246357615894	-1.18490066225166				0.960953642384106	0.0797880794701987	0.317139072847682	-1.80609271523179	7.58781456953643	2.49403973509934				0.965827814569536	-0.0172715231788079	-0.10394701986755	0.847417218543046	-5.17350993377483	0.91973509933775				0.496529801324503	-0.208529801324503	-0.789721854304636	-0.317086092715232	1.5835761589404	-3.41562913907285				0.932026490066225	0.147496688741722	0.229933774834437	3.0317880794702	5.93192052980133	1.06251655629139				0.511788079470199	-0.430834437086093	-0.692238410596026	8.14039735099338	-3.76238410596027	-3.83470198675497			
172	3780	0.983841059602649	0.0507549668874172	0.104476821192053	-7.80662251655629	-4.3446357615894	-2.02490066225166				0.944953642384106	0.0797880794701987	0.285139072847682	-2.36609271523179	8.42781456953642	1.09403973509934				0.965827814569536	-0.0172715231788079	-0.13594701986755	3.92741721854305	-4.61350993377483	1.47973509933775				0.496529801324503	-0.192529801324503	-0.789721854304636	1.64291390728477	3.2635761589404	-3.69562913907285				0.932026490066225	0.147496688741722	0.229933774834437	1.6317880794702	6.49192052980132	0.782516556291392				0.511788079470199	-0.414834437086093	-0.708238410596026	4.50039735099338	-2.92238410596027	-3.27470198675497			
173	3800	0.983841059602649	0.0347549668874172	0.104476821192053	-3.88662251655629	-3.2246357615894	-1.74490066225166				0.976953642384106	0.0957880794701987	0.285139072847682	-1.52609271523179	12.0678145695364	2.49403973509934				0.965827814569536	-0.0172715231788079	-0.10394701986755	-1.11258278145695	-4.33350993377483	2.87973509933775				0.512529801324503	-0.208529801324503	-0.789721854304636	2.76291390728477	3.2635761589404	-3.13562913907285				0.948026490066225	0.163496688741722	0.229933774834437	1.6317880794702	6.21192052980133	0.502516556291392				0.511788079470199	-0.398834437086093	-0.724238410596026	4.78039735099338	-2.64238410596027	-2.99470198675497			
174	3820	0.967841059602649	0.0507549668874172	0.088476821192053	-3.04662251655629	-3.2246357615894	-1.18490066225166				0.944953642384106	0.0957880794701987	0.301139072847682	0.153907284768212	6.74781456953642	3.05403973509934				0.965827814569536	-0.0172715231788079	-0.11994701986755	-5.31258278145695	-3.49350993377483	3.99973509933775				0.512529801324503	-0.224529801324503	-0.805721854304636	1.08291390728477	3.8235761589404	-2.29562913907285				0.948026490066225	0.147496688741722	0.229933774834437	1.9117880794702	5.37192052980133	0.502516556291392				0.511788079470199	-0.414834437086093	-0.708238410596026	7.86039735099338	-4.04238410596027	-2.43470198675497			
175	3840	0.983841059602649	0.0347549668874172	0.136476821192053	-1.64662251655629	-2.9446357615894	-2.58490066225166				0.960953642384106	0.0797880794701987	0.285139072847682	0.153907284768212	7.58781456953643	2.21403973509934				0.965827814569536	-0.0172715231788079	-0.13594701986755	-3.35258278145695	-2.37350993377483	3.99973509933775				0.512529801324503	-0.208529801324503	-0.821721854304636	0.802913907284768	4.1035761589404	-0.895629139072848				0.948026490066225	0.147496688741722	0.229933774834437	1.9117880794702	6.21192052980133	0.502516556291392				0.511788079470199	-0.430834437086093	-0.692238410596026	5.34039735099338	-3.20238410596026	-1.03470198675497			
176	3860	0.967841059602649	0.0347549668874172	0.104476821192053	-6.40662251655629	-2.1046357615894	-1.18490066225166				0.976953642384106	0.0797880794701987	0.285139072847682	-1.52609271523179	6.46781456953642	2.49403973509934				0.949827814569536	-0.00127152317880793	-0.15194701986755	-1.67258278145695	-1.53350993377483	5.11973509933775				0.512529801324503	-0.224529801324503	-0.805721854304636	1.08291390728477	2.9835761589404	-0.615629139072848				0.948026490066225	0.147496688741722	0.245933774834437	2.1917880794702	5.37192052980133	0.222516556291392				0.511788079470199	-0.430834437086093	-0.692238410596026	1.98039735099338	-2.64238410596027	-0.754701986754968			
177	3880	0.967841059602649	0.0507549668874172	0.088476821192053	-7.24662251655629	-1.5446357615894	-1.18490066225166				0.960953642384106	0.0797880794701987	0.285139072847682	-1.52609271523179	4.50781456953642	1.65403973509934				0.965827814569536	-0.00127152317880793	-0.15194701986755	-2.79258278145695	-2.37350993377483	5.39973509933775				0.528529801324503	-0.224529801324503	-0.805721854304636	-0.877086092715232	1.8635761589404	0.224370860927152				0.948026490066225	0.147496688741722	0.229933774834437	0.791788079470198	4.81192052980133	0.782516556291392				0.527788079470199	-0.414834437086093	-0.692238410596026	1.98039735099338	-0.682384105960265	-2.15470198675497			
