No	Time	12-AccX	12-AccY	12-AccZ	12-GyroX	12-GyroY	12-GyroZ	13-AccX	13-AccY	13-AccZ	13-GyroX	13-GyroY	13-GyroZ	14-AccX	14-AccY	14-AccZ	14-GyroX	14-GyroY	14-GyroZ	15-AccX	15-AccY	15-AccZ	15-GyroX	15-GyroY	15-GyroZ	16-AccX	16-AccY	16-AccZ	16-GyroX	16-GyroY	16-GyroZ	17-AccX	17-AccY	17-AccZ	17-GyroX	17-GyroY	17-GyroZ
0	100	0	0	0	0	0	0				0	0	0	0	0	0				0	0	0	0	0	0				0.240529801324503	-0.0165298013245033	-0.949721854304636	1.92291390728477	1.3035761589404	-2.01562913907285				0.964026490066225	0.0674966887417219	0.165933774834437	1.0717880794702	0.331920529801325	1.34251655629139				0.239788079470199	-0.350834437086093	-0.852238410596026	1.14039735099338	-0.402384105960265	-2.15470198675497			
1	120	0	0	0	0	0	0				0	0	0	0	0	0				0	0	0	0	0	0				0.240529801324503	-0.0165298013245033	-0.949721854304636	4.16291390728477	1.5835761589404	-1.73562913907285				0.964026490066225	0.0674966887417219	0.165933774834437	3.0317880794702	0.611920529801325	1.06251655629139				0.239788079470199	-0.350834437086093	-0.836238410596026	2.82039735099338	-0.402384105960265	-1.31470198675497			
2	140	-0.232158940397351	0.146754966887417	-0.935523178807947	0.873377483443709	0.415364238410596	-0.904900662251656				0.960953642384106	0.0317880794701987	0.317139072847682	2.95390728476821	-1.65218543046358	3.33403973509934				-0.250172185430464	-0.00127152317880793	-0.88794701986755	0.567417218543046	1.82649006622517	-0.48026490066225				0.240529801324503	-0.0165298013245033	-0.949721854304636	3.88291390728477	1.5835761589404	-1.45562913907285				0.948026490066225	0.0674966887417219	0.165933774834437	3.0317880794702	1.17192052980133	1.34251655629139				0.239788079470199	-0.366834437086093	-0.852238410596026	2.26039735099338	-0.962384105960265	-1.31470198675497			
3	160	-0.232158940397351	0.162754966887417	-0.935523178807947	2.27337748344371	0.135364238410596	-1.74490066225166				0.960953642384106	0.0317880794701987	0.301139072847682	1.83390728476821	-2.49218543046358	3.33403973509934				-0.266172185430464	-0.0172715231788079	-0.88794701986755	0.847417218543046	0.706490066225167	-0.76026490066225				0.240529801324503	-0.0325298013245033	-0.949721854304636	3.04291390728477	1.3035761589404	-2.01562913907285				0.948026490066225	0.0514966887417219	0.165933774834437	2.4717880794702	0.891920529801325	1.62251655629139				0.239788079470199	-0.366834437086093	-0.852238410596026	2.82039735099338	-0.402384105960265	-1.59470198675497			
4	180	-0.216158940397351	0.146754966887417	-0.935523178807947	-0.246622516556291	0.695364238410596	-2.02490066225166				0.960953642384106	0.0317880794701987	0.317139072847682	0.713907284768212	-2.77218543046358	2.77403973509934				-0.234172185430464	-0.0172715231788079	-0.87194701986755	2.24741721854305	0.426490066225167	-0.48026490066225				0.240529801324503	-0.0325298013245033	-0.949721854304636	1.08291390728477	0.4635761589404	-1.45562913907285				0.948026490066225	0.0674966887417219	0.165933774834437	1.3517880794702	0.0519205298013249	1.34251655629139				0.239788079470199	-0.366834437086093	-0.836238410596026	1.42039735099338	-0.402384105960265	-1.03470198675497			
5	200	-0.216158940397351	0.146754966887417	-0.935523178807947	0.313377483443709	0.135364238410596	-0.624900662251656				0.944953642384106	0.0317880794701987	0.317139072847682	0.993907284768212	-3.89218543046358	3.05403973509934				-0.250172185430464	-0.0172715231788079	-0.88794701986755	1.12741721854305	0.146490066225167	-0.76026490066225				0.224529801324503	-0.0165298013245033	-0.933721854304636	1.36291390728477	0.1835761589404	-0.895629139072848				0.948026490066225	0.0514966887417219	0.165933774834437	1.9117880794702	2.01192052980133	0.502516556291392				0.239788079470199	-0.350834437086093	-0.820238410596026	1.42039735099338	-0.122384105960265	-2.15470198675497			
6	220	-0.216158940397351	0.146754966887417	-0.935523178807947	1.15337748344371	-0.424635761589404	-1.18490066225166				0.944953642384106	0.0317880794701987	0.301139072847682	1.83390728476821	-2.77218543046358	1.93403973509934				-0.250172185430464	-0.0172715231788079	-0.88794701986755	0.847417218543046	0.706490066225167	-0.48026490066225				0.224529801324503	-0.0165298013245033	-0.917721854304636	1.64291390728477	0.7435761589404	-1.45562913907285				0.948026490066225	0.0514966887417219	0.149933774834437	2.4717880794702	1.17192052980133	1.06251655629139				0.239788079470199	-0.366834437086093	-0.836238410596026	1.98039735099338	-1.52238410596026	-1.87470198675497			
7	240	-0.216158940397351	0.146754966887417	-0.919523178807947	0.873377483443709	-0.424635761589404	-1.74490066225166				0.944953642384106	0.0317880794701987	0.285139072847682	2.95390728476821	0.0278145695364242	1.93403973509934				-0.234172185430464	-0.00127152317880793	-0.88794701986755	0.567417218543046	-0.133509933774833	-1.04026490066225				0.224529801324503	-0.0165298013245033	-0.917721854304636	1.92291390728477	1.3035761589404	-2.01562913907285				0.948026490066225	0.0514966887417219	0.165933774834437	1.9117880794702	1.73192052980133	-0.0574834437086077				0.239788079470199	-0.366834437086093	-0.836238410596026	2.82039735099338	-2.64238410596027	-1.87470198675497			
8	260	-0.232158940397351	0.146754966887417	-0.935523178807947	0.873377483443709	-0.424635761589404	-1.18490066225166				0.960953642384106	0.0317880794701987	0.301139072847682	3.23390728476821	3.94781456953642	2.77403973509934				-0.266172185430464	-0.0172715231788079	-0.87194701986755	0.847417218543046	0.146490066225167	-0.20026490066225				0.240529801324503	-0.0165298013245033	-0.933721854304636	3.88291390728477	1.8635761589404	-0.895629139072848				0.948026490066225	0.0674966887417219	0.165933774834437	1.3517880794702	2.01192052980133	-0.337483443708608				0.239788079470199	-0.366834437086093	-0.852238410596026	1.42039735099338	-2.92238410596027	-2.15470198675497			
9	280	-0.232158940397351	0.130754966887417	-0.935523178807947	3.67337748344371	0.695364238410596	-1.18490066225166				0.976953642384106	0.0317880794701987	0.317139072847682	0.993907284768212	2.82781456953642	2.49403973509934				-0.250172185430464	-0.00127152317880793	-0.88794701986755	1.96741721854305	0.146490066225167	-0.20026490066225				0.256529801324503	-0.0165298013245033	-0.949721854304636	4.16291390728477	2.1435761589404	-0.615629139072848				0.980026490066225	0.0514966887417219	0.165933774834437	2.1917880794702	2.01192052980133	0.502516556291392				0.239788079470199	-0.366834437086093	-0.852238410596026	1.70039735099338	-2.64238410596027	-2.43470198675497			
10	300	-0.232158940397351	0.130754966887417	-0.951523178807947	0.313377483443709	-0.424635761589404	-0.904900662251656				0.960953642384106	0.0317880794701987	0.317139072847682	-1.52609271523179	0.587814569536424	1.65403973509934				-0.250172185430464	-0.0172715231788079	-0.88794701986755	1.96741721854305	0.146490066225167	-1.32026490066225				0.256529801324503	-0.0325298013245033	-0.949721854304636	3.88291390728477	2.7035761589404	-1.17562913907285				0.964026490066225	0.0674966887417219	0.165933774834437	1.9117880794702	1.17192052980133	-0.617483443708608				0.239788079470199	-0.382834437086093	-0.852238410596026	2.82039735099338	-1.80238410596026	-2.71470198675497			
11	320	-0.232158940397351	0.146754966887417	-0.935523178807947	0.313377483443709	-0.984635761589404	-0.904900662251656				0.960953642384106	0.0317880794701987	0.317139072847682	-0.126092715231788	-1.93218543046358	1.37403973509934				-0.250172185430464	-0.0172715231788079	-0.88794701986755	0.847417218543046	-0.693509933774834	-0.20026490066225				0.240529801324503	-0.0165298013245033	-0.965721854304636	1.92291390728477	1.8635761589404	-0.895629139072848				0.964026490066225	0.0674966887417219	0.165933774834437	0.791788079470198	1.17192052980133	-0.0574834437086077				0.239788079470199	-0.382834437086093	-0.852238410596026	0.860397350993377	-1.24238410596026	-1.59470198675497			
12	340	-0.232158940397351	0.130754966887417	-0.935523178807947	0.313377483443709	-0.144635761589404	-1.18490066225166				0.960953642384106	0.0317880794701987	0.301139072847682	2.11390728476821	-1.37218543046358	1.37403973509934				-0.250172185430464	-0.0172715231788079	-0.88794701986755	0.00741721854304636	0.146490066225167	-0.48026490066225				0.240529801324503	-0.0325298013245033	-0.933721854304636	0.802913907284768	1.5835761589404	-0.895629139072848				0.948026490066225	0.0674966887417219	0.181933774834437	1.0717880794702	1.45192052980132	0.502516556291392				0.239788079470199	-0.366834437086093	-0.852238410596026	0.860397350993377	-1.24238410596026	-1.31470198675497			
13	360	-0.216158940397351	0.130754966887417	-0.935523178807947	0.0333774834437086	0.975364238410596	-0.904900662251656				0.960953642384106	0.0317880794701987	0.317139072847682	2.39390728476821	-1.37218543046358	1.65403973509934				-0.250172185430464	-0.0172715231788079	-0.88794701986755	0.287417218543046	0.706490066225167	-0.48026490066225				0.240529801324503	-0.0165298013245033	-0.933721854304636	1.92291390728477	2.4235761589404	-1.45562913907285				0.948026490066225	0.0514966887417219	0.165933774834437	0.511788079470198	1.17192052980133	-0.337483443708608				0.239788079470199	-0.366834437086093	-0.852238410596026	1.14039735099338	-0.962384105960265	-1.31470198675497			
14	380	-0.232158940397351	0.146754966887417	-0.919523178807947	1.99337748344371	0.695364238410596	-0.904900662251656				0.944953642384106	0.0317880794701987	0.317139072847682	1.83390728476821	-0.532185430463576	2.21403973509934				-0.250172185430464	-0.0172715231788079	-0.88794701986755	-0.552582781456954	0.146490066225167	-0.76026490066225				0.240529801324503	-0.000529801324503289	-0.949721854304636	3.32291390728477	0.7435761589404	-1.73562913907285				0.964026490066225	0.0674966887417219	0.165933774834437	0.511788079470198	1.17192052980133	0.502516556291392				0.239788079470199	-0.366834437086093	-0.852238410596026	1.70039735099338	-0.682384105960265	-0.754701986754968			
15	400	-0.232158940397351	0.146754966887417	-0.935523178807947	0.313377483443709	-0.424635761589404	-0.904900662251656				0.976953642384106	0.0317880794701987	0.317139072847682	2.39390728476821	-1.37218543046358	1.65403973509934				-0.250172185430464	-0.0172715231788079	-0.88794701986755	1.40741721854305	-0.413509933774833	-0.76026490066225				0.256529801324503	-0.0165298013245033	-0.933721854304636	2.20291390728477	1.5835761589404	-2.29562913907285				0.964026490066225	0.0674966887417219	0.181933774834437	-0.0482119205298018	0.611920529801325	0.222516556291392				0.239788079470199	-0.366834437086093	-0.852238410596026	2.26039735099338	-0.682384105960265	-1.87470198675497			
16	420	-0.216158940397351	0.162754966887417	-0.919523178807947	1.15337748344371	0.135364238410596	-1.18490066225166				0.960953642384106	0.0317880794701987	0.301139072847682	3.51390728476821	-5.01218543046358	1.09403973509934				-0.266172185430464	-0.0172715231788079	-0.88794701986755	0.567417218543046	0.426490066225167	-0.76026490066225				0.240529801324503	-0.0325298013245033	-0.933721854304636	2.20291390728477	2.4235761589404	-2.57562913907285				0.964026490066225	0.0514966887417219	0.165933774834437	0.511788079470198	0.0519205298013249	1.06251655629139				0.239788079470199	-0.366834437086093	-0.852238410596026	1.14039735099338	-1.24238410596026	-2.15470198675497			
17	440	-0.232158940397351	0.146754966887417	-0.951523178807947	0.873377483443709	0.135364238410596	-0.624900662251656				0.960953642384106	0.0477880794701987	0.269139072847682	5.47390728476821	-6.13218543046358	1.93403973509934				-0.266172185430464	-0.00127152317880793	-0.88794701986755	-0.272582781456954	0.986490066225167	-0.20026490066225				0.240529801324503	-0.0165298013245033	-0.933721854304636	1.92291390728477	2.4235761589404	-2.85562913907285				0.964026490066225	0.0674966887417219	0.165933774834437	0.791788079470198	0.611920529801325	0.222516556291392				0.223788079470199	-0.366834437086093	-0.836238410596026	0.0203973509933773	-1.24238410596026	-2.43470198675497			
18	460	-0.216158940397351	0.146754966887417	-0.919523178807947	0.0333774834437086	0.415364238410596	-1.18490066225166				0.960953642384106	0.0317880794701987	0.269139072847682	5.19390728476821	-2.49218543046358	1.65403973509934				-0.250172185430464	-0.0172715231788079	-0.88794701986755	1.68741721854305	0.706490066225167	-0.76026490066225				0.240529801324503	-0.0325298013245033	-0.933721854304636	3.32291390728477	2.9835761589404	-2.01562913907285				0.948026490066225	0.0674966887417219	0.165933774834437	1.0717880794702	-0.228079470198675	0.222516556291392				0.223788079470199	-0.350834437086093	-0.836238410596026	0.300397350993377	-0.402384105960265	-1.87470198675497			
19	480	-0.216158940397351	0.146754966887417	-0.935523178807947	0.313377483443709	0.415364238410596	-1.46490066225166				0.944953642384106	0.0317880794701987	0.301139072847682	1.55390728476821	-1.65218543046358	1.37403973509934				-0.250172185430464	-0.0172715231788079	-0.88794701986755	1.12741721854305	-0.133509933774833	-0.48026490066225				0.240529801324503	-0.0325298013245033	-0.949721854304636	3.88291390728477	4.3835761589404	-1.17562913907285				0.948026490066225	0.0674966887417219	0.149933774834437	2.4717880794702	0.331920529801325	0.222516556291392				0.223788079470199	-0.350834437086093	-0.852238410596026	0.580397350993377	-0.682384105960265	-2.71470198675497			
20	500	-0.216158940397351	0.146754966887417	-0.935523178807947	-1.08662251655629	0.415364238410596	-0.344900662251656				0.944953642384106	0.0317880794701987	0.301139072847682	-0.406092715231788	-1.93218543046358	1.09403973509934				-0.250172185430464	-0.0172715231788079	-0.88794701986755	1.12741721854305	-0.133509933774833	-1.04026490066225				0.240529801324503	-0.0485298013245033	-0.933721854304636	3.32291390728477	4.3835761589404	-1.17562913907285				0.948026490066225	0.0514966887417219	0.149933774834437	2.4717880794702	-0.788079470198675	0.222516556291392				0.223788079470199	-0.350834437086093	-0.852238410596026	1.70039735099338	-0.122384105960265	-2.99470198675497			
21	520	-0.232158940397351	0.146754966887417	-0.935523178807947	1.15337748344371	-0.144635761589404	-0.624900662251656				0.960953642384106	0.0317880794701987	0.285139072847682	0.993907284768212	-1.93218543046358	1.09403973509934				-0.250172185430464	-0.0172715231788079	-0.88794701986755	0.00741721854304636	-0.133509933774833	-1.04026490066225				0.224529801324503	-0.0325298013245033	-0.933721854304636	3.04291390728477	3.5435761589404	-1.73562913907285				0.932026490066225	0.0674966887417219	0.181933774834437	4.9917880794702	3.13192052980133	0.222516556291392				0.223788079470199	-0.382834437086093	-0.836238410596026	1.70039735099338	-0.962384105960265	-2.15470198675497			
22	540	-0.232158940397351	0.130754966887417	-0.935523178807947	1.15337748344371	-0.144635761589404	-0.904900662251656				0.960953642384106	0.0157880794701987	0.285139072847682	1.55390728476821	-0.532185430463576	1.37403973509934				-0.250172185430464	-0.0172715231788079	-0.88794701986755	0.00741721854304636	0.146490066225167	-0.76026490066225				0.240529801324503	-0.0325298013245033	-0.933721854304636	1.36291390728477	1.0235761589404	-1.17562913907285				0.948026490066225	0.0514966887417219	0.149933774834437	1.6317880794702	1.17192052980133	0.502516556291392				0.223788079470199	-0.382834437086093	-0.836238410596026	-0.539602649006623	-2.08238410596027	-1.59470198675497			
23	560	-0.216158940397351	0.146754966887417	-0.919523178807947	0.873377483443709	0.135364238410596	-0.904900662251656				0.976953642384106	0.0317880794701987	0.301139072847682	2.11390728476821	0.307814569536424	1.37403973509934				-0.266172185430464	-0.0172715231788079	-0.88794701986755	0.847417218543046	0.146490066225167	-0.76026490066225				0.240529801324503	-0.0325298013245033	-0.933721854304636	1.92291390728477	1.5835761589404	-1.45562913907285				0.964026490066225	0.0514966887417219	0.165933774834437	0.231788079470198	2.29192052980133	-0.617483443708608				0.239788079470199	-0.366834437086093	-0.852238410596026	-0.819602649006623	-0.682384105960265	-1.03470198675497			
24	580	-0.232158940397351	0.130754966887417	-0.935523178807947	0.0333774834437086	0.135364238410596	-0.344900662251656				0.960953642384106	0.0317880794701987	0.285139072847682	-0.126092715231788	0.867814569536424	1.65403973509934				-0.250172185430464	-0.0172715231788079	-0.88794701986755	1.68741721854305	-1.25350993377483	-1.04026490066225				0.240529801324503	-0.0325298013245033	-0.965721854304636	1.64291390728477	2.1435761589404	-0.335629139072848				0.964026490066225	0.0674966887417219	0.197933774834437	0.511788079470198	4.25192052980133	-1.17748344370861				0.239788079470199	-0.382834437086093	-0.852238410596026	1.42039735099338	0.157615894039735	-1.03470198675497			
25	600	-0.216158940397351	0.130754966887417	-0.935523178807947	0.593377483443709	-0.144635761589404	-1.74490066225166				0.960953642384106	0.0317880794701987	0.301139072847682	-3.48609271523179	1.42781456953642	0.53403973509934				-0.250172185430464	-0.0172715231788079	-0.87194701986755	0.567417218543046	-0.133509933774833	0.0797350993377501				0.240529801324503	-0.0325298013245033	-0.949721854304636	0.242913907284768	1.8635761589404	0.504370860927152				0.980026490066225	0.0354966887417219	0.165933774834437	1.9117880794702	1.17192052980133	-0.897483443708608				0.239788079470199	-0.382834437086093	-0.852238410596026	0.580397350993377	1.27761589403974	-1.31470198675497			
26	620	-0.232158940397351	0.146754966887417	-0.935523178807947	-0.246622516556291	0.415364238410596	-1.46490066225166				0.976953642384106	0.0157880794701987	0.317139072847682	0.433907284768212	-1.65218543046358	0.53403973509934				-0.250172185430464	-0.0172715231788079	-0.88794701986755	0.287417218543046	0.426490066225167	0.35973509933775				0.256529801324503	-0.0325298013245033	-0.933721854304636	1.64291390728477	1.0235761589404	1.34437086092715				0.964026490066225	0.0354966887417219	0.181933774834437	1.6317880794702	-0.228079470198675	0.222516556291392				0.255788079470199	-0.382834437086093	-0.852238410596026	-0.539602649006623	1.83761589403974	0.365298013245032			
27	640	-0.232158940397351	0.146754966887417	-0.951523178807947	-0.246622516556291	0.975364238410596	-0.624900662251656				0.976953642384106	0.0317880794701987	0.285139072847682	0.433907284768212	0.307814569536424	-0.30596026490066				-0.250172185430464	-0.0332715231788079	-0.88794701986755	0.00741721854304636	0.986490066225167	0.63973509933775				0.256529801324503	-0.0485298013245033	-0.949721854304636	-0.0370860927152318	-0.3764238410596	1.06437086092715				0.964026490066225	0.0514966887417219	0.165933774834437	-0.888211920529802	-0.228079470198675	0.502516556291392				0.255788079470199	-0.382834437086093	-0.868238410596026	-0.819602649006623	0.717615894039735	0.0852980132450323			
28	660	-0.232158940397351	0.130754966887417	-0.935523178807947	-0.246622516556291	1.2553642384106	-0.344900662251656				0.960953642384106	0.0317880794701987	0.301139072847682	-2.64609271523179	0.0278145695364242	-1.14596026490066				-0.250172185430464	-0.0172715231788079	-0.88794701986755	0.287417218543046	-0.693509933774834	0.0797350993377501				0.256529801324503	-0.0325298013245033	-0.949721854304636	-0.317086092715232	-0.9364238410596	1.34437086092715				0.964026490066225	0.0514966887417219	0.181933774834437	-1.1682119205298	-0.228079470198675	0.782516556291392				0.239788079470199	-0.366834437086093	-0.868238410596026	-0.259602649006623	-0.122384105960265	0.0852980132450323			
29	680	-0.232158940397351	0.130754966887417	-0.935523178807947	-0.806622516556291	0.695364238410596	-0.904900662251656				0.960953642384106	0.0317880794701987	0.301139072847682	-2.64609271523179	-0.252185430463576	-0.86596026490066				-0.250172185430464	-0.0172715231788079	-0.85594701986755	-0.552582781456954	0.146490066225167	0.35973509933775				0.256529801324503	-0.0325298013245033	-0.933721854304636	0.242913907284768	-0.6564238410596	1.90437086092715				0.948026490066225	0.0514966887417219	0.181933774834437	-0.888211920529802	0.891920529801325	0.782516556291392				0.239788079470199	-0.382834437086093	-0.852238410596026	-0.539602649006623	-0.962384105960265	0.365298013245032			
30	700	-0.232158940397351	0.146754966887417	-0.935523178807947	-0.246622516556291	0.975364238410596	-1.18490066225166				0.960953642384106	0.0317880794701987	0.285139072847682	-1.52609271523179	-0.812185430463576	-0.86596026490066				-0.266172185430464	-0.0172715231788079	-0.88794701986755	0.567417218543046	0.986490066225167	0.0797350993377501				0.256529801324503	-0.0165298013245033	-0.933721854304636	-1.15708609271523	-1.4964238410596	1.62437086092715				0.948026490066225	0.0514966887417219	0.165933774834437	-0.608211920529802	0.331920529801325	0.222516556291392				0.239788079470199	-0.366834437086093	-0.836238410596026	0.300397350993377	-0.402384105960265	0.0852980132450323			
31	720	-0.232158940397351	0.146754966887417	-0.951523178807947	-0.246622516556291	0.135364238410596	-0.624900662251656				0.960953642384106	0.0317880794701987	0.285139072847682	0.993907284768212	-0.812185430463576	-0.86596026490066				-0.266172185430464	-0.00127152317880793	-0.87194701986755	0.567417218543046	1.26649006622517	0.63973509933775				0.240529801324503	-0.0165298013245033	-0.933721854304636	-0.597086092715232	-1.4964238410596	1.34437086092715				0.948026490066225	0.0674966887417219	0.181933774834437	-1.1682119205298	0.331920529801325	-0.337483443708608				0.223788079470199	-0.350834437086093	-0.836238410596026	-1.37960264900662	0.717615894039735	1.20529801324503			
32	740	-0.232158940397351	0.146754966887417	-0.919523178807947	-0.806622516556291	0.695364238410596	-0.904900662251656				0.960953642384106	0.0317880794701987	0.269139072847682	1.55390728476821	0.587814569536424	-0.86596026490066				-0.250172185430464	-0.0172715231788079	-0.87194701986755	-0.272582781456954	0.986490066225167	0.35973509933775				0.256529801324503	-0.0325298013245033	-0.917721854304636	0.522913907284768	-1.4964238410596	1.62437086092715				0.948026490066225	0.0514966887417219	0.165933774834437	-1.7282119205298	-0.508079470198675	0.502516556291392				0.223788079470199	-0.350834437086093	-0.836238410596026	0.0203973509933773	-0.122384105960265	0.925298013245032			
33	760	-0.216158940397351	0.130754966887417	-0.919523178807947	0.313377483443709	0.975364238410596	-0.904900662251656				0.960953642384106	0.0317880794701987	0.285139072847682	-0.966092715231788	1.42781456953642	-0.0259602649006601				-0.234172185430464	-0.0172715231788079	-0.88794701986755	1.40741721854305	0.426490066225167	-0.20026490066225				0.256529801324503	-0.0325298013245033	-0.933721854304636	0.522913907284768	0.1835761589404	1.06437086092715				0.964026490066225	0.0514966887417219	0.165933774834437	-1.1682119205298	-0.228079470198675	-0.337483443708608				0.223788079470199	-0.366834437086093	-0.836238410596026	-0.259602649006623	0.157615894039735	-1.31470198675497			
34	780	-0.216158940397351	0.146754966887417	-0.935523178807947	-1.36662251655629	0.415364238410596	-0.624900662251656				0.944953642384106	0.0317880794701987	0.301139072847682	-4.04609271523179	2.26781456953642	-0.86596026490066				-0.250172185430464	-0.0172715231788079	-0.88794701986755	0.567417218543046	0.706490066225167	-0.76026490066225				0.256529801324503	-0.0325298013245033	-0.933721854304636	1.64291390728477	1.3035761589404	2.18437086092715				0.948026490066225	0.0674966887417219	0.165933774834437	-1.4482119205298	-1.34807947019868	-0.897483443708608				0.207788079470199	-0.350834437086093	-0.852238410596026	-0.539602649006623	0.717615894039735	-1.03470198675497			
35	800	-0.216158940397351	0.146754966887417	-0.951523178807947	-0.806622516556291	0.135364238410596	-1.74490066225166				0.944953642384106	0.0317880794701987	0.301139072847682	-3.20609271523179	4.78781456953642	-0.86596026490066				-0.250172185430464	-0.0172715231788079	-0.87194701986755	-0.272582781456954	0.146490066225167	-0.48026490066225				0.240529801324503	-0.0165298013245033	-0.933721854304636	0.522913907284768	0.1835761589404	0.784370860927152				0.948026490066225	0.0514966887417219	0.165933774834437	-0.608211920529802	-0.228079470198675	-0.337483443708608				0.223788079470199	-0.350834437086093	-0.836238410596026	-1.09960264900662	0.437615894039735	-2.43470198675497			
36	820	-0.216158940397351	0.146754966887417	-0.935523178807947	-1.36662251655629	0.695364238410596	-1.18490066225166				0.960953642384106	0.0317880794701987	0.317139072847682	-1.24609271523179	6.74781456953642	-0.585960264900661				-0.250172185430464	-0.0172715231788079	-0.87194701986755	-0.832582781456954	-0.133509933774833	0.0797350993377501				0.240529801324503	-0.0165298013245033	-0.933721854304636	0.802913907284768	-0.6564238410596	-0.895629139072848				0.948026490066225	0.0514966887417219	0.165933774834437	2.1917880794702	0.0519205298013249	-0.0574834437086077				0.239788079470199	-0.366834437086093	-0.852238410596026	-0.819602649006623	-0.122384105960265	-2.43470198675497			
37	840	-0.232158940397351	0.146754966887417	-0.935523178807947	0.873377483443709	0.135364238410596	-1.46490066225166				0.976953642384106	0.0317880794701987	0.317139072847682	-1.52609271523179	5.62781456953642	-0.585960264900661				-0.250172185430464	-0.0172715231788079	-0.90394701986755	-0.272582781456954	-0.693509933774834	0.0797350993377501				0.256529801324503	-0.0325298013245033	-0.949721854304636	1.08291390728477	-0.3764238410596	-1.17562913907285				0.964026490066225	0.0674966887417219	0.181933774834437	0.231788079470198	-0.788079470198675	-0.897483443708608				0.239788079470199	-0.366834437086093	-0.852238410596026	-1.65960264900662	0.157615894039735	-1.87470198675497			
38	860	-0.232158940397351	0.146754966887417	-0.935523178807947	1.15337748344371	0.415364238410596	-2.02490066225166				0.960953642384106	0.0317880794701987	0.317139072847682	-1.52609271523179	4.78781456953642	-0.86596026490066				-0.234172185430464	-0.0172715231788079	-0.88794701986755	-0.272582781456954	0.426490066225167	-0.20026490066225				0.256529801324503	-0.0485298013245033	-0.949721854304636	0.242913907284768	0.4635761589404	-1.17562913907285				0.964026490066225	0.0674966887417219	0.165933774834437	-1.7282119205298	-0.788079470198675	-1.45748344370861				0.239788079470199	-0.366834437086093	-0.852238410596026	-2.21960264900662	0.997615894039735	-1.31470198675497			
39	880	-0.232158940397351	0.146754966887417	-0.935523178807947	-1.08662251655629	0.695364238410596	-1.18490066225166				0.960953642384106	0.0317880794701987	0.317139072847682	-2.08609271523179	3.66781456953642	-0.585960264900661				-0.250172185430464	-0.0172715231788079	-0.88794701986755	-0.552582781456954	-0.413509933774833	0.0797350993377501				0.240529801324503	-0.0325298013245033	-0.933721854304636	-1.99708609271523	-0.0964238410596001	-0.615629139072848				0.964026490066225	0.0674966887417219	0.165933774834437	-1.1682119205298	-1.34807947019868	-1.73748344370861				0.255788079470199	-0.366834437086093	-0.852238410596026	-1.37960264900662	1.83761589403974	-1.31470198675497			
40	900	-0.232158940397351	0.130754966887417	-0.935523178807947	4.23337748344371	0.135364238410596	-1.74490066225166				0.960953642384106	0.0317880794701987	0.301139072847682	-0.686092715231788	3.10781456953642	-0.0259602649006601				-0.250172185430464	-0.0172715231788079	-0.87194701986755	-0.272582781456954	0.146490066225167	0.63973509933775				0.240529801324503	-0.0165298013245033	-0.933721854304636	-0.877086092715232	-0.3764238410596	-0.895629139072848				0.964026490066225	0.0674966887417219	0.181933774834437	-1.1682119205298	-2.46807947019868	-1.45748344370861				0.255788079470199	-0.366834437086093	-0.852238410596026	-1.09960264900662	1.55761589403974	-1.03470198675497			
41	920	-0.216158940397351	0.130754966887417	-0.919523178807947	0.0333774834437086	0.695364238410596	-1.74490066225166				0.960953642384106	0.0317880794701987	0.317139072847682	-0.406092715231788	3.66781456953642	-0.0259602649006601				-0.250172185430464	-0.0172715231788079	-0.88794701986755	-0.272582781456954	0.706490066225167	0.35973509933775				0.240529801324503	-0.0165298013245033	-0.949721854304636	0.802913907284768	0.4635761589404	-0.895629139072848				0.964026490066225	0.0514966887417219	0.181933774834437	-2.0082119205298	-1.90807947019868	-0.617483443708608				0.239788079470199	-0.350834437086093	-0.868238410596026	-1.65960264900662	0.717615894039735	-1.31470198675497			
42	940	-0.216158940397351	0.130754966887417	-0.951523178807947	-0.246622516556291	-0.144635761589404	-0.624900662251656				0.960953642384106	0.0317880794701987	0.317139072847682	-1.52609271523179	2.54781456953642	0.53403973509934				-0.250172185430464	-0.0172715231788079	-0.88794701986755	0.567417218543046	-0.133509933774833	-0.76026490066225				0	0	0	0	0	0				0	0	0	0	0	0				0	0	0	0	0	0			
43	960	-0.232158940397351	0.146754966887417	-0.919523178807947	-0.806622516556291	0.975364238410596	-0.0649006622516557				0	0	0	0	0	0				0	0	0	0	0	0				0	0	0	0	0	0				0	0	0	0	0	0				0	0	0	0	0	0			
44	1060	0	0	0	0	0	0				0	0	0	0	0	0				0	0	0	0	0	0				0.256529801324503	-0.0325298013245033	-0.933721854304636	0.802913907284768	0.1835761589404	2.18437086092715				0.964026490066225	0.0514966887417219	0.165933774834437	-1.4482119205298	-2.46807947019868	0.502516556291392				0.239788079470199	-0.366834437086093	-0.836238410596026	0.580397350993377	-0.962384105960265	-0.474701986754968			
45	1080	0	0	0	0	0	0				0.960953642384106	0.0317880794701987	0.301139072847682	-0.686092715231788	-3.05218543046358	-1.14596026490066				-0.250172185430464	-0.0172715231788079	-0.88794701986755	-0.552582781456954	-0.693509933774834	0.35973509933775				0.240529801324503	-0.0325298013245033	-0.933721854304636	2.20291390728477	0.7435761589404	4.14437086092715				0.948026490066225	0.0834966887417219	0.181933774834437	-0.328211920529802	-0.228079470198675	0.502516556291392				0.239788079470199	-0.366834437086093	-0.820238410596026	-0.819602649006623	0.437615894039735	-0.194701986754968			
46	1100	-0.232158940397351	0.146754966887417	-0.935523178807947	-0.526622516556291	-0.144635761589404	-1.46490066225166				0.944953642384106	0.0317880794701987	0.301139072847682	-1.80609271523179	-1.09218543046358	-1.42596026490066				-0.266172185430464	-0.0172715231788079	-0.88794701986755	0.567417218543046	-0.133509933774833	-0.48026490066225				0.240529801324503	-0.0485298013245033	-0.949721854304636	1.36291390728477	0.7435761589404	4.14437086092715				0.948026490066225	0.0514966887417219	0.165933774834437	-0.888211920529802	-2.18807947019868	1.06251655629139				0.223788079470199	-0.366834437086093	-0.852238410596026	-1.37960264900662	0.717615894039735	0.365298013245032			
47	1120	-0.232158940397351	0.146754966887417	-0.935523178807947	-1.64662251655629	0.695364238410596	-1.46490066225166				0.944953642384106	0.0317880794701987	0.317139072847682	-1.80609271523179	1.70781456953642	-0.0259602649006601				-0.266172185430464	-0.00127152317880793	-0.88794701986755	0.847417218543046	0.426490066225167	0.0797350993377501				0.240529801324503	-0.0325298013245033	-0.933721854304636	0.522913907284768	0.7435761589404	2.74437086092715				0.932026490066225	0.0514966887417219	0.165933774834437	-2.2882119205298	0.331920529801325	-0.337483443708608				0.223788079470199	-0.334834437086093	-0.836238410596026	-0.259602649006623	0.157615894039735	0.365298013245032			
48	1140	-0.216158940397351	0.130754966887417	-0.935523178807947	0.313377483443709	0.415364238410596	-1.46490066225166				0.960953642384106	0.0477880794701987	0.301139072847682	-2.08609271523179	2.26781456953642	0.25403973509934				-0.250172185430464	-0.0172715231788079	-0.87194701986755	-0.552582781456954	0.426490066225167	0.0797350993377501				0.240529801324503	-0.0325298013245033	-0.933721854304636	-0.0370860927152318	0.4635761589404	1.34437086092715				0.948026490066225	0.0674966887417219	0.165933774834437	-2.8482119205298	0.331920529801325	-1.45748344370861				0.223788079470199	-0.350834437086093	-0.836238410596026	0.580397350993377	-0.402384105960265	0.365298013245032			
49	1160	-0.216158940397351	0.146754966887417	-0.919523178807947	0.873377483443709	-0.144635761589404	-0.904900662251656				0.960953642384106	0.0317880794701987	0.333139072847682	-1.80609271523179	-2.49218543046358	-1.14596026490066				-0.250172185430464	-0.0172715231788079	-0.87194701986755	0.567417218543046	-0.413509933774833	-0.48026490066225				0.256529801324503	-0.0165298013245033	-0.949721854304636	-1.15708609271523	0.1835761589404	1.90437086092715				0.964026490066225	0.0674966887417219	0.165933774834437	0.231788079470198	-0.228079470198675	0.502516556291392				0.239788079470199	-0.366834437086093	-0.852238410596026	-0.819602649006623	1.27761589403974	0.645298013245032			
50	1180	-0.232158940397351	0.146754966887417	-0.935523178807947	-1.64662251655629	0.695364238410596	-1.18490066225166				0.960953642384106	0.0317880794701987	0.317139072847682	0.433907284768212	-6.13218543046358	-0.585960264900661				-0.250172185430464	-0.0172715231788079	-0.88794701986755	-0.272582781456954	-0.973509933774833	-0.20026490066225				0.272529801324503	-0.0325298013245033	-0.933721854304636	0.522913907284768	1.3035761589404	1.62437086092715				0.964026490066225	0.0674966887417219	0.165933774834437	0.511788079470198	-1.34807947019868	0.502516556291392				0.239788079470199	-0.382834437086093	-0.868238410596026	-0.539602649006623	3.23761589403974	-1.03470198675497			
51	1200	-0.232158940397351	0.146754966887417	-0.935523178807947	-0.806622516556291	0.135364238410596	-0.904900662251656				0.944953642384106	0.0317880794701987	0.285139072847682	2.39390728476821	-2.77218543046358	-0.0259602649006601				-0.266172185430464	-0.00127152317880793	-0.88794701986755	0.847417218543046	0.426490066225167	-0.48026490066225				0.256529801324503	-0.0325298013245033	-0.949721854304636	0.522913907284768	2.1435761589404	1.62437086092715				0.964026490066225	0.0674966887417219	0.165933774834437	0.511788079470198	-2.46807947019868	1.34251655629139				0.239788079470199	-0.366834437086093	-0.884238410596026	-1.93960264900662	3.23761589403974	0.365298013245032			
52	1220	-0.232158940397351	0.146754966887417	-0.935523178807947	1.15337748344371	0.135364238410596	-0.624900662251656				0.944953642384106	0.0317880794701987	0.301139072847682	0.993907284768212	1.98781456953642	0.53403973509934				-0.234172185430464	-0.0172715231788079	-0.88794701986755	0.567417218543046	0.706490066225167	-1.04026490066225				0.256529801324503	-0.0325298013245033	-0.933721854304636	2.20291390728477	1.0235761589404	1.62437086092715				0.948026490066225	0.0674966887417219	0.181933774834437	1.0717880794702	-1.34807947019868	1.34251655629139				0.239788079470199	-0.350834437086093	-0.868238410596026	-0.539602649006623	1.83761589403974	0.925298013245032			
53	1240	-0.232158940397351	0.146754966887417	-0.919523178807947	-0.526622516556291	0.695364238410596	-0.344900662251656				0.944953642384106	0.0317880794701987	0.317139072847682	-0.966092715231788	2.82781456953642	0.25403973509934				-0.250172185430464	-0.0172715231788079	-0.88794701986755	-0.552582781456954	1.82649006622517	0.35973509933775				0.240529801324503	-0.0325298013245033	-0.933721854304636	3.88291390728477	0.4635761589404	1.06437086092715				0.948026490066225	0.0514966887417219	0.181933774834437	2.4717880794702	-0.508079470198675	0.502516556291392				0.239788079470199	-0.350834437086093	-0.852238410596026	-0.259602649006623	0.157615894039735	1.76529801324503			
54	1260	-0.216158940397351	0.130754966887417	-0.935523178807947	-0.526622516556291	0.415364238410596	-1.46490066225166				0.960953642384106	0.0317880794701987	0.301139072847682	-2.08609271523179	1.42781456953642	-0.30596026490066				-0.250172185430464	-0.0172715231788079	-0.88794701986755	0.00741721854304636	0.146490066225167	0.35973509933775				0.240529801324503	-0.0485298013245033	-0.933721854304636	0.522913907284768	-0.3764238410596	1.06437086092715				0.964026490066225	0.0674966887417219	0.181933774834437	2.4717880794702	1.17192052980133	0.502516556291392				0.239788079470199	-0.366834437086093	-0.852238410596026	3.94039735099338	-2.92238410596027	1.76529801324503			
55	1280	-0.216158940397351	0.146754966887417	-0.935523178807947	-0.526622516556291	0.975364238410596	-0.904900662251656				0.944953642384106	0.0317880794701987	0.269139072847682	-0.406092715231788	3.94781456953642	-0.0259602649006601				-0.234172185430464	-0.0172715231788079	-0.88794701986755	0.847417218543046	1.26649006622517	-0.76026490066225				0.240529801324503	-0.0325298013245033	-0.917721854304636	0.242913907284768	0.1835761589404	1.62437086092715				0.948026490066225	0.0674966887417219	0.181933774834437	2.1917880794702	1.73192052980133	0.222516556291392				0.255788079470199	-0.366834437086093	-0.836238410596026	2.54039735099338	-1.24238410596026	1.76529801324503			
56	1300	-0.232158940397351	0.146754966887417	-0.935523178807947	1.15337748344371	0.135364238410596	-1.18490066225166				0.960953642384106	0.0477880794701987	0.253139072847682	-0.686092715231788	9.54781456953642	-0.30596026490066				-0.234172185430464	-0.0172715231788079	-0.87194701986755	-0.832582781456954	0.706490066225167	-0.20026490066225				0.240529801324503	-0.0165298013245033	-0.917721854304636	1.64291390728477	0.4635761589404	1.06437086092715				0.932026490066225	0.0514966887417219	0.181933774834437	4.9917880794702	2.29192052980133	1.06251655629139				0.255788079470199	-0.350834437086093	-0.836238410596026	0.860397350993377	0.437615894039735	2.32529801324503			
57	1320	-0.216158940397351	0.146754966887417	-0.919523178807947	0.593377483443709	0.415364238410596	-0.624900662251656				0.944953642384106	0.0317880794701987	0.301139072847682	-1.24609271523179	11.2278145695364	-0.0259602649006601				-0.250172185430464	-0.0172715231788079	-0.88794701986755	-1.67258278145695	0.146490066225167	-0.48026490066225				0.256529801324503	-0.0485298013245033	-0.917721854304636	2.76291390728477	1.5835761589404	1.06437086092715				0.948026490066225	0.0514966887417219	0.133933774834437	3.3117880794702	0.0519205298013249	1.34251655629139				0.239788079470199	-0.350834437086093	-0.836238410596026	3.66039735099338	-0.402384105960265	0.645298013245032			
58	1340	-0.216158940397351	0.130754966887417	-0.919523178807947	-0.526622516556291	-0.704635761589404	-1.46490066225166				0.944953642384106	0.0477880794701987	0.349139072847682	-2.64609271523179	7.86781456953642	-1.98596026490066				-0.250172185430464	-0.00127152317880793	-0.88794701986755	-0.272582781456954	-0.133509933774833	-0.48026490066225				0.240529801324503	-0.0325298013245033	-0.917721854304636	3.60291390728477	-0.9364238410596	2.18437086092715				0.932026490066225	0.0674966887417219	0.165933774834437	1.9117880794702	2.85192052980133	-0.0574834437086077				0.239788079470199	-0.350834437086093	-0.836238410596026	5.62039735099338	-2.92238410596027	-0.194701986754968			
59	1360	-0.232158940397351	0.146754966887417	-0.919523178807947	-0.246622516556291	-0.984635761589404	-1.74490066225166				0.944953642384106	0.0477880794701987	0.365139072847682	-3.20609271523179	4.50781456953642	-2.26596026490066				-0.266172185430464	-0.0172715231788079	-0.87194701986755	0.287417218543046	-0.413509933774833	-0.20026490066225				0.240529801324503	-0.0325298013245033	-0.933721854304636	3.04291390728477	-0.6564238410596	3.02437086092715				0.948026490066225	0.0674966887417219	0.149933774834437	-0.888211920529802	0.611920529801325	-0.617483443708608				0.223788079470199	-0.366834437086093	-0.836238410596026	3.94039735099338	-3.76238410596027	0.365298013245032			
60	1380	-0.232158940397351	0.146754966887417	-0.935523178807947	-1.36662251655629	-0.424635761589404	-1.74490066225166				0.928953642384106	0.0317880794701987	0.365139072847682	-0.406092715231788	4.78781456953642	-0.30596026490066				-0.266172185430464	-0.0172715231788079	-0.88794701986755	-0.552582781456954	-0.693509933774834	-0.20026490066225				0.240529801324503	-0.0325298013245033	-0.933721854304636	2.48291390728477	-0.6564238410596	3.58437086092715				0.948026490066225	0.0674966887417219	0.149933774834437	-0.0482119205298018	0.331920529801325	-0.0574834437086077				0.223788079470199	-0.366834437086093	-0.852238410596026	0.0203973509933773	-1.80238410596026	2.04529801324503			
61	1400	-0.216158940397351	0.162754966887417	-0.935523178807947	0.873377483443709	-0.984635761589404	-0.904900662251656				0.944953642384106	0.0317880794701987	0.397139072847682	0.713907284768212	6.18781456953642	1.09403973509934				-0.250172185430464	-0.00127152317880793	-0.88794701986755	0.567417218543046	0.146490066225167	-0.20026490066225				0.240529801324503	-0.0485298013245033	-0.949721854304636	0.522913907284768	0.1835761589404	3.86437086092715				0.964026490066225	0.0674966887417219	0.165933774834437	-1.7282119205298	1.73192052980133	0.222516556291392				0.223788079470199	-0.366834437086093	-0.836238410596026	-1.09960264900662	-1.24238410596026	2.04529801324503			
62	1420	-0.200158940397351	0.146754966887417	-0.935523178807947	0.313377483443709	-1.2646357615894	-1.18490066225166				0.960953642384106	0.0477880794701987	0.397139072847682	1.83390728476821	1.98781456953642	0.25403973509934				-0.234172185430464	-0.00127152317880793	-0.88794701986755	0.847417218543046	-0.413509933774833	-1.04026490066225				0.240529801324503	-0.0645298013245033	-0.965721854304636	-0.597086092715232	0.7435761589404	4.14437086092715				0.980026490066225	0.0674966887417219	0.149933774834437	-3.9682119205298	0.891920529801325	-1.45748344370861				0.239788079470199	-0.350834437086093	-0.852238410596026	-0.819602649006623	-1.24238410596026	1.76529801324503			
63	1440	-0.200158940397351	0.162754966887417	-0.919523178807947	0.313377483443709	-0.424635761589404	-1.18490066225166				0.944953642384106	0.0317880794701987	0.397139072847682	2.67390728476821	-6.97218543046358	-0.86596026490066				-0.250172185430464	-0.0172715231788079	-0.90394701986755	1.12741721854305	-0.413509933774833	-1.88026490066225				0.256529801324503	-0.0645298013245033	-0.965721854304636	-2.27708609271523	1.3035761589404	6.38437086092715				0.964026490066225	0.0674966887417219	0.165933774834437	-6.2082119205298	0.331920529801325	-2.29748344370861				0.223788079470199	-0.366834437086093	-0.868238410596026	1.14039735099338	-3.76238410596027	1.20529801324503			
64	1460	-0.216158940397351	0.146754966887417	-0.935523178807947	1.15337748344371	-0.424635761589404	-0.904900662251656				0.928953642384106	0.0317880794701987	0.365139072847682	2.39390728476821	-6.97218543046358	-0.585960264900661				-0.250172185430464	-0.0172715231788079	-0.88794701986755	2.24741721854305	-0.413509933774833	-1.32026490066225				0.240529801324503	-0.0485298013245033	-0.981721854304636	-3.67708609271523	-1.4964238410596	8.06437086092715				0.964026490066225	0.0514966887417219	0.165933774834437	-5.3682119205298	-0.228079470198675	-1.45748344370861				0.223788079470199	-0.382834437086093	-0.868238410596026	0.0203973509933773	-5.72238410596027	2.32529801324503			
65	1480	-0.216158940397351	0.146754966887417	-0.935523178807947	1.43337748344371	-0.424635761589404	-2.02490066225166				0.944953642384106	0.0317880794701987	0.349139072847682	4.07390728476821	-2.77218543046358	-0.30596026490066				-0.250172185430464	-0.00127152317880793	-0.88794701986755	1.68741721854305	0.146490066225167	-1.04026490066225				0.240529801324503	-0.0805298013245033	-0.981721854304636	-3.39708609271523	-4.0164238410596	8.34437086092715				0.948026490066225	0.0514966887417219	0.165933774834437	-5.3682119205298	1.17192052980133	-1.73748344370861				0.223788079470199	-0.382834437086093	-0.868238410596026	-4.17960264900662	-6.00238410596027	5.12529801324503			
66	1500	-0.216158940397351	0.162754966887417	-0.935523178807947	1.43337748344371	-0.424635761589404	-1.74490066225166				0.976953642384106	0.0477880794701987	0.333139072847682	3.23390728476821	-0.252185430463576	-0.0259602649006601				-0.250172185430464	-0.00127152317880793	-0.88794701986755	1.96741721854305	0.146490066225167	-2.72026490066225				0.224529801324503	-0.0805298013245033	-0.981721854304636	-5.63708609271523	-5.9764238410596	9.18437086092715				0.948026490066225	0.0514966887417219	0.165933774834437	-4.8082119205298	2.85192052980133	-2.85748344370861				0.239788079470199	-0.366834437086093	-0.900238410596026	-7.53960264900662	-8.52238410596027	7.08529801324503			
67	1520	-0.216158940397351	0.146754966887417	-0.935523178807947	0.593377483443709	-0.424635761589404	-0.624900662251656				1.00895364238411	0.0637880794701987	0.269139072847682	4.35390728476821	-4.17218543046358	-0.585960264900661				-0.234172185430464	-0.00127152317880793	-0.88794701986755	2.24741721854305	-0.413509933774833	-2.16026490066225				0.224529801324503	-0.0805298013245033	-0.965721854304636	-9.83708609271523	-8.7764238410596	11.4243708609272				0.948026490066225	0.0674966887417219	0.133933774834437	-8.1682119205298	5.09192052980133	-3.41748344370861				0.223788079470199	-0.398834437086093	-0.900238410596026	-4.73960264900662	-11.0423841059603	9.04529801324503			
68	1540	-0.216158940397351	0.130754966887417	-0.935523178807947	2.55337748344371	-1.8246357615894	-1.18490066225166				0.992953642384106	0.0477880794701987	0.237139072847682	3.51390728476821	-6.41218543046358	0.25403973509934				-0.234172185430464	-0.0172715231788079	-0.88794701986755	4.20741721854305	0.426490066225167	-3.00026490066225				0.192529801324503	-0.0645298013245033	-0.997721854304636	-7.31708609271523	-14.9364238410596	12.2643708609272				0.964026490066225	0.0674966887417219	0.133933774834437	-10.6882119205298	8.45192052980133	-4.25748344370861				0.207788079470199	-0.382834437086093	-0.916238410596027	-8.65960264900662	-13.5623841059603	12.685298013245			
69	1560	-0.232158940397351	0.114754966887417	-0.935523178807947	1.15337748344371	-0.984635761589404	-1.18490066225166				0.976953642384106	0.0477880794701987	0.237139072847682	0.433907284768212	-2.49218543046358	3.61403973509934				-0.250172185430464	-0.0172715231788079	-0.90394701986755	4.76741721854305	0.426490066225167	-4.40026490066225				0.160529801324503	-0.112529801324503	-1.02972185430464	11.1629139072848	-12.9764238410596	8.62437086092715				0.980026490066225	0.0674966887417219	0.117933774834437	-12.9282119205298	12.0919205298013	-3.41748344370861				0.239788079470199	-0.350834437086093	-0.996238410596026	-8.93960264900662	-14.9623841059603	16.045298013245			
70	1580	-0.248158940397351	0.130754966887417	-0.935523178807947	-4.16662251655629	-0.144635761589404	0.215099337748344				1.02495364238411	0.0957880794701987	0.221139072847682	8.83390728476821	0.0278145695364242	3.05403973509934				-0.250172185430464	-0.0172715231788079	-0.88794701986755	1.40741721854305	1.26649006622517	-5.80026490066225				0.160529801324503	-0.0805298013245033	-1.01372185430464	-6.75708609271523	-15.7764238410596	7.22437086092715				0.980026490066225	0.0674966887417219	0.117933774834437	-15.1682119205298	19.0919205298013	-2.57748344370861				0.191788079470199	-0.414834437086093	-1.06023841059603	-5.01960264900662	-26.4423841059603	24.165298013245			
71	1600	-0.248158940397351	0.130754966887417	-0.935523178807947	-1.64662251655629	0.415364238410596	2.17509933774834				1.08895364238411	0.0957880794701987	0.205139072847682	9.39390728476821	-6.69218543046358	4.17403973509934				-0.266172185430464	0.0147284768211921	-0.88794701986755	3.08741721854305	0.986490066225167	-5.80026490066225				0.160529801324503	-0.0645298013245033	-1.09372185430464	-16.5570860927152	-25.2964238410596	5.82437086092715				1.02802649006623	0.0674966887417219	0.101933774834437	-18.5282119205298	21.6119205298013	-3.13748344370861				0.111788079470199	-0.430834437086093	-0.964238410596026	7.86039735099338	-29.5223841059603	34.245298013245			
72	1620	-0.248158940397351	0.114754966887417	-0.935523178807947	0.873377483443709	1.5353642384106	3.01509933774834				1.13695364238411	0.207788079470199	0.205139072847682	8.83390728476821	-19.8521854304636	6.41403973509934				-0.266172185430464	-0.0172715231788079	-0.90394701986755	5.88741721854305	0.986490066225167	-6.08026490066225				0.160529801324503	-0.0645298013245033	-1.15772185430464	-19.3570860927152	-23.6164238410596	-0.0556291390728476				1.07602649006623	0.0834966887417219	0.0699337748344371	-26.0882119205298	14.6119205298013	-3.41748344370861				0.0477880794701987	-0.398834437086093	-0.980238410596026	1.98039735099338	-15.8023841059603	50.485298013245			
73	1640	-0.248158940397351	0.0827549668874172	-0.919523178807947	-2.48662251655629	1.5353642384106	3.57509933774835				0.928953642384106	0.0797880794701987	0.221139072847682	7.15390728476821	-55.9721854304636	4.45403973509934				-0.266172185430464	-0.00127152317880793	-0.87194701986755	7.00741721854305	0.986490066225167	-8.60026490066225				0.128529801324503	-0.0965298013245033	-1.12572185430464	-29.1570860927152	-28.3764238410596	-4.81562913907285				1.07602649006623	0.0994966887417219	0.0219337748344371	-24.1282119205298	14.8919205298013	-5.65748344370861				0.0957880794701987	-0.366834437086093	-1.06023841059603	8.70039735099338	-23.9223841059603	60.285298013245			
74	1660	-0.264158940397351	0.0827549668874172	-0.935523178807947	-4.72662251655629	2.0953642384106	4.97509933774835				1.07295364238411	0.0957880794701987	0.0131390728476822	5.47390728476821	-57.9321854304636	4.45403973509934				-0.250172185430464	0.0307284768211921	-0.85594701986755	7.28741721854305	-0.693509933774834	-10.0002649006623				0.0325298013245033	-0.112529801324503	-1.10972185430464	-43.9970860927152	-42.6564238410596	-9.57562913907285				1.09202649006623	0.0834966887417219	-0.0420662251655629	-17.1282119205298	12.6519205298013	-4.81748344370861				-0.0802119205298013	-0.318834437086093	-0.948238410596026	18.5003973509934	-35.6823841059603	67.285298013245			
75	1680	-0.312158940397351	0.114754966887417	-0.951523178807947	-9.48662251655629	3.4953642384106	6.93509933774835				1.13695364238411	0.159788079470199	-0.0668609271523178	11.9139072847682	-24.3321854304636	10.3340397350993				-0.282172185430464	-0.0332715231788079	-0.87194701986755	13.727417218543	3.50649006622517	-6.64026490066225				-0.0154701986754967	-0.0965298013245033	-1.14172185430464	-47.3570860927152	-52.7364238410596	-18.5356291390728				1.09202649006623	0.0514966887417219	-0.106066225165563	-19.9282119205298	10.1319205298013	-5.93748344370861				-0.256211920529801	-0.286834437086093	-0.868238410596026	11.7803973509934	-14.4023841059603	74.005298013245			
76	1700	-0.296158940397351	0.114754966887417	-0.951523178807947	-12.0066225165563	5.7353642384106	11.4150993377483				1.12095364238411	0.0477880794701987	0.0451390728476822	-4.32609271523179	4.22781456953642	27.6940397350993				-0.266172185430464	-0.177271523178808	-0.85594701986755	12.327417218543	4.90649006622517	-3.28026490066225				-0.0154701986754967	-0.0165298013245033	-1.15772185430464	-57.4370860927152	-56.0964238410596	-28.8956291390729				1.07602649006623	0.0514966887417219	-0.0740662251655629	-14.0482119205298	13.4919205298013	-7.61748344370861				-0.208211920529801	-0.302834437086093	-0.948238410596026	8.70039735099338	-9.64238410596027	79.325298013245			
77	1720	-0.296158940397351	0.0827549668874172	-0.935523178807947	-11.4466225165563	5.4553642384106	12.5350993377483				0.976953642384106	-0.160211920529801	0.0931390728476822	-27.0060927152318	-24.3321854304636	33.2940397350993				-0.250172185430464	-0.305271523178808	-0.77594701986755	17.087417218543	4.90649006622517	2.03973509933775				-0.0634701986754967	-0.0165298013245033	-1.07772185430464	-58.2770860927152	-61.6964238410596	-37.8556291390729				1.09202649006623	-0.0285033112582781	-0.0900662251655629	-4.2482119205298	9.29192052980133	-4.25748344370861				-0.256211920529801	-0.334834437086093	-0.964238410596026	28.3003973509934	-18.6023841059603	91.365298013245			
78	1740	-0.328158940397351	0.0507549668874172	-0.919523178807947	-9.20662251655629	3.4953642384106	9.73509933774834				0.816953642384106	-0.0482119205298013	-0.0668609271523178	-16.9260927152318	-16.4921854304636	24.3340397350993				-0.298172185430464	-0.273271523178808	-0.82394701986755	0.567417218543046	5.74649006622517	11.8397350993378				-0.127470198675497	-0.0645298013245033	-1.02972185430464	-56.0370860927152	-73.7364238410596	-48.7756291390729				1.06002649006623	-0.0445033112582781	-0.138066225165563	-0.328211920529802	3.97192052980133	3.30251655629139				-0.272211920529801	-0.286834437086093	-0.916238410596027	10.9403973509934	-6.28238410596027	94.725298013245			
79	1760	-0.344158940397351	0.0667549668874172	-1.01552317880795	-25.4466225165563	1.5353642384106	7.77509933774834				0.976953642384106	-0.0482119205298013	-0.0988609271523179	-15.2460927152318	56.8678145695364	33.2940397350993				-0.330172185430464	-0.129271523178808	-0.85594701986755	-15.672582781457	3.50649006622517	22.4797350993378				-0.159470198675497	-0.112529801324503	-1.01372185430464	-48.1970860927152	-77.6564238410596	-54.0956291390729				0.996026490066225	-0.0445033112582781	-0.138066225165563	3.0317880794702	7.05192052980133	3.86251655629139				-0.336211920529801	-0.190834437086093	-0.964238410596026	9.82039735099338	11.0776158940397	95.285298013245			
80	1780	-0.328158940397351	0.0827549668874172	-0.983523178807947	-27.6866225165563	6.8553642384106	10.5750993377483				0.864953642384106	-0.0482119205298013	0.221139072847682	-37.3660927152318	73.1078145695364	30.7740397350993				-0.378172185430464	0.0307284768211921	-0.93594701986755	-4.19258278145695	11.0664900662252	22.7597350993378				-0.239470198675497	-0.176529801324503	-0.949721854304636	-55.7570860927152	-78.2164238410596	-55.2156291390729				0.884026490066225	-0.0605033112582781	-0.0900662251655629	6.1117880794702	7.33192052980133	2.18251655629139				-0.288211920529801	-0.206834437086093	-0.932238410596026	25.5003973509934	9.39761589403974	98.645298013245			
81	1800	-0.248158940397351	0.114754966887417	-0.983523178807947	-38.3266225165563	9.0953642384106	11.6950993377483				0.800953642384106	-0.000211920529801304	0.0771390728476822	-39.6060927152318	54.3478145695364	22.6540397350993				-0.378172185430464	0.0147284768211921	-0.93594701986755	5.32741721854305	13.3064900662252	19.3997350993378				-0.319470198675497	-0.128529801324503	-0.821721854304636	-79.2770860927152	-72.8964238410596	-55.2156291390729				0.900026490066225	-0.156503311258278	-0.0740662251655629	0.231788079470198	10.4119205298013	1.34251655629139				-0.272211920529801	-0.270834437086093	-0.820238410596026	40.3403973509934	6.31761589403974	100.885298013245			
82	1820	-0.264158940397351	0.178754966887417	-0.967523178807947	-41.9666225165563	9.6553642384106	13.3750993377483				0.880953642384106	-0.0802119205298013	0.0451390728476822	-21.9660927152318	78.9878145695364	29.0940397350993				-0.346172185430464	0.0147284768211921	-1.01594701986755	7.56741721854305	19.1864900662252	18.5597350993378				-0.383470198675497	0.0474701986754967	-0.741721854304636	-75.6370860927152	-58.3364238410596	-54.3756291390729				0.836026490066225	-0.0445033112582781	-0.0420662251655629	0.511788079470198	19.3719205298013	-2.57748344370861				-0.176211920529801	-0.238834437086093	-0.836238410596026	37.8203973509934	15.2776158940397	96.685298013245			
83	1840	-0.296158940397351	0.274754966887417	-0.983523178807947	-50.0866225165563	14.6953642384106	17.8550993377483				0.896953642384106	0.0477880794701987	0.445139072847682	-11.0460927152318	125.187814569536	32.1740397350993				-0.282172185430464	0.0947284768211921	-1.09594701986755	8.68741721854305	16.1064900662252	15.4797350993378				-0.287470198675497	0.127470198675497	-0.709721854304636	-28.0370860927152	-25.0164238410596	-47.9356291390729				0.820026490066225	0.00349668874172187	0.117933774834437	14.5117880794702	36.4519205298013	-7.61748344370861				-0.272211920529801	-0.254834437086093	-0.836238410596026	49.8603973509934	18.6376158940397	102.285298013245			
84	1860	-0.264158940397351	0.290754966887417	-0.967523178807947	-36.9266225165563	20.8553642384106	23.4550993377483				0.992953642384106	-0.0962119205298013	0.493139072847682	-7.68609271523179	105.587814569536	29.9340397350993				-0.282172185430464	0.110728476821192	-0.93594701986755	3.08741721854305	13.0264900662252	9.03973509933775				-0.143470198675497	0.127470198675497	-0.789721854304636	22.9229139072848	4.9435761589404	-30.5756291390729				0.932026490066225	0.115496688741722	0.245933774834437	13.9517880794702	40.3719205298013	-9.29748344370861				-0.288211920529801	-0.270834437086093	-0.820238410596026	42.0203973509934	27.5976158940397	99.205298013245			
85	1880	-0.328158940397351	0.290754966887417	-0.999523178807947	-31.3266225165563	30.9353642384106	24.5750993377483				1.10495364238411	-0.0322119205298013	0.221139072847682	-0.686092715231788	79.2678145695364	17.6140397350993				-0.394172185430464	0.174728476821192	-1.14394701986755	14.287417218543	18.0664900662252	0.35973509933775				-0.0154701986754967	0.0634701986754967	-0.997721854304636	51.2029139072848	26.2235761589404	-23.2956291390729				1.01202649006623	0.0674966887417219	0.181933774834437	12.5517880794702	35.0519205298013	1.06251655629139				-0.160211920529801	-0.382834437086093	-0.756238410596026	45.9403973509934	39.9176158940397	89.685298013245			
86	1900	-0.360158940397351	0.258754966887417	-0.967523178807947	-23.2066225165563	42.4153642384106	20.9350993377483				1.05695364238411	-0.144211920529801	0.381139072847682	-9.08609271523179	81.2278145695364	18.7340397350993				-0.346172185430464	0.0787284768211921	-0.96794701986755	29.1274172185431	28.4264900662252	-7.76026490066225				0.0965298013245033	0.0314701986754967	-1.17372185430464	57.9229139072848	31.5435761589404	-21.0556291390728				1.04402649006623	0.0354966887417219	0.293933774834437	28.5117880794702	49.6119205298013	1.06251655629139				-0.000211920529801336	-0.462834437086093	-0.852238410596026	36.1403973509934	37.6776158940397	73.725298013245			
87	1920	-0.280158940397351	0.290754966887417	-1.03152317880795	-20.6866225165563	46.6153642384106	26.5350993377483				0.816953642384106	-0.0162119205298013	0.861139072847682	-11.3260927152318	120.147814569536	18.1740397350993				-0.394172185430464	-0.00127152317880793	-1.01594701986755	29.6874172185431	32.9064900662252	-14.2002649006623				0.128529801324503	0.0634701986754967	-1.30172185430464	26.2829139072848	30.1435761589404	-24.4156291390728				0.996026490066225	0.0354966887417219	0.565933774834437	33.8317880794702	56.6119205298013	-8.17748344370861				0.127788079470199	-0.574834437086093	-0.788238410596027	35.5803973509934	32.6376158940397	51.885298013245			
88	1940	-0.232158940397351	0.338754966887417	-1.06352317880795	-22.9266225165563	56.9753642384106	32.4150993377484				1.05695364238411	-0.0482119205298013	1.00513907284768	-6.84609271523179	115.947814569536	18.1740397350993				-0.314172185430464	-0.0332715231788079	-0.96794701986755	24.647417218543	39.3464900662252	-13.3602649006623				0.128529801324503	0.0794701986754967	-1.34972185430464	-1.15708609271523	18.9435761589404	-19.3756291390728				0	0	0	0	0	0				0.0317880794701987	-0.782834437086093	-0.708238410596026	36.7003973509934	53.3576158940397	36.205298013245			
89	1960	-0.200158940397351	0.386754966887417	-1.01552317880795	-24.0466225165563	56.6953642384106	38.5750993377483				0	0	0	0	0	0				0	0	0	0	0	0				0	0	0	0	0	0				0	0	0	0	0	0				0	0	0	0	0	0			
90	2060	0	0	0	0	0	0				0	0	0	0	0	0				0	0	0	0	0	0				0	0	0	0	0	0				1.30002649006623	0.147496688741722	0.837933774834437	-12.9282119205298	44.0119205298013	-22.7374834437086				0	0	0	0	0	0			
91	2080	0	0	0	0	0	0				1.16895364238411	0.0317880794701987	0.909139072847682	18.0739072847682	8.70781456953642	-5.90596026490066				-0.0581721854304636	-0.113271523178808	-1.12794701986755	14.567417218543	98.4264900662252	-18.1202649006623				0.240529801324503	0.367470198675497	-1.26972185430464	-36.9970860927152	62.9035761589404	31.3043708609272				1.26802649006623	0.291496688741722	0.661933774834437	-26.9282119205298	20.4919205298013	-24.6974834437086				0.271788079470199	-0.798834437086093	-0.900238410596026	33.6203973509934	87.2376158940397	-38.834701986755			
92	2100	0.119841059602649	0.354754966887417	-1.01552317880795	17.6733774834437	118.855364238411	34.3750993377484				1.07295364238411	-0.0322119205298013	0.797139072847682	15.2739072847682	-6.41218543046358	-5.90596026490066				-0.0581721854304636	-0.193271523178808	-1.06394701986755	14.287417218543	108.786490066225	-19.2402649006623				0.272529801324503	0.367470198675497	-1.28572185430464	-44.2770860927152	74.1035761589404	39.7043708609272				1.23602649006623	0.387496688741722	0.677933774834437	-18.8082119205298	29.4519205298013	-22.4574834437086				0.415788079470199	-0.910834437086093	-0.884238410596026	42.8603973509934	100.95761589404	-42.194701986755			
93	2120	0.183841059602649	0.338754966887417	-1.01552317880795	17.3933774834437	127.255364238411	31.0150993377483				1.16895364238411	-0.128211920529801	1.18113907284768	39.3539072847682	27.4678145695364	3.33403973509934				0.00582781456953642	-0.209271523178808	-1.07994701986755	5.04741721854305	118.586490066225	-19.5202649006623				0.320529801324503	0.479470198675497	-1.25372185430464	-38.9570860927152	82.5035761589404	53.1443708609272				1.23602649006623	0.355496688741722	0.693933774834437	-4.8082119205298	42.6119205298013	-18.2574834437086				0.527788079470199	-0.958834437086093	-0.868238410596026	24.1003973509934	114.95761589404	-45.274701986755			
94	2140	0.247841059602649	0.354754966887417	-0.983523178807947	14.3133774834437	138.175364238411	27.6550993377483				1.24895364238411	-0.160211920529801	0.957139072847682	66.2339072847682	-9.49218543046358	1.37403973509934				0.149827814569536	-0.177271523178808	-1.06394701986755	3.92741721854305	125.306490066225	-22.0402649006623				0.384529801324503	0.495470198675497	-1.25372185430464	-12.9170860927152	88.1035761589404	58.1843708609272				1.31602649006623	0.259496688741722	0.661933774834437	11.7117880794702	40.3719205298013	-13.4974834437086				0.543788079470199	-0.894834437086093	-0.868238410596026	3.94039735099338	129.79761589404	-58.434701986755			
95	2160	0.279841059602649	0.322754966887417	-0.983523178807947	11.2333774834437	146.855364238411	26.2550993377483				1.29695364238411	-0.0802119205298013	0.717139072847682	20.8739072847682	-31.6121854304636	-1.42596026490066				0.181827814569536	-0.161271523178808	-1.01594701986755	3.64741721854305	129.506490066225	-24.8402649006623				0.496529801324503	0.447470198675497	-1.25372185430464	7.80291390728477	88.1035761589404	59.8643708609272				1.22002649006623	0.211496688741722	0.789933774834437	13.9517880794702	25.8119205298013	-9.01748344370861				0.607788079470199	-0.830834437086093	-0.852238410596026	-6.13960264900662	141.83761589404	-77.194701986755			
96	2180	0.327841059602649	0.290754966887417	-0.903523178807947	10.9533774834437	149.655364238411	25.6950993377483				0.944953642384106	0.111788079470199	1.02113907284768	24.7939072847682	-68.5721854304636	-28.0259602649007				0.133827814569536	-0.113271523178808	-0.98394701986755	-10.352582781457	137.066490066225	-24.5602649006623				0.592529801324503	0.351470198675497	-1.15772185430464	11.4429139072848	83.0635761589404	54.5443708609272				1.09202649006623	0.211496688741722	0.773933774834437	2.7517880794702	10.1319205298013	-8.17748344370861				0.719788079470199	-0.782834437086093	-0.884238410596026	2.82039735099338	133.71761589404	-90.354701986755			
97	2200	0.311841059602649	0.290754966887417	-0.807523178807947	24.1133774834437	150.775364238411	26.8150993377483				0.848953642384106	-0.128211920529801	0.733139072847682	65.1139072847682	-102.732185430464	-18.7859602649007				0.181827814569536	-0.0972715231788079	-0.90394701986755	-11.192582781457	146.306490066225	-21.2002649006623				0.640529801324503	0.255470198675497	-1.06172185430464	-6.19708609271523	80.2635761589404	52.5843708609272				0.980026490066225	0.291496688741722	0.661933774834437	-6.2082119205298	-1.06807947019868	-7.61748344370861				0.831788079470199	-0.814834437086093	-0.900238410596026	0.300397350993377	114.67761589404	-90.074701986755			
98	2220	0.375841059602649	0.194754966887417	-0.759523178807947	33.9133774834437	154.135364238411	27.9350993377483				1.20095364238411	-0.128211920529801	0.365139072847682	60.0739072847682	-75.0121854304636	-11.5059602649007				0.245827814569536	-0.0652715231788079	-0.82394701986755	-21.832582781457	147.986490066225	-20.0802649006623				0.624529801324503	0.255470198675497	-1.04572185430464	-23.8370860927152	63.4635761589404	62.3843708609272				1.01202649006623	0.275496688741722	0.581933774834437	-4.8082119205298	-4.42807947019868	1.62251655629139				0.815788079470199	-0.846834437086093	-0.884238410596026	-0.539602649006623	86.6776158940397	-79.714701986755			
99	2240	0.471841059602649	0.0987549668874172	-0.679523178807947	29.4333774834437	160.575364238411	27.9350993377483				1.29695364238411	-0.0482119205298013	0.477139072847682	25.3539072847682	-39.7321854304636	3.61403973509934				0.357827814569536	0.0147284768211921	-0.82394701986755	-12.592582781457	151.066490066225	-19.2402649006623				0.624529801324503	0.463470198675497	-0.997721854304636	-1.99708609271523	41.0635761589404	62.6643708609272				1.06002649006623	0.131496688741722	0.613933774834437	3.8717880794702	7.61192052980133	4.70251655629139				0.703788079470199	-0.878834437086093	-0.772238410596026	-16.7796026490066	54.4776158940397	-64.034701986755			
100	2260	0.487841059602649	0.114754966887417	-0.663523178807947	21.0333774834437	161.415364238411	25.9750993377483				1.00895364238411	-0.0962119205298013	0.893139072847682	28.1539072847682	-71.3721854304636	-3.10596026490066				0.341827814569536	-0.0492715231788079	-0.79194701986755	5.60741721854305	153.866490066225	-20.9202649006623				0.592529801324503	0.383470198675497	-0.885721854304636	13.6829139072848	32.9435761589404	48.6643708609272				0.932026490066225	0.147496688741722	0.725933774834437	1.3517880794702	-7.50807947019868	5.26251655629139				0.671788079470199	-0.846834437086093	-0.724238410596026	-56.8196026490066	43.2776158940397	-47.794701986755			
101	2280	0.439841059602649	0.194754966887417	-0.647523178807947	16.5533774834437	158.615364238411	24.0150993377483				0.624953642384106	-0.144211920529801	0.621139072847682	-1.24609271523179	-96.8521854304636	-11.5059602649007				0.325827814569536	-0.209271523178808	-0.67994701986755	-4.75258278145695	154.146490066225	-20.9202649006623				0.560529801324503	0.255470198675497	-0.805721854304636	10.0429139072848	31.2635761589404	46.9843708609272				0.756026490066225	0.163496688741722	0.677933774834437	-12.3682119205298	-32.1480794701987	7.78251655629139				0.687788079470199	-0.686834437086093	-0.660238410596027	-75.5796026490066	33.4776158940397	-27.914701986755			
102	2300	0.455841059602649	0.162754966887417	-0.519523178807947	36.9933774834437	169.815364238411	22.0550993377483				0.560953642384106	0.0157880794701987	0.205139072847682	-7.12609271523179	-83.9721854304636	-23.8259602649007				0.309827814569536	-0.145271523178808	-0.56794701986755	-41.432582781457	153.586490066225	-18.9602649006623				0.544529801324503	0.175470198675497	-0.581721854304636	3.60291390728477	24.8235761589404	49.5043708609272				0.660026490066225	0.195496688741722	0.469933774834437	-5.0882119205298	-51.4680794701987	13.6625165562914				0.559788079470199	-0.478834437086093	-0.580238410596026	-69.4196026490066	21.4376158940397	-19.234701986755			
103	2320	0.567841059602649	0.0827549668874172	-0.519523178807947	42.8733774834437	188.575364238411	16.1750993377483				0.864953642384106	0.111788079470199	0.125139072847682	-11.6060927152318	-65.7721854304636	-13.4659602649007				0.485827814569536	0.0947284768211921	-0.53594701986755	-49.272582781457	155.266490066225	-17.8402649006623				0.496529801324503	0.207470198675497	-0.485721854304636	-12.3570860927152	12.5035761589404	45.0243708609272				0.660026490066225	0.163496688741722	0.357933774834437	-7.6082119205298	-47.5480794701987	18.7025165562914				0.495788079470199	-0.382834437086093	-0.468238410596026	-43.9396026490066	12.4776158940397	-25.394701986755			
104	2340	0.695841059602649	0.0187549668874172	-0.439523178807947	40.9133774834437	185.215364238411	13.3750993377483				1.00895364238411	0.0477880794701987	0.269139072847682	-5.44609271523179	-82.0121854304636	-12.3459602649007				0.645827814569536	0.254728476821192	-0.51994701986755	-27.152582781457	151.906490066225	-16.7202649006623				0.416529801324503	0.191470198675497	-0.597721854304636	11.7229139072848	-2.6164238410596	46.7043708609272				0.660026490066225	0.0994966887417219	0.405933774834437	-13.2082119205298	-44.4680794701987	21.2225165562914				0.479788079470199	-0.414834437086093	-0.372238410596026	-24.0596026490066	5.75761589403974	-38.834701986755			
105	2360	0.743841059602649	-0.0132450331125828	-0.343523178807947	27.1933774834437	187.455364238411	11.4150993377483				0.688953642384106	0.0317880794701987	0.333139072847682	6.03390728476821	-128.212185430464	-17.1059602649007				0.645827814569536	0.270728476821192	-0.48794701986755	27.727417218543	151.906490066225	-26.2402649006623				0.352529801324503	0.159470198675497	-0.597721854304636	36.6429139072848	-10.7364238410596	44.4643708609272				0.564026490066225	0.0354966887417219	0.389933774834437	-6.7682119205298	-57.6280794701987	22.9025165562914				0.447788079470199	-0.414834437086093	-0.388238410596026	-22.0996026490066	-7.68238410596027	-38.274701986755			
106	2380	0.743841059602649	0.0507549668874172	-0.327523178807947	17.3933774834437	180.175364238411	8.33509933774834				0.304953642384106	-0.0482119205298013	0.381139072847682	13.3139072847682	-105.532185430464	-17.3859602649007				0.517827814569536	0.142728476821192	-0.42394701986755	48.7274172185431	140.706490066225	-32.6802649006623				0.336529801324503	0.159470198675497	-0.485721854304636	43.3629139072848	-17.4564238410596	32.9843708609272				0.468026490066225	0.0514966887417219	0.245933774834437	-5.6482119205298	-72.7480794701987	19.5425165562914				0.319788079470199	-0.350834437086093	-0.420238410596026	-23.4996026490066	-20.5623841059603	-28.474701986755			
107	2400	0.695841059602649	0.0667549668874172	-0.327523178807947	23.2733774834437	178.215364238411	11.1350993377483				0.448953642384106	-0.0642119205298013	0.269139072847682	9.11390728476821	-62.9721854304636	-9.26596026490066				0.533827814569536	-0.0332715231788079	-0.43994701986755	48.4474172185431	142.386490066225	-39.1202649006623				0.304529801324503	0.0794701986754967	-0.421721854304636	36.0829139072848	-37.6164238410596	20.3843708609272				0.404026490066225	0.0674966887417219	0.229933774834437	-2.8482119205298	-76.3880794701987	19.5425165562914				0.239788079470199	-0.270834437086093	-0.356238410596026	-25.1796026490066	-34.5623841059603	-16.434701986755			
108	2420	0.695841059602649	0.0987549668874172	-0.247523178807947	27.7533774834437	177.095364238411	10.2950993377483				0.464953642384106	0.0317880794701987	0.221139072847682	4.35390728476821	-64.0921854304636	-10.3859602649007				0.485827814569536	-0.113271523178808	-0.31194701986755	20.447417218543	143.506490066225	-36.0402649006623				0.192529801324503	0.0154701986754967	-0.405721854304636	26.8429139072848	-43.2164238410596	17.8643708609272				0.404026490066225	0.0994966887417219	0.213933774834437	-5.0882119205298	-80.5880794701987	19.8225165562914				0.223788079470199	-0.238834437086093	-0.308238410596026	-35.8196026490066	-44.6423841059603	-4.39470198675497			
109	2440	0.743841059602649	0.146754966887417	-0.247523178807947	21.3133774834437	174.015364238411	13.9350993377483				0.496953642384106	0.191788079470199	0.0931390728476822	5.47390728476821	-75.0121854304636	-15.1459602649007				0.517827814569536	-0.0172715231788079	-0.27994701986755	4.48741721854305	139.306490066225	-27.6402649006623				0.0965298013245033	0.0634701986754967	-0.389721854304636	29.9229139072848	-44.3364238410596	13.1043708609272				0.372026490066225	0.131496688741722	0.117933774834437	-8.7282119205298	-80.8680794701987	18.1425165562914				0.207788079470199	-0.222834437086093	-0.292238410596026	-42.8196026490066	-46.3223841059603	8.76529801324503			
110	2460	0.855841059602649	0.338754966887417	-0.247523178807947	24.9533774834437	169.815364238411	8.05509933774835				0.496953642384106	0.127788079470199	0.0931390728476822	15.2739072847682	-82.2921854304636	-15.4259602649007				0.677827814569536	0.0627284768211921	-0.35994701986755	11.207417218543	135.666490066225	-21.2002649006623				0.0485298013245033	0.127470198675497	-0.357721854304636	30.2029139072848	-43.7764238410596	-3.13562913907285				0.420026490066225	0.0994966887417219	0.101933774834437	-2.0082119205298	-74.4280794701987	16.1825165562914				0.159788079470199	-0.222834437086093	-0.276238410596026	-52.8996026490066	-47.4423841059603	18.005298013245			
111	2480	0.759841059602649	0.290754966887417	-0.359523178807947	57.4333774834437	152.175364238411	8.61509933774835				0.304953642384106	0.0157880794701987	0.0451390728476822	25.9139072847682	-44.4921854304636	5.29403973509934				0.773827814569536	-0.00127152317880793	-0.34394701986755	15.127417218543	114.666490066225	-22.6002649006623				0.0965298013245033	0.143470198675497	-0.389721854304636	33.2829139072848	-41.5364238410596	-9.29562913907285				0.436026490066225	0.0514966887417219	0.133933774834437	-0.888211920529802	-71.0680794701987	13.9425165562914				0.143788079470199	-0.174834437086093	-0.276238410596026	-59.3396026490066	-49.4023841059603	21.365298013245			
112	2500	0.695841059602649	0.210754966887417	-0.279523178807947	64.7133774834437	135.655364238411	2.45509933774835				0.416953642384106	-0.000211920529801304	0.221139072847682	9.11390728476821	-60.4521854304636	-6.18596026490066				0.837827814569536	-0.0812715231788079	-0.31194701986755	35.287417218543	98.9864900662252	-29.0402649006623				0.112529801324503	0.0794701986754967	-0.373721854304636	51.4829139072848	-42.9364238410596	-1.45562913907285				0.404026490066225	0.0674966887417219	0.149933774834437	-1.7282119205298	-79.4680794701987	11.7025165562914				0.191788079470199	-0.0628344370860927	-0.292238410596026	-61.5796026490066	-47.1623841059603	19.405298013245			
113	2520	0.855841059602649	0.00275496688741723	0.024476821192053	64.9933774834437	162.815364238411	18.9750993377483				0.512953642384106	0.111788079470199	0.349139072847682	5.75390728476821	-51.4921854304636	-8.70596026490066				0.821827814569536	-0.177271523178808	-0.32794701986755	34.4474172185431	80.5064900662252	-26.8002649006623				0.0645298013245033	-0.0485298013245033	-0.533721854304636	66.3229139072848	-41.8164238410596	1.06437086092715				0.484026490066225	0.0674966887417219	0.149933774834437	-2.0082119205298	-77.2280794701987	11.7025165562914				0.207788079470199	-0.0308344370860927	-0.340238410596026	-59.6196026490066	-37.6423841059603	14.645298013245			
114	2540	0.935841059602649	-0.125245033112583	-0.055523178807947	57.4333774834437	144.335364238411	25.4150993377483				0.672953642384106	0.143788079470199	0.381139072847682	12.4739072847682	-39.4521854304636	-7.86596026490066				0.757827814569536	-0.145271523178808	-0.15194701986755	5.88741721854305	80.7864900662252	-16.4402649006623				0.0325298013245033	-0.0485298013245033	-0.629721854304636	59.3229139072848	-40.4164238410596	2.18437086092715				0.596026490066225	0.0674966887417219	0.117933774834437	-8.7282119205298	-68.8280794701987	6.94251655629139				0.255788079470199	-0.0948344370860927	-0.436238410596026	-53.4596026490066	-29.8023841059603	2.88529801324503			
115	2560	0.903841059602649	0.00275496688741723	-0.039523178807947	25.5133774834437	107.375364238411	20.0950993377483				0.768953642384106	0.111788079470199	0.333139072847682	21.4339072847682	-41.1321854304636	-9.26596026490066				0.853827814569536	-0.0492715231788079	-0.10394701986755	-27.712582781457	85.8264900662252	-11.1202649006623				0.0165298013245033	-0.0485298013245033	-0.677721854304636	44.4829139072848	-33.6964238410596	1.34437086092715				0.644026490066225	0.0994966887417219	0.0859337748344371	-17.1282119205298	-55.6680794701987	1.06251655629139				0.255788079470199	-0.0628344370860927	-0.500238410596026	-47.8596026490066	-21.6823841059603	-11.394701986755			
116	2580	0.887841059602649	0.0827549668874172	-0.039523178807947	24.3933774834437	81.8953642384106	6.93509933774835				0.752953642384106	0.0477880794701987	0.285139072847682	31.2339072847682	-53.1721854304636	-7.58596026490066				1.04582781456954	0.0307284768211921	-0.19994701986755	-11.472582781457	76.3064900662252	-6.08026490066225				0.0645298013245033	-0.000529801324503289	-0.757721854304636	41.9629139072848	-19.6964238410596	6.38437086092715				0.660026490066225	0.131496688741722	0.133933774834437	-9.0082119205298	-39.7080794701987	-1.73748344370861				0.271788079470199	-0.0308344370860927	-0.532238410596027	-42.8196026490066	-6.28238410596027	-24.834701986755			
117	2600	0.951841059602649	0.0987549668874172	0.104476821192053	17.3933774834437	85.8153642384106	0.495099337748344				0.704953642384106	0.111788079470199	0.141139072847682	11.0739072847682	-55.1321854304636	-5.06596026490066				1.01382781456954	0.0147284768211921	-0.15194701986755	17.927417218543	55.8664900662252	-6.08026490066225				0.176529801324503	-0.0645298013245033	-0.901721854304636	47.0029139072848	-14.0964238410596	9.18437086092715				0.740026490066225	0.131496688741722	0.133933774834437	-10.9682119205298	-31.3080794701987	-2.85748344370861				0.383788079470199	-0.0788344370860927	-0.612238410596026	-29.9396026490066	7.71761589403974	-34.634701986755			
118	2620	1.07984105960265	0.0347549668874172	0.104476821192053	-5.00662251655629	73.4953642384106	-6.22490066225166				0.800953642384106	0.111788079470199	0.173139072847682	-4.88609271523179	-29.6521854304636	-2.82596026490066				0.933827814569536	-0.0172715231788079	-0.0559470198675496	3.64741721854305	49.9864900662252	-7.76026490066225				0.272529801324503	-0.0645298013245033	-1.06172185430464	44.7629139072848	-14.0964238410596	5.26437086092715				0.852026490066225	0.0994966887417219	0.101933774834437	-7.3282119205298	-27.6680794701987	-4.81748344370861				0.495788079470199	-0.190834437086093	-0.708238410596026	-8.09960264900662	11.3576158940397	-40.514701986755			
119	2640	1.14384105960265	0.0827549668874172	0.024476821192053	-20.1266225165563	65.6553642384106	-10.4249006622517				0.912953642384106	0.0797880794701987	0.221139072847682	-0.126092715231788	-22.9321854304636	-0.86596026490066				0.901827814569536	-0.113271523178808	-0.0879470198675496	9.52741721854305	37.1064900662252	1.75973509933775				0.288529801324503	-0.0325298013245033	-1.04572185430464	24.3229139072848	-22.4964238410596	-9.57562913907285				0.948026490066225	0.131496688741722	0.133933774834437	-0.608211920529802	-27.6680794701987	-6.77748344370861				0.575788079470199	-0.302834437086093	-0.820238410596026	10.9403973509934	6.03761589403974	-36.594701986755			
120	2660	1.07984105960265	0.130754966887417	0.024476821192053	-6.96662251655629	34.0153642384106	-6.78490066225166				0.816953642384106	0.143788079470199	0.237139072847682	-4.60609271523179	-24.6121854304636	-2.26596026490066				0.981827814569536	-0.0652715231788079	-0.0399470198675496	0.847417218543046	32.6264900662252	9.31973509933775				0.288529801324503	-0.0485298013245033	-0.917721854304636	1.08291390728477	-26.6964238410596	-18.5356291390728				0.948026490066225	0.163496688741722	0.117933774834437	-2.5682119205298	-30.1880794701987	-5.37748344370861				0.575788079470199	-0.430834437086093	-0.868238410596026	8.98039735099338	-5.44238410596027	-18.674701986755			
121	2680	1.03184105960265	0.146754966887417	0.072476821192053	1.43337748344371	24.2153642384106	-2.58490066225166				0.848953642384106	0.127788079470199	0.205139072847682	-7.96609271523179	10.3878145695364	3.61403973509934				0.997827814569536	0.0147284768211921	-0.00794701986754963	-9.79258278145695	31.5064900662252	8.19973509933775				0.224529801324503	-0.0645298013245033	-0.885721854304636	-1.71708609271523	-25.2964238410596	-15.7356291390728				0.900026490066225	0.147496688741722	0.101933774834437	-9.5682119205298	-24.5880794701987	-4.53748344370861				0.559788079470199	-0.478834437086093	-0.868238410596026	-15.3796026490066	-21.9623841059603	5.12529801324503			
122	2700	1.04784105960265	0.0987549668874172	0.120476821192053	-1.92662251655629	13.0153642384106	0.495099337748344				1.04095364238411	0.0957880794701987	0.317139072847682	2.95390728476821	4.22781456953642	1.37403973509934				1.10982781456954	0.0467284768211921	-0.0559470198675496	-3.35258278145695	24.7864900662252	2.87973509933775				0.160529801324503	-0.0165298013245033	-0.821721854304636	-1.71708609271523	-19.6964238410596	-4.53562913907285				0.884026490066225	0.0994966887417219	0.181933774834437	-14.6082119205298	-14.7880794701987	-1.17748344370861				0.575788079470199	-0.382834437086093	-0.852238410596026	-43.0996026490066	-34.2823841059603	28.645298013245			
123	2720	0.919841059602649	0.0667549668874172	0.120476821192053	1.43337748344371	23.0953642384106	4.69509933774834				1.02495364238411	0.0157880794701987	0.285139072847682	14.7139072847682	-6.97218543046358	1.09403973509934				1.06182781456954	0.0627284768211921	-0.0879470198675496	16.247417218543	15.5464900662252	-0.48026490066225				0.0805298013245033	-0.000529801324503289	-0.837721854304636	2.48291390728477	-14.6564238410596	1.34437086092715				0.932026490066225	0.0674966887417219	0.181933774834437	-14.8882119205298	-5.54807947019868	1.06251655629139				0.511788079470199	-0.238834437086093	-0.788238410596027	-58.4996026490066	-37.0823841059603	36.765298013245			
124	2740	0.951841059602649	0.0347549668874172	0.216476821192053	13.1933774834437	8.5353642384106	4.13509933774834				0.944953642384106	-0.0322119205298013	0.221139072847682	10.2339072847682	-1.93218543046358	1.93403973509934				0.997827814569536	0.0147284768211921	-0.10394701986755	14.567417218543	14.4264900662252	0.63973509933775				0.0645298013245033	-0.0485298013245033	-0.837721854304636	9.76291390728477	2.7035761589404	8.06437086092715				0.916026490066225	0.0514966887417219	0.197933774834437	-17.4082119205298	-0.788079470198675	2.46251655629139				0.479788079470199	-0.142834437086093	-0.740238410596026	-44.2196026490066	-26.7223841059603	31.725298013245			
125	2760	0.919841059602649	-0.0132450331125828	0.296476821192053	11.2333774834437	11.3353642384106	1.61509933774834				0.928953642384106	0.0317880794701987	0.301139072847682	-5.72609271523179	5.06781456953642	2.49403973509934				0.933827814569536	-0.129271523178808	-0.0879470198675496	-1.11258278145695	17.5064900662252	5.11973509933775				0.128529801324503	-0.0645298013245033	-0.853721854304636	22.0829139072848	23.1435761589404	15.0643708609272				0.884026490066225	0.0514966887417219	0.133933774834437	-18.8082119205298	3.41192052980132	3.30251655629139				0.479788079470199	-0.174834437086093	-0.692238410596026	-13.6996026490066	-12.4423841059603	18.005298013245			
126	2780	0.951841059602649	-0.0292450331125828	0.296476821192053	5.63337748344371	19.7353642384106	1.61509933774834				0.944953642384106	0.0477880794701987	0.333139072847682	-17.7660927152318	0.587814569536424	0.53403973509934				0.949827814569536	-0.129271523178808	-0.0879470198675496	-6.15258278145695	12.7464900662252	5.95973509933775				0.256529801324503	-0.0805298013245033	-0.901721854304636	33.2829139072848	30.1435761589404	20.6643708609272				0.900026490066225	0.0834966887417219	0.133933774834437	-19.0882119205298	11.8119205298013	2.18251655629139				0.479788079470199	-0.206834437086093	-0.692238410596026	4.78039735099338	-1.24238410596026	5.12529801324503			
127	2800	0.967841059602649	0.0347549668874172	0.296476821192053	-3.04662251655629	28.1353642384106	1.89509933774834				0.896953642384106	0.0317880794701987	0.173139072847682	-17.2060927152318	2.82781456953642	-0.30596026490066				0.965827814569536	-0.0652715231788079	0.00805298013245037	-15.952582781457	15.2664900662252	2.31973509933775				0.336529801324503	-0.0805298013245033	-0.933721854304636	29.0829139072848	26.7835761589404	22.6243708609272				0.916026490066225	0.0994966887417219	0.197933774834437	-20.7682119205298	12.6519205298013	0.782516556291392				0.463788079470199	-0.254834437086093	-0.708238410596026	17.1003973509934	8.55761589403974	-1.87470198675497			
128	2820	0.919841059602649	0.0507549668874172	0.264476821192053	-3.88662251655629	20.8553642384106	-3.70490066225166				0.960953642384106	0.0157880794701987	0.125139072847682	-23.3660927152318	10.3878145695364	2.49403973509934				0.997827814569536	-0.0492715231788079	0.0240529801324504	-20.152582781457	16.1064900662252	-1.04026490066225				0.352529801324503	-0.128529801324503	-0.949721854304636	18.7229139072848	18.3835761589404	20.3843708609272				0.916026490066225	0.0994966887417219	0.149933774834437	-17.9682119205298	9.01192052980133	1.90251655629139				0.463788079470199	-0.302834437086093	-0.740238410596026	17.6603973509934	13.3176158940397	-0.474701986754968			
129	2840	0.935841059602649	0.0507549668874172	0.280476821192053	-2.48662251655629	11.6153642384106	-4.26490066225166				1.00895364238411	0.0797880794701987	0.173139072847682	-21.6860927152318	-2.77218543046358	5.29403973509934				0.965827814569536	-0.0972715231788079	-0.00794701986754963	-14.272582781457	9.94649006622517	0.35973509933775				0.336529801324503	-0.112529801324503	-0.949721854304636	-3.11708609271523	11.6635761589404	15.9043708609272				0.932026490066225	0.0834966887417219	0.149933774834437	-17.9682119205298	12.0919205298013	1.34251655629139				0.431788079470199	-0.350834437086093	-0.772238410596026	22.1403973509934	11.0776158940397	8.20529801324503			
130	2860	0.935841059602649	0.0507549668874172	0.296476821192053	-2.48662251655629	11.0553642384106	-2.02490066225166				0.880953642384106	0.127788079470199	0.173139072847682	-11.3260927152318	5.90781456953642	5.29403973509934				0.949827814569536	-0.0492715231788079	0.00805298013245037	-3.63258278145695	1.82649006622517	0.91973509933775				0.352529801324503	-0.0805298013245033	-0.901721854304636	-12.9170860927152	8.3035761589404	13.3843708609272				0.932026490066225	0.0834966887417219	0.165933774834437	-17.9682119205298	13.4919205298013	1.06251655629139				0.447788079470199	-0.350834437086093	-0.756238410596026	6.18039735099338	7.71761589403974	16.045298013245			
131	2880	0.935841059602649	0.0827549668874172	0.296476821192053	0.873377483443709	9.9353642384106	-0.624900662251656				0.912953642384106	0.0957880794701987	0.173139072847682	-3.48609271523179	-2.77218543046358	5.01403973509934				0.949827814569536	-0.0172715231788079	0.0240529801324504	0.287417218543046	6.02649006622517	4.27973509933775				0.368529801324503	-0.0645298013245033	-0.885721854304636	-15.4370860927152	5.5035761589404	11.7043708609272				0.900026490066225	0.0994966887417219	0.181933774834437	-18.8082119205298	13.7719205298013	0.222516556291392				0.447788079470199	-0.286834437086093	-0.788238410596027	-12.0196026490066	5.47761589403974	23.045298013245			
132	2900	0.903841059602649	0.0827549668874172	0.280476821192053	4.23337748344371	5.1753642384106	0.495099337748344				0.912953642384106	0.0797880794701987	0.173139072847682	-9.36609271523179	4.78781456953642	2.49403973509934				0.965827814569536	-0.0172715231788079	-0.0239470198675496	-0.272582781456954	1.82649006622517	4.55973509933775				0.352529801324503	-0.0485298013245033	-0.917721854304636	-5.35708609271523	0.7435761589404	9.18437086092715				0.932026490066225	0.0994966887417219	0.181933774834437	-15.4482119205298	11.8119205298013	-0.337483443708608				0.415788079470199	-0.222834437086093	-0.756238410596026	-7.81960264900662	1.83761589403974	22.485298013245			
133	2920	0.887841059602649	0.0187549668874172	0.280476821192053	4.79337748344371	1.5353642384106	0.215099337748344				0.960953642384106	0.0957880794701987	0.189139072847682	-12.7260927152318	3.38781456953642	2.77403973509934				1.02982781456954	-0.0172715231788079	-0.0879470198675496	2.80741721854305	0.426490066225167	4.55973509933775				0.368529801324503	-0.0645298013245033	-0.917721854304636	-6.19708609271523	-0.6564238410596	4.70437086092715				0.948026490066225	0.115496688741722	0.197933774834437	-9.8482119205298	11.5319205298013	-0.897483443708608				0.415788079470199	-0.222834437086093	-0.740238410596026	7.86039735099338	5.19761589403974	14.085298013245			
134	2940	0.935841059602649	0.00275496688741723	0.280476821192053	0.873377483443709	0.135364238410596	-0.344900662251656				0.992953642384106	0.143788079470199	0.157139072847682	-4.32609271523179	2.82781456953642	5.85403973509934				1.01382781456954	-0.0172715231788079	-0.0719470198675496	5.88741721854305	4.62649006622517	2.03973509933775				0.400529801324503	-0.0645298013245033	-0.949721854304636	-10.6770860927152	0.1835761589404	3.58437086092715				0.980026490066225	0.115496688741722	0.229933774834437	-7.0482119205298	12.9319205298013	-2.57748344370861				0.447788079470199	-0.222834437086093	-0.788238410596027	14.3003973509934	7.99761589403974	3.72529801324503			
135	2960	0.967841059602649	0.0347549668874172	0.312476821192053	-2.48662251655629	2.0953642384106	-1.46490066225166				0.992953642384106	0.127788079470199	0.157139072847682	0.713907284768212	8.14781456953643	7.81403973509934				0	0	0	0	0	0				0	0	0	0	0	0				0	0	0	0	0	0				0	0	0	0	0	0			
136	3060	0	0	0	0	0	0				0	0	0	0	0	0				0.981827814569536	0.0147284768211921	-0.15194701986755	13.167417218543	-0.973509933774833	0.63973509933775				0	0	0	0	0	0				0	0	0	0	0	0				0	0	0	0	0	0			
137	3080	0.999841059602649	0.0827549668874172	0.184476821192053	-0.526622516556291	-0.144635761589404	0.775099337748344				0.992953642384106	0.0317880794701987	0.157139072847682	4.91390728476821	-0.532185430463576	2.49403973509934				0.965827814569536	-0.0172715231788079	-0.15194701986755	9.24741721854305	-3.49350993377483	0.63973509933775				0	0	0	0	0	0				0	0	0	0	0	0				0	0	0	0	0	0			
138	3100	1.01584105960265	0.0987549668874172	0.120476821192053	-5.28662251655629	1.5353642384106	-0.0649006622516557				1.00895364238411	0.0477880794701987	0.141139072847682	-0.686092715231788	-1.93218543046358	0.81403973509934				0.949827814569536	-0.0172715231788079	-0.15194701986755	2.80741721854305	-2.65350993377483	-0.20026490066225				0.272529801324503	-0.0645298013245033	-0.901721854304636	6.12291390728477	14.7435761589404	7.22437086092715				0.980026490066225	0.0834966887417219	0.181933774834437	-8.1682119205298	5.09192052980133	-0.337483443708608				0.479788079470199	-0.350834437086093	-0.788238410596027	4.22039735099338	-13.0023841059603	2.32529801324503			
139	3120	1.01584105960265	0.0667549668874172	0.072476821192053	-6.40662251655629	4.0553642384106	-2.30490066225166				1.02495364238411	0.0317880794701987	0.141139072847682	-5.16609271523179	-2.77218543046358	0.25403973509934				0.981827814569536	-0.0172715231788079	-0.13594701986755	0.567417218543046	-0.973509933774833	0.35973509933775				0.272529801324503	-0.0325298013245033	-0.933721854304636	6.40291390728477	12.7835761589404	5.54437086092715				0.980026490066225	0.0834966887417219	0.181933774834437	-9.5682119205298	5.65192052980133	0.222516556291392				0.463788079470199	-0.366834437086093	-0.772238410596026	-2.49960264900662	-10.7623841059603	5.40529801324503			
140	3140	0.999841059602649	0.0507549668874172	0.088476821192053	-3.32662251655629	3.2153642384106	-1.18490066225166				0.992953642384106	0.0477880794701987	0.157139072847682	-7.12609271523179	-1.09218543046358	-0.0259602649006601				0.965827814569536	-0.0332715231788079	-0.15194701986755	-1.67258278145695	-1.53350993377483	0.35973509933775				0.320529801324503	-0.0645298013245033	-0.949721854304636	4.72291390728477	5.7835761589404	5.26437086092715				0.980026490066225	0.0834966887417219	0.213933774834437	-9.2882119205298	2.01192052980133	1.06251655629139				0.431788079470199	-0.334834437086093	-0.772238410596026	-7.53960264900662	-4.04238410596027	5.12529801324503			
141	3160	0.983841059602649	0.0347549668874172	0.104476821192053	-0.526622516556291	0.975364238410596	0.495099337748344				0.976953642384106	0.0637880794701987	0.141139072847682	-4.60609271523179	-3.33218543046358	-1.14596026490066				0.965827814569536	-0.0332715231788079	-0.15194701986755	-3.35258278145695	-2.09350993377483	0.0797350993377501				0.336529801324503	-0.0805298013245033	-0.949721854304636	4.44291390728477	1.5835761589404	5.54437086092715				0.948026490066225	0.0994966887417219	0.197933774834437	-9.5682119205298	-0.788079470198675	1.62251655629139				0.447788079470199	-0.270834437086093	-0.804238410596027	-2.77960264900662	0.157615894039735	1.48529801324503			
142	3180	0.951841059602649	0.0187549668874172	0.120476821192053	0.313377483443709	0.975364238410596	0.495099337748344				0.976953642384106	0.0797880794701987	0.141139072847682	-2.92609271523179	-3.89218543046358	-2.54596026490066				0.965827814569536	-0.0332715231788079	-0.13594701986755	-3.07258278145695	-1.81350993377483	0.63973509933775				0.336529801324503	-0.112529801324503	-0.949721854304636	0.242913907284768	-2.3364238410596	4.70437086092715				0.964026490066225	0.0994966887417219	0.165933774834437	-6.4882119205298	0.0519205298013249	2.46251655629139				0.431788079470199	-0.238834437086093	-0.820238410596026	3.10039735099338	-0.402384105960265	-0.754701986754968			
143	3200	0.967841059602649	0.0187549668874172	0.152476821192053	-3.04662251655629	1.5353642384106	0.495099337748344				1.00895364238411	0.0797880794701987	0.125139072847682	-2.36609271523179	-3.33218543046358	-1.98596026490066				0.997827814569536	-0.0332715231788079	-0.11994701986755	-5.03258278145695	0.986490066225167	2.03973509933775				0.320529801324503	-0.0965298013245033	-0.933721854304636	-7.03708609271523	-3.4564238410596	4.14437086092715				0.964026490066225	0.0994966887417219	0.165933774834437	-6.7682119205298	0.891920529801325	1.34251655629139				0.415788079470199	-0.270834437086093	-0.804238410596027	5.06039735099338	-3.48238410596027	-0.474701986754968			
144	3220	0.983841059602649	0.0187549668874172	0.184476821192053	-5.28662251655629	0.695364238410596	0.215099337748344				1.00895364238411	0.0797880794701987	0.0771390728476822	-4.04609271523179	-4.17218543046358	-1.98596026490066				0.981827814569536	-0.0492715231788079	-0.13594701986755	-6.99258278145695	0.146490066225167	3.43973509933775				0.304529801324503	-0.0645298013245033	-0.949721854304636	-5.07708609271523	-3.1764238410596	4.98437086092715				0.980026490066225	0.0834966887417219	0.181933774834437	-6.4882119205298	-0.788079470198675	0.502516556291392				0.399788079470199	-0.318834437086093	-0.772238410596026	3.10039735099338	-2.64238410596027	0.365298013245032			
145	3240	0.967841059602649	0.0187549668874172	0.184476821192053	-6.40662251655629	0.135364238410596	-0.904900662251656				0.992953642384106	0.0637880794701987	0.0931390728476822	-11.6060927152318	-3.61218543046358	-1.42596026490066				0.965827814569536	-0.0652715231788079	-0.13594701986755	-8.39258278145695	-0.693509933774834	3.43973509933775				0.304529801324503	-0.0805298013245033	-0.933721854304636	-4.51708609271523	-5.1364238410596	5.82437086092715				0.964026490066225	0.0834966887417219	0.181933774834437	-4.2482119205298	-4.42807947019868	0.502516556291392				0.415788079470199	-0.302834437086093	-0.772238410596026	-5.01960264900662	3.23761589403974	-0.194701986754968			
146	3260	0.951841059602649	0.0347549668874172	0.168476821192053	-6.40662251655629	0.695364238410596	-2.02490066225166				0.976953642384106	0.0637880794701987	0.109139072847682	-15.8060927152318	-3.33218543046358	1.37403973509934				0.949827814569536	-0.0492715231788079	-0.13594701986755	-12.032582781457	0.426490066225167	3.99973509933775				0.272529801324503	-0.112529801324503	-0.933721854304636	-4.23708609271523	-7.0964238410596	8.06437086092715				0.948026490066225	0.0674966887417219	0.165933774834437	-2.0082119205298	-4.42807947019868	1.06251655629139				0.415788079470199	-0.302834437086093	-0.756238410596026	-6.41960264900662	7.43761589403974	-2.15470198675497			
147	3280	0.983841059602649	0.0347549668874172	0.136476821192053	-6.12662251655629	0.975364238410596	-1.46490066225166				0.992953642384106	0.0797880794701987	0.0931390728476822	-10.2060927152318	-6.69218543046358	0.81403973509934				0.965827814569536	-0.00127152317880793	-0.15194701986755	-12.592582781457	0.986490066225167	3.99973509933775				0.240529801324503	-0.112529801324503	-0.917721854304636	-6.47708609271523	-7.0964238410596	7.50437086092715				0.948026490066225	0.0514966887417219	0.181933774834437	-5.3682119205298	-5.26807947019868	0.222516556291392				0.431788079470199	-0.334834437086093	-0.756238410596026	-1.93960264900662	6.59761589403974	-4.11470198675497			
148	3300	0.983841059602649	0.0347549668874172	0.168476821192053	-6.12662251655629	-0.144635761589404	-1.18490066225166				0.992953642384106	0.0637880794701987	0.0771390728476822	-4.32609271523179	-5.57218543046358	-0.0259602649006601				0.965827814569536	0.0147284768211921	-0.15194701986755	-6.15258278145695	0.426490066225167	3.15973509933775				0.208529801324503	-0.0645298013245033	-0.885721854304636	-5.63708609271523	-0.6564238410596	9.18437086092715				0.948026490066225	0.0674966887417219	0.165933774834437	-9.0082119205298	-6.10807947019868	-0.897483443708608				0.431788079470199	-0.334834437086093	-0.772238410596026	-3.05960264900662	6.87761589403974	-4.67470198675497			
149	3320	0.951841059602649	0.0347549668874172	0.168476821192053	-8.08662251655629	-0.424635761589404	-0.904900662251656				0.992953642384106	0.0317880794701987	0.109139072847682	-6.00609271523179	-6.41218543046358	1.37403973509934				0.965827814569536	-0.00127152317880793	-0.13594701986755	-3.63258278145695	0.146490066225167	1.75973509933775				0.224529801324503	-0.0485298013245033	-0.869721854304636	1.36291390728477	4.9435761589404	8.34437086092715				0.948026490066225	0.0674966887417219	0.149933774834437	-10.1282119205298	-5.54807947019868	-0.337483443708608				0.415788079470199	-0.302834437086093	-0.788238410596027	-5.57960264900662	6.59761589403974	-3.55470198675497			
150	3340	0.967841059602649	0.0507549668874172	0.168476821192053	-6.68662251655629	0.975364238410596	-1.18490066225166				0.976953642384106	0.0637880794701987	0.157139072847682	-6.84609271523179	-4.17218543046358	3.33403973509934				0.965827814569536	-0.0172715231788079	-0.16794701986755	-0.832582781456954	0.146490066225167	0.91973509933775				0.256529801324503	-0.0485298013245033	-0.901721854304636	6.12291390728477	6.3435761589404	6.10437086092715				0.932026490066225	0.0834966887417219	0.165933774834437	-7.3282119205298	-4.14807947019868	1.62251655629139				0.399788079470199	-0.254834437086093	-0.804238410596027	-6.41960264900662	8.27761589403974	-2.99470198675497			
151	3360	0.967841059602649	0.0347549668874172	0.184476821192053	-1.36662251655629	2.3753642384106	-0.624900662251656				0.960953642384106	0.0797880794701987	0.141139072847682	-2.36609271523179	-8.09218543046358	2.77403973509934				0.949827814569536	-0.0172715231788079	-0.13594701986755	-3.07258278145695	1.26649006622517	-0.76026490066225				0.288529801324503	-0.0965298013245033	-0.933721854304636	8.08291390728477	1.8635761589404	4.42437086092715				0.948026490066225	0.0834966887417219	0.149933774834437	-6.2082119205298	-2.18807947019868	1.62251655629139				0.431788079470199	-0.254834437086093	-0.852238410596026	-1.93960264900662	10.5176158940397	-2.71470198675497			
152	3380	0.983841059602649	0.0187549668874172	0.200476821192053	2.27337748344371	0.975364238410596	-1.46490066225166				0.992953642384106	0.0797880794701987	0.0931390728476822	-0.406092715231788	-9.49218543046358	1.65403973509934				0.965827814569536	-0.0172715231788079	-0.15194701986755	-1.67258278145695	2.94649006622517	-0.48026490066225				0.320529801324503	-0.112529801324503	-0.949721854304636	0.802913907284768	-0.3764238410596	2.46437086092715				0.964026490066225	0.0834966887417219	0.133933774834437	-6.2082119205298	0.0519205298013249	0.222516556291392				0.431788079470199	-0.270834437086093	-0.852238410596026	7.30039735099338	4.35761589403974	-1.87470198675497			
153	3400	0.967841059602649	0.0507549668874172	0.200476821192053	3.39337748344371	1.2553642384106	-0.624900662251656				0.976953642384106	0.0637880794701987	0.0771390728476822	-4.04609271523179	-4.73218543046358	1.65403973509934				0.965827814569536	-0.0492715231788079	-0.13594701986755	0.00741721854304636	2.38649006622517	0.35973509933775				0.304529801324503	-0.0965298013245033	-0.949721854304636	-5.63708609271523	1.5835761589404	1.06437086092715				0.948026490066225	0.0834966887417219	0.165933774834437	-3.6882119205298	3.97192052980133	0.782516556291392				0.415788079470199	-0.286834437086093	-0.836238410596026	3.10039735099338	-1.52238410596026	1.48529801324503			
154	3420	0.951841059602649	0.0507549668874172	0.200476821192053	2.27337748344371	0.135364238410596	-0.344900662251656				0.976953642384106	0.0477880794701987	0.109139072847682	-7.96609271523179	-1.37218543046358	1.93403973509934				0.965827814569536	-0.0492715231788079	-0.11994701986755	-1.95258278145695	2.66649006622517	-0.20026490066225				0.304529801324503	-0.0485298013245033	-0.917721854304636	-5.35708609271523	4.9435761589404	0.784370860927152				0.964026490066225	0.0834966887417219	0.165933774834437	-1.7282119205298	1.73192052980133	2.18251655629139				0.415788079470199	-0.254834437086093	-0.820238410596026	-0.539602649006623	-1.80238410596026	0.365298013245032			
155	3440	0.951841059602649	0.0347549668874172	0.168476821192053	-0.526622516556291	-0.144635761589404	-1.18490066225166				0.976953642384106	0.0957880794701987	0.125139072847682	-5.16609271523179	-3.33218543046358	1.09403973509934				0.981827814569536	-0.0172715231788079	-0.10394701986755	-0.832582781456954	1.54649006622517	-0.48026490066225				0.304529801324503	-0.0485298013245033	-0.917721854304636	-1.99708609271523	3.2635761589404	0.784370860927152				0.964026490066225	0.0834966887417219	0.165933774834437	1.3517880794702	-0.788079470198675	2.74251655629139				0.431788079470199	-0.238834437086093	-0.836238410596026	1.42039735099338	0.717615894039735	-3.83470198675497			
156	3460	0.999841059602649	0.0347549668874172	0.184476821192053	0.313377483443709	-0.144635761589404	-0.624900662251656				0.992953642384106	0.0637880794701987	0.0611390728476822	2.11390728476821	-6.69218543046358	1.93403973509934				0.981827814569536	-0.0172715231788079	-0.11994701986755	3.64741721854305	-2.37350993377483	0.35973509933775				0.288529801324503	-0.0805298013245033	-0.917721854304636	2.76291390728477	0.7435761589404	-0.0556291390728476				0.980026490066225	0.0834966887417219	0.149933774834437	1.6317880794702	-2.18807947019868	3.86251655629139				0.431788079470199	-0.254834437086093	-0.836238410596026	10.9403973509934	-1.24238410596026	-9.15470198675497			
157	3480	0.983841059602649	0.0667549668874172	0.184476821192053	1.71337748344371	-0.984635761589404	-0.624900662251656				0.992953642384106	0.0477880794701987	0.0611390728476822	4.07390728476821	-3.89218543046358	1.65403973509934				0.965827814569536	-0.0332715231788079	-0.11994701986755	6.16741721854305	-3.21350993377483	0.0797350993377501				0.288529801324503	-0.0965298013245033	-0.933721854304636	4.44291390728477	2.7035761589404	-1.45562913907285				0.980026490066225	0.0674966887417219	0.149933774834437	4.1517880794702	-3.30807947019868	3.30251655629139				0.415788079470199	-0.302834437086093	-0.804238410596027	15.7003973509934	-3.20238410596026	-10.834701986755			
158	3500	0.967841059602649	0.0667549668874172	0.168476821192053	1.99337748344371	-0.704635761589404	-1.46490066225166				0.976953642384106	0.0637880794701987	0.0611390728476822	2.39390728476821	-1.65218543046358	1.09403973509934				0.965827814569536	-0.0172715231788079	-0.13594701986755	1.68741721854305	-0.413509933774833	0.0797350993377501				0.272529801324503	-0.0965298013245033	-0.917721854304636	2.48291390728477	8.5835761589404	-3.13562913907285				0.980026490066225	0.0514966887417219	0.165933774834437	5.2717880794702	-3.58807947019868	3.30251655629139				0.415788079470199	-0.318834437086093	-0.804238410596027	9.54039735099338	-2.64238410596027	-9.15470198675497			
159	3520	0.967841059602649	0.0667549668874172	0.152476821192053	-0.526622516556291	-2.1046357615894	-2.02490066225166				0.976953642384106	0.0797880794701987	0.0931390728476822	3.23390728476821	-0.812185430463576	0.81403973509934				0.949827814569536	-0.0172715231788079	-0.13594701986755	-0.552582781456954	0.706490066225167	1.47973509933775				0.272529801324503	-0.0965298013245033	-0.901721854304636	0.802913907284768	10.8235761589404	-3.97562913907285				0.948026490066225	0.0674966887417219	0.149933774834437	4.7117880794702	-3.58807947019868	3.86251655629139				0.415788079470199	-0.302834437086093	-0.804238410596027	3.66039735099338	-0.682384105960265	-6.91470198675497			
160	3540	0.967841059602649	0.0507549668874172	0.120476821192053	0.593377483443709	-3.2246357615894	-1.74490066225166				0.992953642384106	0.0797880794701987	0.109139072847682	4.35390728476821	-0.532185430463576	0.81403973509934				0.949827814569536	-0.0332715231788079	-0.15194701986755	3.64741721854305	-0.133509933774833	0.91973509933775				0.256529801324503	-0.0805298013245033	-0.901721854304636	6.96291390728477	8.8635761589404	-2.57562913907285				0.932026490066225	0.0674966887417219	0.133933774834437	5.2717880794702	-3.86807947019868	3.30251655629139				0.399788079470199	-0.270834437086093	-0.788238410596027	5.90039735099338	-1.80238410596026	-7.19470198675497			
161	3560	0.967841059602649	0.0347549668874172	0.136476821192053	2.83337748344371	-1.8246357615894	-0.624900662251656				0.976953642384106	0.0797880794701987	0.0771390728476822	3.51390728476821	-2.21218543046358	-0.0259602649006601				0.949827814569536	-0.00127152317880793	-0.13594701986755	2.24741721854305	1.54649006622517	0.35973509933775				0.272529801324503	-0.0805298013245033	-0.917721854304636	8.64291390728477	6.3435761589404	-5.09562913907285				0.932026490066225	0.0514966887417219	0.133933774834437	6.9517880794702	-4.42807947019868	2.46251655629139				0.399788079470199	-0.286834437086093	-0.788238410596027	9.26039735099338	-3.76238410596027	-6.91470198675497			
162	3580	0.967841059602649	0.0507549668874172	0.136476821192053	2.27337748344371	0.135364238410596	-0.624900662251656				0.960953642384106	0.0637880794701987	0.0611390728476822	2.67390728476821	-0.252185430463576	0.25403973509934				0.965827814569536	0.0147284768211921	-0.13594701986755	-1.39258278145695	3.50649006622517	0.35973509933775				0.272529801324503	-0.128529801324503	-0.949721854304636	8.36291390728477	6.0635761589404	-5.37562913907285				0.948026490066225	0.0674966887417219	0.133933774834437	7.2317880794702	-1.90807947019868	2.46251655629139				0.415788079470199	-0.286834437086093	-0.788238410596027	7.86039735099338	-5.44238410596027	-4.95470198675497			
163	3600	0.951841059602649	0.0187549668874172	0.152476821192053	0.593377483443709	-0.704635761589404	-0.904900662251656				0.992953642384106	0.0637880794701987	0.0611390728476822	4.07390728476821	0.307814569536424	0.81403973509934				0.965827814569536	-0.00127152317880793	-0.15194701986755	1.12741721854305	2.94649006622517	-0.76026490066225				0.288529801324503	-0.128529801324503	-0.933721854304636	4.44291390728477	6.9035761589404	-3.69562913907285				0.964026490066225	0.0514966887417219	0.133933774834437	6.1117880794702	-1.34807947019868	2.46251655629139				0.431788079470199	-0.302834437086093	-0.788238410596027	3.66039735099338	-6.28238410596027	-4.67470198675497			
164	3620	0.983841059602649	0.0347549668874172	0.152476821192053	0.593377483443709	-0.144635761589404	-0.624900662251656				0.992953642384106	0.0637880794701987	0.0771390728476822	6.03390728476821	0.867814569536424	0.25403973509934				0.949827814569536	-0.0172715231788079	-0.15194701986755	5.32741721854305	-0.133509933774833	-2.16026490066225				0.288529801324503	-0.112529801324503	-0.933721854304636	1.08291390728477	7.7435761589404	-2.85562913907285				0.964026490066225	0.0674966887417219	0.165933774834437	5.8317880794702	0.891920529801325	1.34251655629139				0.431788079470199	-0.302834437086093	-0.788238410596027	4.22039735099338	-4.60238410596027	-6.63470198675497			
165	3640	0.983841059602649	0.0347549668874172	0.168476821192053	0.313377483443709	-0.144635761589404	-1.18490066225166				0.992953642384106	0.0637880794701987	0.0611390728476822	6.31390728476821	-1.93218543046358	0.81403973509934				0.949827814569536	-0.0172715231788079	-0.16794701986755	5.32741721854305	0.986490066225167	-2.16026490066225				0.272529801324503	-0.0965298013245033	-0.933721854304636	5.84291390728477	7.4635761589404	-1.45562913907285				0.980026490066225	0.0834966887417219	0.133933774834437	4.7117880794702	-0.788079470198675	1.06251655629139				0.431788079470199	-0.286834437086093	-0.788238410596027	6.46039735099338	-2.92238410596027	-11.114701986755			
166	3660	0.983841059602649	0.0507549668874172	0.152476821192053	-0.246622516556291	0.695364238410596	-0.0649006622516557				0.992953642384106	0.0797880794701987	0.0771390728476822	2.67390728476821	-1.37218543046358	0.53403973509934				0.965827814569536	-0.0172715231788079	-0.15194701986755	0.567417218543046	2.10649006622517	-1.04026490066225				0.288529801324503	-0.0965298013245033	-0.933721854304636	7.52291390728477	6.0635761589404	-1.17562913907285				0.964026490066225	0.0674966887417219	0.133933774834437	6.1117880794702	-1.62807947019868	1.34251655629139				0.431788079470199	-0.302834437086093	-0.804238410596027	5.90039735099338	-5.16238410596027	-9.99470198675497			
167	3680	0.967841059602649	0.0507549668874172	0.152476821192053	1.43337748344371	0.415364238410596	-0.0649006622516557				0.992953642384106	0.0637880794701987	0.0771390728476822	2.95390728476821	-1.37218543046358	1.09403973509934				0.981827814569536	-0.0492715231788079	-0.13594701986755	0.00741721854304636	1.82649006622517	-0.48026490066225				0.304529801324503	-0.112529801324503	-0.949721854304636	6.68291390728477	2.7035761589404	-1.17562913907285				0.980026490066225	0.0674966887417219	0.149933774834437	5.5517880794702	-3.02807947019868	0.502516556291392				0.431788079470199	-0.302834437086093	-0.788238410596027	4.78039735099338	-4.88238410596027	-6.91470198675497			
168	3700	0.983841059602649	0.0507549668874172	0.136476821192053	2.55337748344371	-0.424635761589404	-1.46490066225166				0.992953642384106	0.0637880794701987	0.0931390728476822	3.79390728476821	-1.93218543046358	0.25403973509934				0.997827814569536	-0.0332715231788079	-0.16794701986755	3.08741721854305	-0.973509933774833	-0.76026490066225				0.304529801324503	-0.112529801324503	-0.949721854304636	3.04291390728477	1.8635761589404	-1.17562913907285				0.980026490066225	0.0674966887417219	0.133933774834437	3.8717880794702	-3.58807947019868	1.06251655629139				0.431788079470199	-0.318834437086093	-0.788238410596027	1.14039735099338	0.717615894039735	-6.91470198675497			
169	3720	0.983841059602649	0.0347549668874172	0.152476821192053	3.67337748344371	-0.424635761589404	-0.904900662251656				0.992953642384106	0.0797880794701987	0.0611390728476822	5.19390728476821	-1.93218543046358	0.53403973509934				0.965827814569536	-0.0332715231788079	-0.13594701986755	5.04741721854305	0.706490066225167	-1.04026490066225				0.288529801324503	-0.0965298013245033	-0.933721854304636	0.802913907284768	2.1435761589404	-2.01562913907285				0.964026490066225	0.0674966887417219	0.133933774834437	5.2717880794702	-3.02807947019868	-0.0574834437086077				0.447788079470199	-0.302834437086093	-0.788238410596027	1.14039735099338	1.27761589403974	-8.87470198675497			
170	3740	0.967841059602649	0.0347549668874172	0.152476821192053	1.43337748344371	-1.8246357615894	-0.624900662251656				0.976953642384106	0.0637880794701987	0.0771390728476822	4.91390728476821	0.307814569536424	0.25403973509934				0.981827814569536	-0.0172715231788079	-0.11994701986755	-2.23258278145695	0.426490066225167	0.35973509933775				0.288529801324503	-0.0805298013245033	-0.901721854304636	0.522913907284768	2.1435761589404	-4.53562913907285				0.964026490066225	0.0674966887417219	0.149933774834437	3.0317880794702	-3.30807947019868	-0.897483443708608				0.447788079470199	-0.318834437086093	-0.788238410596027	6.74039735099338	-2.92238410596027	-8.03470198675497			
171	3760	0.967841059602649	0.0507549668874172	0.152476821192053	0.593377483443709	-0.704635761589404	-1.18490066225166				0.976953642384106	0.0797880794701987	0.0931390728476822	3.23390728476821	0.0278145695364242	0.81403973509934				0.965827814569536	-0.0332715231788079	-0.11994701986755	0.847417218543046	-1.81350993377483	0.63973509933775				0.272529801324503	-0.0805298013245033	-0.901721854304636	2.20291390728477	2.1435761589404	-5.09562913907285				0.948026490066225	0.0834966887417219	0.149933774834437	-0.0482119205298018	-4.70807947019868	-0.617483443708608				0.447788079470199	-0.350834437086093	-0.772238410596026	3.94039735099338	-2.64238410596027	-5.23470198675497			
172	3780	0.983841059602649	0.0507549668874172	0.152476821192053	1.71337748344371	-1.2646357615894	-0.624900662251656				0.976953642384106	0.0957880794701987	0.0931390728476822	1.83390728476821	-0.252185430463576	0.81403973509934				0.933827814569536	-0.0172715231788079	-0.13594701986755	4.76741721854305	-1.25350993377483	0.63973509933775				0.288529801324503	-0.0805298013245033	-0.901721854304636	4.44291390728477	3.5435761589404	-2.29562913907285				0.948026490066225	0.0834966887417219	0.133933774834437	0.231788079470198	-5.26807947019868	-0.897483443708608				0.431788079470199	-0.318834437086093	-0.788238410596027	-5.01960264900662	0.997615894039735	-4.39470198675497			
