No	Time	12-AccX	12-AccY	12-AccZ	12-GyroX	12-GyroY	12-GyroZ	13-AccX	13-AccY	13-AccZ	13-GyroX	13-GyroY	13-GyroZ	14-AccX	14-AccY	14-AccZ	14-GyroX	14-GyroY	14-GyroZ	15-AccX	15-AccY	15-AccZ	15-GyroX	15-GyroY	15-GyroZ	16-AccX	16-AccY	16-AccZ	16-GyroX	16-GyroY	16-GyroZ	17-AccX	17-AccY	17-AccZ	17-GyroX	17-GyroY	17-GyroZ
0	120	0	0	0	0	0	0				0	0	0	0	0	0				-0.186172185430464	-0.0812715231788079	-0.90394701986755	7.00741721854305	-0.693509933774834	-0.48026490066225				0.608529801324503	-0.272529801324503	-0.693721854304636	1.92291390728477	0.1835761589404	-0.615629139072848				0.932026490066225	0.0674966887417219	0.181933774834437	-0.328211920529802	-1.90807947019868	0.222516556291392				0.511788079470199	-0.0628344370860927	-0.788238410596027	-1.37960264900662	-0.962384105960265	0.925298013245032			
1	140	-0.184158940397351	0.0667549668874172	-0.951523178807947	0.0333774834437086	-0.144635761589404	-2.58490066225166				0.944953642384106	0.111788079470199	0.253139072847682	-2.92609271523179	5.34781456953642	2.21403973509934				-0.186172185430464	-0.0652715231788079	-0.90394701986755	8.68741721854305	-0.973509933774833	-0.48026490066225				0.592529801324503	-0.272529801324503	-0.693721854304636	1.64291390728477	-1.7764238410596	0.224370860927152				0.948026490066225	0.0514966887417219	0.181933774834437	-0.328211920529802	-4.14807947019868	0.782516556291392				0.543788079470199	-0.0628344370860927	-0.788238410596027	0.0203973509933773	-1.52238410596026	0.925298013245032			
2	160	-0.168158940397351	0.0667549668874172	-0.967523178807947	-0.806622516556291	0.415364238410596	-1.74490066225166				0.928953642384106	0.0957880794701987	0.269139072847682	4.35390728476821	11.5078145695364	6.69403973509934				-0.186172185430464	-0.0652715231788079	-0.88794701986755	7.00741721854305	-0.413509933774833	-0.20026490066225				0.608529801324503	-0.288529801324503	-0.693721854304636	1.36291390728477	-2.0564238410596	1.90437086092715				0.932026490066225	0.0514966887417219	0.197933774834437	-0.0482119205298018	-1.34807947019868	0.782516556291392				0.527788079470199	-0.0628344370860927	-0.788238410596027	1.42039735099338	-1.52238410596026	0.365298013245032			
3	180	-0.168158940397351	0.0667549668874172	-0.951523178807947	-0.246622516556291	-0.704635761589404	-1.46490066225166				0.960953642384106	0.127788079470199	0.285139072847682	8.27390728476821	11.7878145695364	3.05403973509934				-0.186172185430464	-0.0652715231788079	-0.90394701986755	8.68741721854305	-2.09350993377483	-0.48026490066225				0.608529801324503	-0.288529801324503	-0.693721854304636	-0.597086092715232	-1.4964238410596	1.90437086092715				0.964026490066225	0.0514966887417219	0.181933774834437	-0.328211920529802	-1.62807947019868	0.782516556291392				0.527788079470199	-0.0628344370860927	-0.772238410596026	0.300397350993377	-1.52238410596026	-0.474701986754968			
4	200	-0.200158940397351	0.0827549668874172	-0.951523178807947	0.0333774834437086	-0.424635761589404	-1.46490066225166				0.976953642384106	0.111788079470199	0.269139072847682	7.43390728476821	5.62781456953642	2.77403973509934				-0.202172185430464	-0.0492715231788079	-0.88794701986755	5.04741721854305	-1.25350993377483	0.35973509933775				0.608529801324503	-0.272529801324503	-0.693721854304636	-1.71708609271523	-1.2164238410596	0.504370860927152				0.980026490066225	0.0514966887417219	0.165933774834437	0.231788079470198	-0.508079470198675	0.782516556291392				0.527788079470199	-0.0788344370860927	-0.772238410596026	-1.09960264900662	-1.24238410596026	0.365298013245032			
5	220	-0.200158940397351	0.0827549668874172	-0.951523178807947	2.27337748344371	-0.704635761589404	-0.0649006622516557				0.992953642384106	0.111788079470199	0.221139072847682	0.993907284768212	1.98781456953642	1.93403973509934				-0.202172185430464	-0.0652715231788079	-0.88794701986755	1.12741721854305	0.986490066225167	1.75973509933775				0.592529801324503	-0.256529801324503	-0.693721854304636	0.802913907284768	-0.3764238410596	-0.615629139072848				0.964026490066225	0.0674966887417219	0.165933774834437	-1.1682119205298	-1.34807947019868	-0.897483443708608				0.511788079470199	-0.0628344370860927	-0.788238410596027	-2.77960264900662	-0.122384105960265	0.365298013245032			
6	240	-0.184158940397351	0.0667549668874172	-0.967523178807947	1.43337748344371	0.415364238410596	0.495099337748344				0.992953642384106	0.0797880794701987	0.237139072847682	-4.04609271523179	0.587814569536424	1.93403973509934				-0.186172185430464	-0.0812715231788079	-0.88794701986755	3.08741721854305	1.26649006622517	0.91973509933775				0.592529801324503	-0.256529801324503	-0.693721854304636	2.76291390728477	-0.0964238410596001	-1.17562913907285				0.948026490066225	0.0674966887417219	0.181933774834437	-0.888211920529802	-2.46807947019868	-0.617483443708608				0.527788079470199	-0.0468344370860927	-0.788238410596027	-1.65960264900662	-0.402384105960265	-0.754701986754968			
7	260	-0.168158940397351	0.0827549668874172	-0.967523178807947	-0.526622516556291	0.695364238410596	-0.624900662251656				0.960953642384106	0.0957880794701987	0.253139072847682	-2.92609271523179	-2.21218543046358	1.65403973509934				-0.186172185430464	-0.0652715231788079	-0.91994701986755	6.16741721854305	-0.973509933774833	0.35973509933775				0.624529801324503	-0.272529801324503	-0.693721854304636	1.92291390728477	1.0235761589404	-1.45562913907285				0.948026490066225	0.0674966887417219	0.181933774834437	0.511788079470198	-2.18807947019868	1.34251655629139				0.543788079470199	-0.0468344370860927	-0.804238410596027	-0.259602649006623	0.997615894039735	-1.31470198675497			
8	280	-0.168158940397351	0.0987549668874172	-0.935523178807947	-0.246622516556291	-0.144635761589404	-0.904900662251656				0.976953642384106	0.0957880794701987	0.253139072847682	3.51390728476821	-1.09218543046358	3.61403973509934				-0.202172185430464	-0.0492715231788079	-0.90394701986755	0.847417218543046	0.426490066225167	0.0797350993377501				0.608529801324503	-0.288529801324503	-0.693721854304636	0.522913907284768	-0.6564238410596	-1.45562913907285				0.980026490066225	0.0514966887417219	0.149933774834437	0.231788079470198	-1.90807947019868	0.782516556291392				0.527788079470199	-0.0468344370860927	-0.820238410596026	2.82039735099338	1.55761589403974	-2.71470198675497			
9	300	-0.184158940397351	0.0987549668874172	-0.951523178807947	0.0333774834437086	-1.5446357615894	-2.02490066225166				0.992953642384106	0.0957880794701987	0.253139072847682	1.83390728476821	-2.49218543046358	1.93403973509934				-0.202172185430464	-0.0652715231788079	-0.88794701986755	-1.67258278145695	1.54649006622517	0.0797350993377501				0.592529801324503	-0.288529801324503	-0.693721854304636	1.36291390728477	1.0235761589404	1.34437086092715				0.964026490066225	0.0674966887417219	0.149933774834437	0.511788079470198	-2.18807947019868	1.34251655629139				0.527788079470199	-0.0628344370860927	-0.804238410596027	1.14039735099338	0.437615894039735	-2.15470198675497			
10	320	-0.184158940397351	0.0827549668874172	-0.983523178807947	0.0333774834437086	-0.144635761589404	-2.02490066225166				0.928953642384106	0.127788079470199	0.269139072847682	2.95390728476821	-2.21218543046358	3.05403973509934				-0.202172185430464	-0.0652715231788079	-0.88794701986755	-3.07258278145695	2.94649006622517	-0.48026490066225				0.592529801324503	-0.288529801324503	-0.693721854304636	3.04291390728477	2.1435761589404	3.58437086092715				0.948026490066225	0.0514966887417219	0.181933774834437	-0.0482119205298018	-1.34807947019868	2.46251655629139				0.543788079470199	-0.0788344370860927	-0.804238410596027	-0.539602649006623	-1.24238410596026	-2.43470198675497			
11	340	-0.168158940397351	0.0667549668874172	-0.951523178807947	-1.64662251655629	0.415364238410596	-3.42490066225166				0.944953642384106	0.111788079470199	0.269139072847682	8.27390728476821	6.46781456953642	8.65403973509934				-0.186172185430464	-0.0652715231788079	-0.90394701986755	-1.95258278145695	2.38649006622517	-1.32026490066225				0.608529801324503	-0.288529801324503	-0.693721854304636	1.36291390728477	2.7035761589404	5.26437086092715				0.948026490066225	0.0514966887417219	0.165933774834437	-0.0482119205298018	-0.508079470198675	3.02251655629139				0.527788079470199	-0.0788344370860927	-0.788238410596027	0.0203973509933773	-2.36238410596027	-2.15470198675497			
12	360	-0.184158940397351	0.0827549668874172	-0.935523178807947	-0.806622516556291	-0.704635761589404	-2.86490066225166				1.00895364238411	0.0957880794701987	0.269139072847682	15.2739072847682	6.74781456953642	8.09403973509934				-0.186172185430464	-0.0332715231788079	-0.90394701986755	-6.71258278145695	2.94649006622517	-0.48026490066225				0.608529801324503	-0.304529801324503	-0.693721854304636	2.20291390728477	2.4235761589404	4.98437086092715				0.964026490066225	0.0354966887417219	0.181933774834437	2.1917880794702	0.891920529801325	2.46251655629139				0.527788079470199	-0.0948344370860927	-0.788238410596027	0.580397350993377	-3.20238410596026	-1.03470198675497			
13	380	-0.200158940397351	0.0827549668874172	-0.935523178807947	0.593377483443709	-0.984635761589404	-2.58490066225166				0.992953642384106	0.0797880794701987	0.221139072847682	14.1539072847682	2.26781456953642	5.29403973509934				-0.186172185430464	-0.0492715231788079	-0.90394701986755	-7.83258278145695	4.62649006622517	-0.20026490066225				0.608529801324503	-0.304529801324503	-0.693721854304636	3.32291390728477	2.7035761589404	4.98437086092715				0.964026490066225	0.0354966887417219	0.165933774834437	1.0717880794702	1.45192052980132	1.90251655629139				0.511788079470199	-0.0788344370860927	-0.804238410596027	0.580397350993377	-4.04238410596027	0.365298013245032			
14	400	-0.200158940397351	0.0667549668874172	-0.967523178807947	0.593377483443709	-0.704635761589404	-2.30490066225166				0.960953642384106	0.127788079470199	0.237139072847682	6.87390728476821	-0.252185430463576	2.21403973509934				-0.186172185430464	-0.0652715231788079	-0.87194701986755	-5.03258278145695	2.94649006622517	0.63973509933775				0.624529801324503	-0.288529801324503	-0.709721854304636	2.20291390728477	0.1835761589404	4.70437086092715				0.964026490066225	0.0354966887417219	0.165933774834437	0.231788079470198	0.611920529801325	0.782516556291392				0.527788079470199	-0.0628344370860927	-0.788238410596027	0.860397350993377	-4.60238410596027	0.365298013245032			
15	420	-0.200158940397351	0.0667549668874172	-0.951523178807947	-1.08662251655629	0.975364238410596	-0.904900662251656				0.976953642384106	0.0637880794701987	0.253139072847682	3.51390728476821	1.70781456953642	2.21403973509934				-0.186172185430464	-0.0492715231788079	-0.90394701986755	-1.67258278145695	1.26649006622517	-0.48026490066225				0.624529801324503	-0.304529801324503	-0.709721854304636	-1.43708609271523	-2.0564238410596	3.86437086092715				0.964026490066225	0.0354966887417219	0.165933774834437	0.231788079470198	-1.62807947019868	1.34251655629139				0.527788079470199	-0.0628344370860927	-0.788238410596027	2.26039735099338	-5.72238410596027	0.365298013245032			
16	440	-0.184158940397351	0.0507549668874172	-0.935523178807947	-0.526622516556291	0.415364238410596	-1.18490066225166				0.976953642384106	0.111788079470199	0.237139072847682	-0.966092715231788	-3.89218543046358	-2.54596026490066				-0.170172185430464	-0.0492715231788079	-0.90394701986755	-3.63258278145695	1.26649006622517	-0.76026490066225				0.608529801324503	-0.288529801324503	-0.709721854304636	-1.15708609271523	-2.8964238410596	3.02437086092715				0.980026490066225	0.0514966887417219	0.181933774834437	2.1917880794702	-2.74807947019868	1.34251655629139				0.527788079470199	-0.0788344370860927	-0.772238410596026	-0.539602649006623	-5.72238410596027	1.48529801324503			
17	460	-0.200158940397351	0.0667549668874172	-0.935523178807947	-0.526622516556291	-0.704635761589404	-1.18490066225166				0.960953642384106	0.0957880794701987	0.237139072847682	-5.72609271523179	-4.45218543046358	-3.66596026490066				-0.202172185430464	-0.0492715231788079	-0.87194701986755	-2.79258278145695	1.26649006622517	-1.32026490066225				0.592529801324503	-0.288529801324503	-0.709721854304636	0.242913907284768	-2.8964238410596	1.34437086092715				0.996026490066225	0.0514966887417219	0.133933774834437	-1.1682119205298	-5.82807947019868	-0.337483443708608				0.511788079470199	-0.0468344370860927	-0.788238410596027	-5.57960264900662	-2.36238410596027	0.645298013245032			
18	480	-0.200158940397351	0.0827549668874172	-0.951523178807947	-0.806622516556291	-0.704635761589404	-0.344900662251656				0.944953642384106	0.111788079470199	0.269139072847682	-2.36609271523179	-1.93218543046358	-1.98596026490066				-0.202172185430464	-0.0492715231788079	-0.88794701986755	5.32741721854305	0.986490066225167	-2.16026490066225				0.592529801324503	-0.288529801324503	-0.709721854304636	1.92291390728477	-3.4564238410596	1.34437086092715				0.948026490066225	0.0674966887417219	0.165933774834437	-6.4882119205298	-1.90807947019868	-1.17748344370861				0.495788079470199	-0.0468344370860927	-0.788238410596027	-2.49960264900662	0.997615894039735	0.925298013245032			
19	500	-0.168158940397351	0.0667549668874172	-0.967523178807947	-1.64662251655629	0.975364238410596	-0.904900662251656				0.960953642384106	0.111788079470199	0.269139072847682	-0.126092715231788	-1.93218543046358	0.81403973509934				-0.186172185430464	-0.0492715231788079	-0.90394701986755	2.52741721854305	2.10649006622517	-1.32026490066225				0.576529801324503	-0.288529801324503	-0.709721854304636	1.36291390728477	-3.7364238410596	0.224370860927152				0.932026490066225	0.0674966887417219	0.133933774834437	-1.7282119205298	-2.46807947019868	0.782516556291392				0.495788079470199	-0.0468344370860927	-0.788238410596027	1.42039735099338	-0.402384105960265	1.20529801324503			
20	520	-0.184158940397351	0.0827549668874172	-0.951523178807947	-1.36662251655629	1.8153642384106	-0.624900662251656				0.976953642384106	0.0797880794701987	0.253139072847682	-3.48609271523179	0.587814569536424	1.37403973509934				-0.170172185430464	-0.0812715231788079	-0.90394701986755	-1.39258278145695	2.66649006622517	-0.48026490066225				0.576529801324503	-0.288529801324503	-0.693721854304636	-1.43708609271523	-2.3364238410596	-0.0556291390728476				0.948026490066225	0.0674966887417219	0.165933774834437	-0.608211920529802	-1.34807947019868	-0.337483443708608				0.495788079470199	-0.0628344370860927	-0.788238410596027	-1.65960264900662	-0.682384105960265	1.48529801324503			
21	540	-0.184158940397351	0.0827549668874172	-0.935523178807947	0.873377483443709	-0.144635761589404	-1.18490066225166				1.00895364238411	0.0797880794701987	0.253139072847682	-11.6060927152318	-3.61218543046358	-3.66596026490066				-0.170172185430464	-0.0812715231788079	-0.87194701986755	0.287417218543046	1.26649006622517	-1.32026490066225				0.592529801324503	-0.288529801324503	-0.693721854304636	0.802913907284768	0.4635761589404	-0.335629139072848				0.980026490066225	0.0354966887417219	0.165933774834437	0.511788079470198	-1.62807947019868	0.222516556291392				0.527788079470199	-0.0468344370860927	-0.820238410596026	-4.45960264900662	1.27761589403974	1.20529801324503			
22	560	-0.184158940397351	0.0987549668874172	-0.967523178807947	0.873377483443709	0.695364238410596	-0.904900662251656				0.960953642384106	0.127788079470199	0.253139072847682	-6.00609271523179	-6.41218543046358	-2.54596026490066				-0.186172185430464	-0.0492715231788079	-0.90394701986755	3.92741721854305	0.986490066225167	-0.76026490066225				0.608529801324503	-0.304529801324503	-0.693721854304636	2.48291390728477	2.1435761589404	-0.335629139072848				0.980026490066225	0.0514966887417219	0.133933774834437	-1.4482119205298	-2.18807947019868	0.782516556291392				0.527788079470199	-0.0468344370860927	-0.820238410596026	-0.259602649006623	4.35761589403974	-1.31470198675497			
23	580	-0.168158940397351	0.0987549668874172	-0.967523178807947	-0.806622516556291	2.0953642384106	-0.624900662251656				0.960953642384106	0.0957880794701987	0.237139072847682	1.27390728476821	-2.21218543046358	2.21403973509934				-0.170172185430464	-0.0652715231788079	-0.90394701986755	8.40741721854305	0.706490066225167	-0.20026490066225				0.608529801324503	-0.288529801324503	-0.693721854304636	3.04291390728477	1.8635761589404	0.224370860927152				0.948026490066225	0.0514966887417219	0.165933774834437	0.231788079470198	-1.34807947019868	0.782516556291392				0.511788079470199	-0.0468344370860927	-0.804238410596027	2.26039735099338	3.23761589403974	-1.31470198675497			
24	600	-0.168158940397351	0.0827549668874172	-0.935523178807947	-1.36662251655629	0.975364238410596	-1.18490066225166				0.976953642384106	0.111788079470199	0.221139072847682	-4.32609271523179	-2.77218543046358	1.93403973509934				-0.186172185430464	-0.0652715231788079	-0.91994701986755	7.56741721854305	1.26649006622517	-0.48026490066225				0.608529801324503	-0.288529801324503	-0.693721854304636	2.76291390728477	1.5835761589404	-0.335629139072848				0.948026490066225	0.0674966887417219	0.149933774834437	1.6317880794702	-1.90807947019868	1.34251655629139				0.495788079470199	-0.0628344370860927	-0.788238410596027	-0.539602649006623	1.55761589403974	0.365298013245032			
25	620	-0.184158940397351	0.0667549668874172	-0.951523178807947	0.593377483443709	1.2553642384106	-2.02490066225166				0.960953642384106	0.0797880794701987	0.253139072847682	-9.64609271523179	-3.33218543046358	3.33403973509934				-0.154172185430464	-0.0812715231788079	-0.88794701986755	3.92741721854305	1.54649006622517	-0.76026490066225				0.624529801324503	-0.288529801324503	-0.677721854304636	3.60291390728477	1.5835761589404	-0.335629139072848				0.932026490066225	0.0514966887417219	0.165933774834437	3.0317880794702	-1.06807947019868	0.222516556291392				0.495788079470199	-0.0628344370860927	-0.772238410596026	-2.49960264900662	-0.682384105960265	1.48529801324503			
26	640	-0.168158940397351	0.0667549668874172	-0.951523178807947	-0.246622516556291	0.975364238410596	-2.30490066225166				0.944953642384106	0.0957880794701987	0.269139072847682	-11.8860927152318	-3.33218543046358	1.09403973509934				-0.170172185430464	-0.0812715231788079	-0.88794701986755	-1.67258278145695	0.426490066225167	-0.76026490066225				0.608529801324503	-0.304529801324503	-0.693721854304636	2.20291390728477	0.1835761589404	-2.29562913907285				0.964026490066225	0.0354966887417219	0.165933774834437	2.7517880794702	-3.02807947019868	-0.617483443708608				0.527788079470199	-0.0628344370860927	-0.788238410596027	0.580397350993377	-1.52238410596026	0.365298013245032			
27	660	-0.184158940397351	0.0827549668874172	-0.951523178807947	0.313377483443709	0.695364238410596	-1.18490066225166				0.928953642384106	0.0957880794701987	0.269139072847682	-9.36609271523179	-2.21218543046358	-0.86596026490066				-0.186172185430464	-0.0652715231788079	-0.87194701986755	-3.35258278145695	0.426490066225167	-1.04026490066225				0.592529801324503	-0.288529801324503	-0.693721854304636	0.242913907284768	-0.6564238410596	-2.85562913907285				0.948026490066225	0.0194966887417219	0.149933774834437	2.1917880794702	-3.58807947019868	-0.617483443708608				0.527788079470199	-0.0628344370860927	-0.788238410596027	0.0203973509933773	-0.122384105960265	-0.474701986754968			
28	680	-0.200158940397351	0.0987549668874172	-0.935523178807947	1.15337748344371	-0.424635761589404	-0.904900662251656				0.992953642384106	0.127788079470199	0.221139072847682	-9.08609271523179	-3.89218543046358	-4.50596026490066				-0.202172185430464	-0.0332715231788079	-0.90394701986755	-0.832582781456954	-1.25350993377483	-0.48026490066225				0.576529801324503	-0.288529801324503	-0.693721854304636	-0.877086092715232	-2.6164238410596	-2.29562913907285				0.948026490066225	0.0354966887417219	0.165933774834437	0.791788079470198	-2.18807947019868	-0.337483443708608				0.511788079470199	-0.0628344370860927	-0.772238410596026	0.580397350993377	0.157615894039735	0.0852980132450323			
29	700	-0.200158940397351	0.0827549668874172	-0.967523178807947	1.71337748344371	1.5353642384106	-0.904900662251656				0.960953642384106	0.127788079470199	0.221139072847682	-7.68609271523179	-3.89218543046358	-3.38596026490066				-0.186172185430464	-0.0332715231788079	-0.93594701986755	3.64741721854305	0.706490066225167	0.63973509933775				0.592529801324503	-0.288529801324503	-0.693721854304636	1.92291390728477	-2.3364238410596	-2.85562913907285				0.948026490066225	0.0354966887417219	0.133933774834437	-0.328211920529802	-3.58807947019868	-1.45748344370861				0.527788079470199	-0.0628344370860927	-0.788238410596027	0.0203973509933773	0.717615894039735	-0.754701986754968			
30	720	-0.168158940397351	0.0667549668874172	-0.935523178807947	-1.08662251655629	2.9353642384106	-0.624900662251656				0.992953642384106	0.0797880794701987	0.253139072847682	-8.52609271523179	-2.77218543046358	-3.10596026490066				-0.170172185430464	-0.0652715231788079	-0.90394701986755	3.92741721854305	2.66649006622517	1.19973509933775				0.592529801324503	-0.304529801324503	-0.709721854304636	1.64291390728477	-1.7764238410596	-2.85562913907285				0.948026490066225	0.0354966887417219	0.165933774834437	-0.888211920529802	-2.46807947019868	-1.17748344370861				0.511788079470199	-0.0628344370860927	-0.788238410596027	1.14039735099338	0.717615894039735	-2.71470198675497			
31	740	-0.168158940397351	0.0667549668874172	-0.935523178807947	-0.806622516556291	0.415364238410596	-1.46490066225166				0.976953642384106	0.127788079470199	0.253139072847682	-9.64609271523179	-3.89218543046358	-7.02596026490066				-0.170172185430464	-0.0972715231788079	-0.88794701986755	2.52741721854305	2.94649006622517	0.0797350993377501				0.608529801324503	-0.304529801324503	-0.693721854304636	0.522913907284768	0.1835761589404	-2.57562913907285				0.980026490066225	0.0354966887417219	0.165933774834437	-0.888211920529802	-2.18807947019868	-1.45748344370861				0.527788079470199	-0.0468344370860927	-0.788238410596027	-0.259602649006623	2.39761589403974	-2.71470198675497			
32	760	-0.168158940397351	0.0667549668874172	-0.967523178807947	0.593377483443709	-0.704635761589404	-2.02490066225166				0.896953642384106	0.127788079470199	0.269139072847682	0.993907284768212	-1.09218543046358	-1.14596026490066				-0.170172185430464	-0.0812715231788079	-0.88794701986755	1.40741721854305	0.706490066225167	-2.16026490066225				0.592529801324503	-0.304529801324503	-0.693721854304636	-1.15708609271523	0.7435761589404	-2.29562913907285				0.948026490066225	0.0834966887417219	0.133933774834437	-1.7282119205298	-3.30807947019868	-0.897483443708608				0.511788079470199	-0.0468344370860927	-0.788238410596027	-1.65960264900662	3.51761589403974	-2.99470198675497			
33	780	-0.168158940397351	0.0827549668874172	-0.983523178807947	0.313377483443709	-0.144635761589404	-2.02490066225166				0.976953642384106	0.111788079470199	0.253139072847682	5.47390728476821	4.22781456953642	4.17403973509934				-0.186172185430464	-0.0332715231788079	-0.90394701986755	-3.63258278145695	1.54649006622517	-1.60026490066225				0.592529801324503	-0.272529801324503	-0.693721854304636	-0.877086092715232	-0.6564238410596	-0.0556291390728476				0.932026490066225	0.0674966887417219	0.165933774834437	-0.888211920529802	0.0519205298013249	-0.897483443708608				0.511788079470199	-0.0468344370860927	-0.804238410596027	-0.539602649006623	2.67761589403974	-1.59470198675497			
34	800	-0.184158940397351	0.0827549668874172	-0.983523178807947	0.313377483443709	0.135364238410596	-0.624900662251656				0.976953642384106	0.111788079470199	0.253139072847682	7.15390728476821	6.74781456953642	5.85403973509934				-0.186172185430464	-0.0332715231788079	-0.88794701986755	-4.47258278145695	0.706490066225167	-0.20026490066225				0.608529801324503	-0.272529801324503	-0.693721854304636	-1.15708609271523	-1.2164238410596	-0.0556291390728476				0.932026490066225	0.0674966887417219	0.165933774834437	-0.328211920529802	1.17192052980133	-0.897483443708608				0.511788079470199	-0.0468344370860927	-0.788238410596027	1.42039735099338	0.157615894039735	-1.03470198675497			
35	820	-0.184158940397351	0.0827549668874172	-0.935523178807947	-2.20662251655629	0.695364238410596	-0.344900662251656				0.976953642384106	0.0957880794701987	0.253139072847682	6.03390728476821	4.50781456953642	3.61403973509934				-0.170172185430464	-0.0652715231788079	-0.90394701986755	-3.35258278145695	1.82649006622517	-0.20026490066225				0.608529801324503	-0.272529801324503	-0.693721854304636	-1.15708609271523	1.0235761589404	-1.17562913907285				0.964026490066225	0.0674966887417219	0.165933774834437	-0.888211920529802	2.29192052980133	-0.617483443708608				0.543788079470199	-0.0628344370860927	-0.788238410596027	1.14039735099338	-1.24238410596026	-0.194701986754968			
36	840	-0.184158940397351	0.0827549668874172	-0.903523178807947	-1.92662251655629	0.135364238410596	-0.624900662251656				1.04095364238411	0.0157880794701987	0.221139072847682	-0.686092715231788	-3.89218543046358	1.09403973509934				-0.186172185430464	-0.0652715231788079	-0.90394701986755	-6.99258278145695	0.426490066225167	0.63973509933775				0.608529801324503	-0.272529801324503	-0.677721854304636	-1.15708609271523	2.1435761589404	-1.17562913907285				0.996026490066225	0.0514966887417219	0.149933774834437	0.231788079470198	1.17192052980133	-1.17748344370861				0.527788079470199	-0.0468344370860927	-0.804238410596027	1.42039735099338	-0.682384105960265	0.365298013245032			
37	860	-0.216158940397351	0.0667549668874172	-0.951523178807947	-2.20662251655629	-1.2646357615894	-1.74490066225166				1.05695364238411	0.0797880794701987	0.205139072847682	-13.0060927152318	-17.6121854304636	-5.34596026490066				-0.186172185430464	-0.0492715231788079	-0.88794701986755	-8.39258278145695	1.26649006622517	0.35973509933775				0.608529801324503	-0.288529801324503	-0.709721854304636	2.20291390728477	2.1435761589404	-0.895629139072848				0.996026490066225	0.0514966887417219	0.149933774834437	-0.608211920529802	-0.508079470198675	-2.01748344370861				0.527788079470199	-0.0628344370860927	-0.804238410596027	1.98039735099338	-1.52238410596026	-1.31470198675497			
38	880	-0.216158940397351	0.0667549668874172	-0.999523178807947	-1.64662251655629	0.415364238410596	-1.74490066225166				0.944953642384106	0.175788079470199	0.221139072847682	-17.2060927152318	-20.1321854304636	-10.3859602649007				-0.218172185430464	-0.0652715231788079	-0.88794701986755	-5.87258278145695	1.26649006622517	1.19973509933775				0.592529801324503	-0.304529801324503	-0.725721854304636	2.76291390728477	1.8635761589404	0.224370860927152				0.980026490066225	0.0674966887417219	0.133933774834437	-2.8482119205298	-3.30807947019868	-1.73748344370861				0.559788079470199	-0.0628344370860927	-0.820238410596026	0.300397350993377	-0.962384105960265	-1.87470198675497			
39	900	-0.152158940397351	0.0667549668874172	-0.967523178807947	-0.806622516556291	3.2153642384106	-0.624900662251656				0.912953642384106	0.111788079470199	0.221139072847682	-3.76609271523179	-12.8521854304636	5.85403973509934				-0.186172185430464	-0.0812715231788079	-0.88794701986755	-8.67258278145695	1.26649006622517	0.63973509933775				0.592529801324503	-0.304529801324503	-0.709721854304636	-1.15708609271523	1.5835761589404	2.74437086092715				0.948026490066225	0.0834966887417219	0.133933774834437	-3.4082119205298	-1.62807947019868	1.62251655629139				0.543788079470199	-0.0628344370860927	-0.804238410596027	-1.65960264900662	-0.122384105960265	-0.474701986754968			
40	920	-0.168158940397351	0.0507549668874172	-0.935523178807947	-3.04662251655629	1.2553642384106	-1.74490066225166				0.976953642384106	0.0157880794701987	0.253139072847682	16.6739072847682	3.38781456953642	13.4140397350993				-0.186172185430464	-0.0652715231788079	-0.87194701986755	-12.592582781457	0.146490066225167	-0.76026490066225				0.576529801324503	-0.288529801324503	-0.693721854304636	-1.99708609271523	-0.6564238410596	5.26437086092715				0.964026490066225	0.0194966887417219	0.165933774834437	2.1917880794702	1.45192052980132	2.18251655629139				0.511788079470199	-0.0628344370860927	-0.804238410596027	-1.37960264900662	0.997615894039735	0.0852980132450323			
41	940	0	0	0	0	0	0				0	0	0	0	0	0				0	0	0	0	0	0				0.576529801324503	-0.304529801324503	-0.677721854304636	-0.597086092715232	2.4235761589404	6.38437086092715				0	0	0	0	0	0				0	0	0	0	0	0			
42	1060	-0.184158940397351	0.0827549668874172	-0.951523178807947	0.873377483443709	1.2553642384106	-0.344900662251656				0.944953642384106	0.0957880794701987	0.221139072847682	4.63390728476821	1.98781456953642	1.37403973509934				-0.218172185430464	-0.00127152317880793	-0.88794701986755	0.287417218543046	0.706490066225167	0.91973509933775				0	0	0	0	0	0				0	0	0	0	0	0				0	0	0	0	0	0			
43	1080	-0.168158940397351	0.0827549668874172	-0.951523178807947	0.0333774834437086	1.5353642384106	-2.02490066225166				0.912953642384106	0.0797880794701987	0.253139072847682	0.993907284768212	6.74781456953642	1.09403973509934				-0.202172185430464	-0.00127152317880793	-0.87194701986755	-1.67258278145695	-0.693509933774834	-1.60026490066225				0.592529801324503	-0.288529801324503	-0.677721854304636	-0.877086092715232	-1.7764238410596	0.784370860927152				0.932026490066225	0.0674966887417219	0.149933774834437	-2.0082119205298	2.57192052980133	2.18251655629139				0.495788079470199	-0.0468344370860927	-0.788238410596027	4.22039735099338	-1.24238410596026	-0.474701986754968			
44	1100	-0.168158940397351	0.0987549668874172	-0.951523178807947	-1.08662251655629	0.135364238410596	-2.86490066225166				0.944953642384106	0.127788079470199	0.301139072847682	0.153907284768212	12.3478145695364	0.25403973509934				-0.138172185430464	-0.0492715231788079	-0.82394701986755	5.04741721854305	0.986490066225167	-3.84026490066225				0.608529801324503	-0.288529801324503	-0.677721854304636	-1.15708609271523	2.4235761589404	0.784370860927152				0.964026490066225	0.0674966887417219	0.165933774834437	1.9117880794702	3.13192052980133	1.34251655629139				0.511788079470199	-0.0788344370860927	-0.788238410596027	3.66039735099338	-1.24238410596026	-0.194701986754968			
45	1120	-0.168158940397351	0.114754966887417	-0.951523178807947	-1.92662251655629	-0.704635761589404	-1.46490066225166				0.976953642384106	0.111788079470199	0.269139072847682	10.2339072847682	3.94781456953642	1.37403973509934				-0.186172185430464	0.0147284768211921	-0.96794701986755	3.64741721854305	-5.45350993377483	-3.28026490066225				0.576529801324503	-0.272529801324503	-0.661721854304636	2.48291390728477	4.9435761589404	0.224370860927152				0.948026490066225	0.0674966887417219	0.133933774834437	0.231788079470198	3.13192052980133	1.06251655629139				0.495788079470199	-0.0788344370860927	-0.788238410596027	1.42039735099338	0.997615894039735	0.645298013245032			
46	1140	-0.184158940397351	0.0987549668874172	-0.951523178807947	-4.16662251655629	-1.2646357615894	-1.18490066225166				1.02495364238411	0.127788079470199	0.173139072847682	10.5139072847682	-5.01218543046358	-0.86596026490066				-0.186172185430464	-0.00127152317880793	-0.91994701986755	10.647417218543	-1.53350993377483	-2.16026490066225				0.592529801324503	-0.272529801324503	-0.661721854304636	6.68291390728477	5.5035761589404	0.784370860927152				0.964026490066225	0.0354966887417219	0.165933774834437	0.791788079470198	3.97192052980133	1.34251655629139				0.495788079470199	-0.0468344370860927	-0.788238410596027	1.14039735099338	0.717615894039735	-0.194701986754968			
47	1160	-0.200158940397351	0.0667549668874172	-0.951523178807947	-3.60662251655629	-0.704635761589404	-1.74490066225166				0.944953642384106	0.127788079470199	0.189139072847682	-1.52609271523179	-6.13218543046358	-3.66596026490066				-0.218172185430464	-0.0812715231788079	-0.88794701986755	3.92741721854305	1.54649006622517	-2.44026490066225				0.624529801324503	-0.304529801324503	-0.709721854304636	7.80291390728477	6.0635761589404	0.224370860927152				0.948026490066225	0.0514966887417219	0.165933774834437	1.0717880794702	1.45192052980132	-0.0574834437086077				0.511788079470199	-0.0468344370860927	-0.804238410596027	3.66039735099338	-0.682384105960265	-1.31470198675497			
48	1180	-0.184158940397351	0.0827549668874172	-0.951523178807947	-1.36662251655629	0.415364238410596	-1.74490066225166				0.912953642384106	0.111788079470199	0.253139072847682	-9.08609271523179	5.06781456953642	-3.10596026490066				-0.170172185430464	-0.0652715231788079	-0.87194701986755	-1.95258278145695	3.78649006622517	-1.88026490066225				0.624529801324503	-0.320529801324503	-0.725721854304636	4.16291390728477	5.5035761589404	0.224370860927152				0.964026490066225	0.0674966887417219	0.165933774834437	0.791788079470198	1.45192052980132	-0.337483443708608				0.527788079470199	-0.0788344370860927	-0.788238410596027	3.38039735099338	-2.92238410596027	-1.03470198675497			
49	1200	-0.184158940397351	0.0827549668874172	-0.951523178807947	-0.806622516556291	0.135364238410596	-1.18490066225166				0.976953642384106	0.0797880794701987	0.285139072847682	-4.60609271523179	2.82781456953642	-0.86596026490066				-0.170172185430464	-0.0812715231788079	-0.91994701986755	15.967417218543	-4.33350993377483	-0.48026490066225				0.608529801324503	-0.304529801324503	-0.725721854304636	0.242913907284768	4.6635761589404	0.504370860927152				0.980026490066225	0.0514966887417219	0.149933774834437	1.3517880794702	3.69192052980133	-0.897483443708608				0.527788079470199	-0.0628344370860927	-0.804238410596027	-0.819602649006623	-1.24238410596026	-0.754701986754968			
50	1220	-0.168158940397351	0.0987549668874172	-0.935523178807947	-2.20662251655629	-0.424635761589404	-0.624900662251656				0.992953642384106	0.0957880794701987	0.221139072847682	-0.686092715231788	-10.8921854304636	-3.10596026490066				-0.186172185430464	-0.0492715231788079	-0.90394701986755	16.247417218543	-2.37350993377483	1.47973509933775				0.592529801324503	-0.304529801324503	-0.709721854304636	-1.71708609271523	2.9835761589404	0.784370860927152				0.980026490066225	0.0514966887417219	0.149933774834437	-0.0482119205298018	1.45192052980132	-2.29748344370861				0.527788079470199	-0.0628344370860927	-0.788238410596027	-1.93960264900662	0.157615894039735	-0.754701986754968			
51	1240	-0.200158940397351	0.0987549668874172	-0.935523178807947	-0.526622516556291	-1.2646357615894	-0.0649006622516557				0.960953642384106	0.111788079470199	0.221139072847682	-3.76609271523179	-5.29218543046358	-2.82596026490066				-0.202172185430464	-0.0812715231788079	-0.88794701986755	6.72741721854305	-0.693509933774834	2.87973509933775				0.592529801324503	-0.288529801324503	-0.709721854304636	-2.55708609271523	-0.9364238410596	0.504370860927152				0.964026490066225	0.0514966887417219	0.165933774834437	-3.9682119205298	0.331920529801325	-1.73748344370861				0.511788079470199	-0.0628344370860927	-0.772238410596026	-2.49960264900662	1.27761589403974	-0.194701986754968			
52	1260	-0.184158940397351	0.0827549668874172	-0.983523178807947	-0.806622516556291	0.695364238410596	-0.624900662251656				0.976953642384106	0.0637880794701987	0.237139072847682	-10.2060927152318	2.26781456953642	-0.0259602649006601				-0.186172185430464	-0.0972715231788079	-0.88794701986755	0.00741721854304636	0.146490066225167	2.87973509933775				0.592529801324503	-0.304529801324503	-0.709721854304636	-2.83708609271523	-1.4964238410596	0.224370860927152				0.948026490066225	0.0674966887417219	0.149933774834437	-2.5682119205298	-0.228079470198675	-1.45748344370861				0.527788079470199	-0.0628344370860927	-0.788238410596027	-2.21960264900662	0.997615894039735	1.48529801324503			
53	1280	-0.152158940397351	0.0827549668874172	-0.951523178807947	-2.48662251655629	2.0953642384106	-0.624900662251656				0.976953642384106	0.0797880794701987	0.237139072847682	-9.64609271523179	0.867814569536424	1.37403973509934				-0.186172185430464	-0.0492715231788079	-0.90394701986755	2.24741721854305	-3.49350993377483	2.03973509933775				0.592529801324503	-0.304529801324503	-0.693721854304636	-5.63708609271523	-1.2164238410596	0.784370860927152				0.932026490066225	0.0674966887417219	0.181933774834437	-2.8482119205298	3.97192052980133	-1.73748344370861				0.527788079470199	-0.0788344370860927	-0.804238410596027	-0.539602649006623	-0.682384105960265	2.04529801324503			
54	1300	-0.136158940397351	0.0827549668874172	-0.935523178807947	-3.88662251655629	-0.144635761589404	-1.46490066225166				0.960953642384106	0.0957880794701987	0.253139072847682	-0.126092715231788	1.14781456953642	3.33403973509934				-0.202172185430464	-0.0172715231788079	-0.90394701986755	3.36741721854305	-4.05350993377483	1.19973509933775				0.608529801324503	-0.304529801324503	-0.677721854304636	-8.43708609271523	-0.6564238410596	2.46437086092715				0.964026490066225	0.0514966887417219	0.165933774834437	-5.0882119205298	5.37192052980133	-0.897483443708608				0.543788079470199	-0.0628344370860927	-0.820238410596026	-0.539602649006623	-0.962384105960265	1.76529801324503			
55	1320	-0.168158940397351	0.0827549668874172	-0.935523178807947	-4.16662251655629	-1.5446357615894	-1.74490066225166				0.992953642384106	0.111788079470199	0.237139072847682	4.91390728476821	-7.25218543046358	5.01403973509934				-0.202172185430464	-0.0172715231788079	-0.88794701986755	7.28741721854305	-2.09350993377483	-0.76026490066225				0.576529801324503	-0.288529801324503	-0.661721854304636	-7.87708609271523	-0.9364238410596	3.58437086092715				0.964026490066225	0.0354966887417219	0.149933774834437	-3.4082119205298	6.21192052980133	0.502516556291392				0.511788079470199	-0.0468344370860927	-0.820238410596026	0.0203973509933773	0.157615894039735	0.925298013245032			
56	1340	-0.184158940397351	0.114754966887417	-0.967523178807947	-4.72662251655629	-1.8246357615894	-1.18490066225166				0.976953642384106	0.127788079470199	0.173139072847682	1.27390728476821	-12.8521854304636	3.33403973509934				-0.202172185430464	-0.0172715231788079	-0.90394701986755	1.40741721854305	-0.973509933774833	-1.32026490066225				0.576529801324503	-0.272529801324503	-0.645721854304636	-4.23708609271523	0.4635761589404	4.98437086092715				0.948026490066225	0.0514966887417219	0.165933774834437	-3.1282119205298	5.93192052980133	1.06251655629139				0.495788079470199	-0.0788344370860927	-0.820238410596026	2.26039735099338	-1.24238410596026	0.645298013245032			
57	1360	-0.200158940397351	0.0987549668874172	-0.935523178807947	-6.40662251655629	-0.424635761589404	-0.904900662251656				0.960953642384106	0.127788079470199	0.189139072847682	-7.68609271523179	-4.17218543046358	1.65403973509934				-0.186172185430464	-0.0172715231788079	-0.88794701986755	-5.03258278145695	1.54649006622517	-1.60026490066225				0.608529801324503	-0.304529801324503	-0.677721854304636	1.64291390728477	2.9835761589404	7.50437086092715				0.964026490066225	0.0514966887417219	0.181933774834437	-3.9682119205298	5.09192052980133	1.06251655629139				0.511788079470199	-0.0788344370860927	-0.820238410596026	0.0203973509933773	-2.92238410596027	0.645298013245032			
58	1380	-0.184158940397351	0.0987549668874172	-0.951523178807947	-5.00662251655629	0.135364238410596	-0.344900662251656				0.976953642384106	0.111788079470199	0.253139072847682	-6.56609271523179	5.06781456953642	1.09403973509934				-0.186172185430464	-0.0172715231788079	-0.90394701986755	-1.67258278145695	0.146490066225167	-1.88026490066225				0.608529801324503	-0.336529801324503	-0.709721854304636	2.20291390728477	4.6635761589404	8.06437086092715				0.964026490066225	0.0514966887417219	0.165933774834437	-4.2482119205298	4.53192052980133	0.782516556291392				0.511788079470199	-0.0788344370860927	-0.820238410596026	-2.49960264900662	-4.60238410596027	0.0852980132450323			
59	1400	-0.168158940397351	0.0827549668874172	-0.951523178807947	-3.88662251655629	-0.424635761589404	1.33509933774834				0.976953642384106	0.0957880794701987	0.221139072847682	-0.406092715231788	0.0278145695364242	1.09403973509934				-0.170172185430464	-0.0332715231788079	-0.91994701986755	-8.11258278145695	1.54649006622517	-0.20026490066225				0.608529801324503	-0.352529801324503	-0.709721854304636	0.522913907284768	4.3835761589404	11.4243708609272				0.980026490066225	0.0514966887417219	0.165933774834437	-2.5682119205298	3.69192052980133	-0.0574834437086077				0.511788079470199	-0.0628344370860927	-0.836238410596026	-3.05960264900662	-7.12238410596027	-1.31470198675497			
60	1420	-0.152158940397351	0.0667549668874172	-0.951523178807947	-5.00662251655629	-0.424635761589404	2.45509933774835				0.976953642384106	0.111788079470199	0.189139072847682	-0.966092715231788	-7.81218543046358	0.25403973509934				-0.170172185430464	0.0147284768211921	-0.95194701986755	-12.312582781457	-3.49350993377483	-3.84026490066225				0.608529801324503	-0.352529801324503	-0.741721854304636	1.92291390728477	2.1435761589404	16.1843708609272				0.980026490066225	0.0514966887417219	0.149933774834437	-4.5282119205298	3.41192052980132	-0.0574834437086077				0.495788079470199	-0.0468344370860927	-0.868238410596026	-5.01960264900662	-11.3223841059603	-3.55470198675497			
61	1440	-0.168158940397351	0.0667549668874172	-0.967523178807947	-7.24662251655629	-0.424635761589404	2.73509933774834				0.976953642384106	0.159788079470199	0.205139072847682	-5.44609271523179	-8.37218543046358	1.37403973509934				-0.202172185430464	0.0467284768211921	-0.95194701986755	-13.152582781457	-3.21350993377483	-7.20026490066225				0.608529801324503	-0.400529801324503	-0.773721854304636	0.802913907284768	-2.6164238410596	18.7043708609272				0.980026490066225	0.0674966887417219	0.149933774834437	-6.2082119205298	3.97192052980133	-1.17748344370861				0.527788079470199	-0.0628344370860927	-0.900238410596026	-6.69960264900662	-18.6023841059603	-8.87470198675497			
62	1460	-0.168158940397351	0.0987549668874172	-0.967523178807947	-7.24662251655629	0.135364238410596	4.97509933774835				1.02495364238411	0.159788079470199	0.189139072847682	-0.406092715231788	-10.6121854304636	4.17403973509934				-0.218172185430464	0.0467284768211921	-0.95194701986755	-17.352582781457	-3.77350993377483	-9.44026490066225				0.592529801324503	-0.448529801324503	-0.821721854304636	-0.317086092715232	-7.9364238410596	26.8243708609272				0.980026490066225	0.0514966887417219	0.133933774834437	-6.7682119205298	7.61192052980133	-2.29748344370861				0.511788079470199	-0.0308344370860927	-0.932238410596026	-9.21960264900662	-28.4023841059603	-8.03470198675497			
63	1480	-0.168158940397351	0.0827549668874172	-0.951523178807947	-6.12662251655629	0.415364238410596	6.65509933774834				1.02495364238411	0.0797880794701987	0.141139072847682	6.03390728476821	-20.1321854304636	5.01403973509934				-0.186172185430464	0.110728476821192	-0.98394701986755	-35.552582781457	-9.37350993377483	-14.2002649006623				0.560529801324503	-0.480529801324503	-0.853721854304636	-1.99708609271523	-16.3364238410596	37.4643708609272				0.996026490066225	0.0354966887417219	0.101933774834437	-5.6482119205298	13.2119205298013	-2.29748344370861				0.511788079470199	-0.0148344370860927	-0.996238410596026	-20.1396026490066	-38.7623841059603	-9.99470198675497			
64	1500	-0.120158940397351	0.0827549668874172	-0.967523178807947	-6.40662251655629	0.975364238410596	9.45509933774835				1.02495364238411	0.0637880794701987	0.0771390728476822	-6.00609271523179	-28.5321854304636	-0.585960264900661				-0.154172185430464	0.158728476821192	-1.04794701986755	-64.112582781457	-21.1335099337748	-23.4402649006623				0.528529801324503	-0.480529801324503	-0.901721854304636	-4.51708609271523	-28.0964238410596	46.9843708609272				1.06002649006623	0.00349668874172187	0.117933774834437	-4.8082119205298	15.4519205298013	-3.41748344370861				0.495788079470199	-0.0148344370860927	-1.02823841059603	-15.9396026490066	-51.3623841059603	-7.75470198675497			
65	1520	-0.184158940397351	0.0667549668874172	-0.951523178807947	-12.8466225165563	0.415364238410596	11.1350993377483				1.16895364238411	0.111788079470199	0.0771390728476822	-21.9660927152318	-39.4521854304636	-0.585960264900661				-0.218172185430464	0.158728476821192	-0.99994701986755	-61.312582781457	-42.9735099337748	-28.7602649006623				0.464529801324503	-0.480529801324503	-0.949721854304636	-16.5570860927152	-35.3764238410596	52.3043708609272				1.07602649006623	0.0194966887417219	0.0699337748344371	-14.3282119205298	8.73192052980133	-4.53748344370861				0.431788079470199	-0.0148344370860927	-1.04423841059603	-17.0596026490066	-58.9223841059603	-0.754701986754968			
66	1540	-0.264158940397351	0.0507549668874172	-0.967523178807947	-12.0066225165563	0.135364238410596	11.1350993377483				1.18495364238411	0.159788079470199	-0.00286092715231785	-19.1660927152318	-44.7721854304636	0.25403973509934				-0.106172185430464	0.126728476821192	-0.82394701986755	-7.83258278145695	-79.0935099337748	-15.3202649006623				0.368529801324503	-0.544529801324503	-0.965721854304636	-21.3170860927152	-48.2564238410596	55.9443708609272				1.07602649006623	0.0194966887417219	-0.0100662251655629	-19.6482119205298	10.6919205298013	-3.97748344370861				0.383788079470199	0.0331655629139073	-1.17223841059603	-23.4996026490066	-70.1223841059603	9.60529801324503			
67	1560	-0.264158940397351	0.0507549668874172	-1.04752317880795	-5.84662251655629	6.2953642384106	11.9750993377483				0.992953642384106	0.0957880794701987	-0.0188609271523178	-15.8060927152318	-43.9321854304636	8.93403973509934				-0.554172185430464	-0.0812715231788079	-0.64794701986755	49.287417218543	-51.9335099337748	-46.4002649006623				0.336529801324503	-0.624529801324503	-1.06172185430464	-20.7570860927152	-55.2564238410596	56.2243708609272				1.06002649006623	0.00349668874172187	-0.0420662251655629	-17.4082119205298	21.6119205298013	-3.41748344370861				0.303788079470199	0.0331655629139073	-1.22023841059603	6.46039735099338	-85.5223841059603	18.005298013245			
68	1580	-0.216158940397351	0.162754966887417	-1.01552317880795	-6.96662251655629	10.7753642384106	13.0950993377483				0.896953642384106	0.159788079470199	-0.0508609271523178	-15.2460927152318	-31.6121854304636	10.6140397350993				-0.378172185430464	-0.0492715231788079	-0.82394701986755	34.7274172185431	-6.29350993377483	-40.5202649006623				0.336529801324503	-0.512529801324503	-1.06172185430464	-58.2770860927152	-64.7764238410596	42.7843708609272				1.09202649006623	0.0194966887417219	-0.0740662251655629	-19.9282119205298	26.9319205298013	-3.13748344370861				0.255788079470199	-0.0468344370860927	-1.14023841059603	20.7403973509934	-90.2823841059603	31.165298013245			
69	1600	-0.184158940397351	0.258754966887417	-0.919523178807947	-16.4866225165563	9.3753642384106	10.8550993377483				0.912953642384106	0.255788079470199	-0.114860927152318	-6.84609271523179	-5.29218543046358	-0.30596026490066				-0.298172185430464	-0.273271523178808	-0.85594701986755	36.967417218543	-11.6135099337748	-33.2402649006623				0.240529801324503	-0.368529801324503	-0.965721854304636	-86.5570860927152	-70.9364238410596	25.1443708609272				1.17202649006623	0.00349668874172187	-0.0900662251655629	-19.6482119205298	21.3319205298013	-3.13748344370861				0.159788079470199	-0.0308344370860927	-1.12423841059603	15.9803973509934	-82.7223841059603	45.445298013245			
70	1620	-0.248158940397351	0.274754966887417	-0.983523178807947	-13.4066225165563	2.9353642384106	10.2950993377483				0.896953642384106	-0.0322119205298013	0.0611390728476822	-27.5660927152318	75.6278145695364	5.85403973509934				-0.202172185430464	-0.689271523178808	-0.83994701986755	38.0874172185431	5.46649006622517	-8.88026490066225				0.208529801324503	-0.352529801324503	-0.933721854304636	-74.5170860927152	-68.9764238410596	22.9043708609272				1.20402649006623	0.0194966887417219	-0.0420662251655629	-19.3682119205298	17.9719205298013	-5.09748344370861				0.0317880794701987	0.0491655629139073	-1.09223841059603	20.7403973509934	-73.2023841059603	52.165298013245			
71	1640	-0.344158940397351	0.354754966887417	-1.12752317880795	-18.1666225165563	3.7753642384106	7.49509933774834				1.00895364238411	-0.128211920529801	0.253139072847682	-44.0860927152318	102.787814569536	24.3340397350993				-0.298172185430464	-0.737271523178808	-1.06394701986755	-18.752582781457	14.4264900662252	11.2797350993378				0.272529801324503	-0.336529801324503	-0.933721854304636	-56.0370860927152	-61.9764238410596	20.1043708609272				1.10802649006623	0.0354966887417219	0.0699337748344371	-12.9282119205298	28.3319205298013	-3.97748344370861				-0.0162119205298013	0.0971655629139073	-1.09223841059603	35.3003973509934	-68.1623841059603	49.645298013245			
72	1660	-0.360158940397351	0.146754966887417	-1.07952317880795	-36.3666225165563	34.5753642384106	-2.30490066225166				1.26495364238411	0.399788079470199	0.109139072847682	-37.9260927152318	56.0278145695364	18.1740397350993				-0.474172185430464	-0.0652715231788079	-1.39994701986755	-33.312582781457	32.0664900662252	11.5597350993378				0.416529801324503	-0.288529801324503	-0.901721854304636	-44.2770860927152	-47.9764238410596	18.1443708609272				1.14002649006623	0.0994966887417219	0.117933774834437	-5.6482119205298	31.1319205298013	0.502516556291392				-0.000211920529801336	0.0971655629139073	-1.10823841059603	56.8603973509934	-61.7223841059603	46.285298013245			
73	1680	-0.344158940397351	0.258754966887417	-0.855523178807947	-10.6066225165563	41.0153642384106	-12.3849006622517				1.37695364238411	0.495788079470199	-0.0668609271523178	-3.20609271523179	27.7478145695364	30.7740397350993				-0.490172185430464	0.0787284768211921	-0.79194701986755	-80.352582781457	31.7864900662252	15.4797350993378				0.448529801324503	-0.256529801324503	-0.901721854304636	-28.3170860927152	-34.8164238410596	19.2643708609272				1.33202649006623	0.195496688741722	0.133933774834437	-6.4882119205298	19.3719205298013	-1.17748344370861				0.127788079470199	-0.0468344370860927	-0.996238410596026	71.7003973509934	-46.3223841059603	43.765298013245			
74	1700	-0.552158940397351	0.338754966887417	-1.07952317880795	-23.7666225165563	50.5353642384106	-5.94490066225166				1.29695364238411	0.223788079470199	0.285139072847682	10.5139072847682	83.1878145695364	45.0540397350993				-0.810172185430464	0.350728476821192	-1.01594701986755	-35.552582781457	52.7864900662252	19.3997350993378				0.432529801324503	-0.272529801324503	-0.917721854304636	-8.71708609271523	2.7035761589404	12.5443708609272				1.20402649006623	0.259496688741722	0.277933774834437	2.7517880794702	17.4119205298013	-7.61748344370861				0.207788079470199	-0.158834437086093	-0.932238410596026	47.3403973509934	-29.5223841059603	37.605298013245			
75	1720	-0.584158940397351	0.0987549668874172	-1.25552317880795	-33.5666225165563	55.0153642384106	11.4150993377483				1.31295364238411	-0.128211920529801	0.605139072847682	0.713907284768212	87.1078145695364	51.7740397350993				-0.746172185430464	0.350728476821192	-0.93594701986755	-12.592582781457	57.5464900662252	16.8797350993378				0.592529801324503	-0.224529801324503	-1.02972185430464	12.2829139072848	43.3035761589404	13.1043708609272				1.14002649006623	0.195496688741722	0.469933774834437	35.5117880794702	29.4519205298013	-2.29748344370861				0.271788079470199	-0.190834437086093	-1.01223841059603	8.42039735099338	-4.88238410596027	21.085298013245			
76	1740	-0.440158940397351	0.0187549668874172	-1.11152317880795	-5.56662251655629	66.4953642384106	16.7350993377483				1.53695364238411	-0.176211920529801	0.749139072847682	-50.2460927152318	40.6278145695364	24.6140397350993				-0.474172185430464	0.366728476821192	-1.07994701986755	3.64741721854305	68.4664900662252	9.59973509933775				0.768529801324503	-0.240529801324503	-1.06172185430464	40.5629139072848	60.3835761589404	12.8243708609272				1.26802649006623	-0.0125033112582781	0.789933774834437	78.0717880794702	37.8519205298013	3.02251655629139				0.479788079470199	-0.206834437086093	-1.20423841059603	-1.09960264900662	9.11761589403974	1.20529801324503			
77	1760	-0.280158940397351	0.0987549668874172	-1.11152317880795	-13.1266225165563	76.2953642384106	25.1350993377483				1.60095364238411	-0.000211920529801304	0.685139072847682	-5.16609271523179	4.78781456953642	-5.62596026490066				-0.234172185430464	0.222728476821192	-1.03194701986755	21.8474172185431	78.2664900662252	-4.40026490066225				0.880529801324503	-0.384529801324503	-1.04572185430464	47.8429139072848	65.9835761589404	-0.895629139072848				1.39602649006623	0.0354966887417219	0.837933774834437	20.6717880794702	48.4919205298013	-7.61748344370861				0.559788079470199	-0.334834437086093	-1.20423841059603	10.3803973509934	29.5576158940397	-4.39470198675497			
78	1780	-0.072158940397351	0.194754966887417	-1.09552317880795	-29.3666225165563	91.9753642384106	32.6950993377484				1.44095364238411	0.0317880794701987	0.525139072847682	26.1939072847682	10.6678145695364	-1.98596026490066				-0.0901721854304636	-0.0332715231788079	-1.06394701986755	34.1674172185431	84.1464900662252	-7.48026490066225				0.880529801324503	-0.480529801324503	-1.04572185430464	17.0429139072848	62.9035761589404	-10.6956291390728				1.34802649006623	0.115496688741722	0.405933774834437	-11.5282119205298	23.5719205298013	-9.01748344370861				0.591788079470199	-0.446834437086093	-1.04423841059603	-1.93960264900662	46.3576158940397	-1.31470198675497			
79	1800	-0.120158940397351	0.274754966887417	-1.04752317880795	-23.7666225165563	98.6953642384106	33.5350993377483				1.08895364238411	-0.0482119205298013	0.317139072847682	-18.8860927152318	-1.93218543046358	5.29403973509934				-0.138172185430464	-0.257271523178808	-1.07994701986755	21.0074172185431	95.0664900662252	3.71973509933775				0.704529801324503	-0.368529801324503	-1.04572185430464	1.36291390728477	51.9835761589404	-15.7356291390728				1.17202649006623	0.0674966887417219	0.469933774834437	-1.7282119205298	-3.30807947019868	-5.93748344370861				0.559788079470199	-0.478834437086093	-0.980238410596026	-22.3796026490066	53.3576158940397	2.32529801324503			
80	1820	-0.008158940397351	0.274754966887417	-1.09552317880795	-20.1266225165563	103.455364238411	36.3350993377484				1.05695364238411	-0.0962119205298013	0.333139072847682	-32.8860927152318	7.02781456953642	-0.30596026490066				-0.122172185430464	-0.113271523178808	-1.06394701986755	-23.232582781457	104.586490066225	16.8797350993378				0.544529801324503	-0.304529801324503	-0.997721854304636	-1.15708609271523	46.6635761589404	-18.5356291390728				1.10802649006623	0.0834966887417219	0.661933774834437	-12.9282119205298	-0.508079470198675	-2.85748344370861				0.559788079470199	-0.366834437086093	-1.06023841059603	-32.1796026490066	57.2776158940397	2.04529801324503			
81	1840	0.135841059602649	0.338754966887417	-1.04752317880795	2.83337748344371	112.975364238411	35.2150993377483				1.26495364238411	0.0797880794701987	0.605139072847682	-0.406092715231788	28.3078145695364	-18.2259602649007				-0.0421721854304636	-0.00127152317880793	-1.06394701986755	-32.752582781457	113.546490066225	23.3197350993378				0.656529801324503	-0.464529801324503	-0.949721854304636	3.04291390728477	55.0635761589404	-13.2156291390728				1.20402649006623	0.0514966887417219	0.549933774834437	-26.6482119205298	14.0519205298013	-7.61748344370861				0.527788079470199	-0.222834437086093	-1.09223841059603	-6.97960264900662	54.1976158940397	-1.87470198675497			
82	1860	0.263841059602649	0.386754966887417	-1.01552317880795	23.2733774834437	118.575364238411	34.6550993377484				1.56895364238411	0.0957880794701987	0.765139072847682	2.11390728476821	32.2278145695364	-27.4659602649007				0.0378278145695364	0.0147284768211921	-1.01594701986755	-34.152582781457	124.186490066225	21.3597350993378				0.784529801324503	-0.384529801324503	-0.933721854304636	11.1629139072848	60.3835761589404	-11.5356291390728				1.22002649006623	0.115496688741722	0.453933774834437	-34.2082119205298	15.1719205298013	-17.1374834437086				0.495788079470199	-0.158834437086093	-1.04423841059603	10.3803973509934	62.8776158940397	-1.87470198675497			
83	1880	0.295841059602649	0.274754966887417	-1.03152317880795	41.1933774834437	128.095364238411	39.4150993377484				1.26495364238411	-0.112211920529801	0.509139072847682	-12.4460927152318	-7.53218543046358	-17.6659602649007				0.133827814569536	0.0627284768211921	-0.99994701986755	-19.312582781457	134.826490066225	18.2797350993378				0.880529801324503	-0.224529801324503	-0.853721854304636	13.1229139072848	73.2635761589404	-17.4156291390728				1.18802649006623	0.163496688741722	0.501933774834437	-35.0482119205298	12.6519205298013	-16.0174834437086				0.543788079470199	-0.206834437086093	-1.02823841059603	9.82039735099338	69.5976158940397	-2.43470198675497			
84	1900	0.375841059602649	0.0507549668874172	-0.999523178807947	46.5133774834437	138.175364238411	41.3750993377484				0.992953642384106	0.0157880794701987	0.253139072847682	-28.1260927152318	3.38781456953642	-8.14596026490066				0.197827814569536	0.0947284768211921	-0.98394701986755	-10.352582781457	139.026490066225	21.3597350993378				0.848529801324503	-0.240529801324503	-0.757721854304636	27.6829139072848	83.0635761589404	-12.9356291390728				1.15602649006623	0.147496688741722	0.517933774834437	-34.2082119205298	10.1319205298013	-9.01748344370861				0.575788079470199	-0.270834437086093	-1.02823841059603	-9.77960264900662	70.1576158940397	-6.35470198675497			
85	1920	0.503841059602649	0.0187549668874172	-0.935523178807947	30.5533774834437	143.775364238411	36.0550993377484				1.04095364238411	0.255788079470199	0.541139072847682	-29.2460927152318	22.4278145695364	-7.58596026490066				0.245827814569536	0.0147284768211921	-0.93594701986755	-7.83258278145695	143.226490066225	20.7997350993378				0.880529801324503	-0.288529801324503	-0.773721854304636	38.6029139072848	73.8235761589404	-6.77562913907285				1.09202649006623	0.211496688741722	0.453933774834437	-36.1682119205298	-1.34807947019868	-7.33748344370861				0.559788079470199	-0.238834437086093	-0.980238410596026	-33.5796026490066	82.4776158940397	-13.634701986755			
86	1940	0.583841059602649	0.0667549668874172	-0.871523178807947	14.0333774834437	151.335364238411	33.8150993377484				0	0	0	0	0	0				0	0	0	0	0	0				0.944529801324503	-0.336529801324503	-0.853721854304636	27.1229139072848	55.3435761589404	-6.21562913907285				1.06002649006623	0.211496688741722	0.485933774834437	-31.4082119205298	-4.42807947019868	-6.21748344370861				0.511788079470199	-0.158834437086093	-0.868238410596026	-45.8996026490066	97.5976158940397	-8.31470198675497			
87	1960	0	0	0	0	0	0				0	0	0	0	0	0				0.901827814569536	0.0947284768211921	-0.31194701986755	5.60741721854305	-2.37350993377483	0.0797350993377501				0.976529801324503	-0.304529801324503	-0.741721854304636	10.3229139072848	45.2635761589404	-12.0956291390728				1.01202649006623	0.147496688741722	0.517933774834437	-12.6482119205298	-1.90807947019868	-5.93748344370861				0.591788079470199	-0.126834437086093	-0.836238410596026	-62.9796026490066	99.5576158940397	-4.11470198675497			
88	1980	0.983841059602649	0.0507549668874172	-0.055523178807947	1.99337748344371	-4.9046357615894	-2.02490066225166				1.00895364238411	0.127788079470199	-0.0668609271523178	5.47390728476821	-4.45218543046358	-0.30596026490066				0.901827814569536	0.126728476821192	-0.27994701986755	4.48741721854305	-0.413509933774833	-1.32026490066225				0	0	0	0	0	0				0	0	0	0	0	0				0	0	0	0	0	0			
89	2000	0.983841059602649	0.0347549668874172	-0.071523178807947	3.11337748344371	-5.7446357615894	-1.74490066225166				0.992953642384106	0.143788079470199	-0.0188609271523178	1.55390728476821	2.26781456953642	3.05403973509934				0.933827814569536	0.0947284768211921	-0.27994701986755	1.12741721854305	-0.693509933774834	-1.60026490066225				0.624529801324503	-0.384529801324503	-0.693721854304636	11.1629139072848	6.0635761589404	4.14437086092715				0.980026490066225	0.0994966887417219	0.0539337748344371	0.231788079470198	-1.34807947019868	3.86251655629139				0.559788079470199	0.161165562913907	-0.772238410596026	1.70039735099338	2.95761589403974	1.20529801324503			
90	2020	0.967841059602649	0.0347549668874172	-0.087523178807947	7.03337748344371	-5.4646357615894	-1.46490066225166				0.944953642384106	0.191788079470199	-0.0508609271523178	10.5139072847682	-8.93218543046358	0.25403973509934				0.933827814569536	0.0467284768211921	-0.31194701986755	7.56741721854305	-3.77350993377483	-2.72026490066225				0.624529801324503	-0.432529801324503	-0.709721854304636	7.24291390728477	6.6235761589404	4.14437086092715				0.964026490066225	0.0994966887417219	0.0379337748344371	3.0317880794702	-0.508079470198675	3.58251655629139				0.559788079470199	0.129165562913907	-0.788238410596027	4.50039735099338	1.27761589403974	-2.15470198675497			
91	2040	0.967841059602649	0.0187549668874172	-0.087523178807947	6.19337748344371	-5.4646357615894	-1.18490066225166				0.976953642384106	0.159788079470199	-0.0668609271523178	11.3539072847682	-12.2921854304636	-1.98596026490066				0.917827814569536	0.0467284768211921	-0.27994701986755	10.087417218543	-3.49350993377483	-1.88026490066225				0.592529801324503	-0.384529801324503	-0.693721854304636	1.64291390728477	4.3835761589404	-0.615629139072848				0.948026490066225	0.0834966887417219	0.0379337748344371	5.2717880794702	0.891920529801325	2.46251655629139				0.559788079470199	0.129165562913907	-0.772238410596026	6.46039735099338	-0.122384105960265	-2.71470198675497			
92	2060	0.951841059602649	0.0347549668874172	-0.119523178807947	3.11337748344371	-6.5846357615894	-1.46490066225166				1.00895364238411	0.159788079470199	-0.0668609271523178	6.31390728476821	-5.01218543046358	0.81403973509934				0.933827814569536	0.0627284768211921	-0.29594701986755	1.40741721854305	-4.33350993377483	-1.60026490066225				0.576529801324503	-0.352529801324503	-0.661721854304636	2.48291390728477	-1.2164238410596	-2.29562913907285				0.964026490066225	0.0674966887417219	0.0379337748344371	6.6717880794702	2.01192052980133	2.18251655629139				0.575788079470199	0.0971655629139073	-0.740238410596026	6.18039735099338	0.157615894039735	-2.43470198675497			
93	2080	0.967841059602649	0.0347549668874172	-0.119523178807947	1.99337748344371	-4.0646357615894	-1.74490066225166				0	0	0	0	0	0				0.485827814569536	0.126728476821192	-0.55194701986755	29.1274172185431	161.146490066225	-11.6802649006622				0.544529801324503	-0.368529801324503	-0.677721854304636	9.48291390728477	-1.2164238410596	-2.29562913907285				0.644026490066225	0.0514966887417219	0.197933774834437	7.7917880794702	-23.1880794701987	0.502516556291392				0.447788079470199	-0.0308344370860927	-0.516238410596026	-33.8596026490066	50.2776158940397	0.0852980132450323			
94	2100	0.679841059602649	0.0507549668874172	-0.423523178807947	26.0733774834437	151.335364238411	12.5350993377483				0.768953642384106	-0.0802119205298013	0.173139072847682	-9.92609271523179	-44.7721854304636	7.25403973509934				0.501827814569536	0.126728476821192	-0.50394701986755	28.567417218543	163.106490066225	-9.16026490066225				0.480529801324503	-0.144529801324503	-0.341721854304636	10.8829139072848	9.9835761589404	-3.97562913907285				0.564026490066225	0.0194966887417219	0.261933774834437	11.4317880794702	-27.3880794701987	1.62251655629139				0.399788079470199	0.0171655629139073	-0.484238410596026	-34.9796026490066	34.5976158940397	-0.194701986754968			
95	2120	0.663841059602649	0.00275496688741723	-0.471523178807947	10.3933774834437	144.615364238411	12.5350993377483				0.656953642384106	0.0157880794701987	0.109139072847682	6.31390728476821	-61.2921854304636	1.09403973509934				0.517827814569536	0.0307284768211921	-0.43994701986755	26.607417218543	163.106490066225	-6.08026490066225				0.432529801324503	-0.112529801324503	-0.325721854304636	20.6829139072848	10.5435761589404	-2.57562913907285				0.548026490066225	0.00349668874172187	0.341933774834437	6.9517880794702	-32.4280794701987	2.18251655629139				0.415788079470199	0.00116556291390731	-0.516238410596026	-26.8596026490066	22.2776158940397	-1.31470198675497			
96	2140	0.519841059602649	0.130754966887417	-0.359523178807947	2.27337748344371	140.695364238411	13.3750993377483				0.576953642384106	0.0797880794701987	0.0931390728476822	33.1939072847682	-93.2121854304636	-8.42596026490066				0.453827814569536	-0.113271523178808	-0.42394701986755	18.487417218543	154.146490066225	-9.44026490066225				0.336529801324503	-0.128529801324503	-0.293721854304636	26.5629139072848	10.8235761589404	-1.17562913907285				0.484026490066225	0.0674966887417219	0.261933774834437	-0.888211920529802	-45.0280794701987	4.42251655629139				0.399788079470199	0.0171655629139073	-0.516238410596026	-24.6196026490066	17.7976158940397	-8.03470198675497			
97	2160	0.535841059602649	0.162754966887417	-0.407523178807947	5.35337748344371	146.295364238411	15.3350993377483				0.480953642384106	0.0477880794701987	0.0451390728476822	43.8339072847682	-101.612185430464	-12.9059602649007				0.629827814569536	-0.113271523178808	-0.40794701986755	8.68741721854305	146.866490066225	-10.2802649006622				0.352529801324503	-0.208529801324503	-0.277721854304636	23.2029139072848	-3.7364238410596	12.5443708609272				0.500026490066225	0.0514966887417219	0.0859337748344371	2.4717880794702	-50.0680794701987	8.34251655629139				0.383788079470199	0.0331655629139073	-0.468238410596026	-20.6996026490066	13.3176158940397	-18.394701986755			
98	2180	0.599841059602649	0.242754966887417	-0.423523178807947	37.8333774834437	139.015364238411	10.2950993377483				0.496953642384106	-0.0642119205298013	0.0931390728476822	30.3939072847682	-70.8121854304636	-8.14596026490066				0.645827814569536	-0.0172715231788079	-0.29594701986755	-18.192582781457	149.946490066225	-1.32026490066225				0.384529801324503	-0.240529801324503	-0.309721854304636	17.6029139072848	-18.2964238410596	25.7043708609272				0.516026490066225	-0.0125033112582781	0.0859337748344371	8.0717880794702	-46.7080794701987	11.4225165562914				0.367788079470199	-0.0468344370860927	-0.436238410596026	-14.2596026490066	0.437615894039735	-20.354701986755			
99	2200	0.679841059602649	0.146754966887417	-0.391523178807947	38.3933774834437	136.495364238411	7.49509933774834				0.448953642384106	-0.0642119205298013	0.0771390728476822	20.3139072847682	-62.1321854304636	-4.78596026490066				0.629827814569536	-0.0332715231788079	-0.32794701986755	-23.512582781457	145.186490066225	-3.00026490066225				0.352529801324503	-0.272529801324503	-0.341721854304636	12.5629139072848	-21.3764238410596	34.3843708609272				0.516026490066225	-0.0445033112582781	0.133933774834437	6.1117880794702	-45.3080794701987	10.0225165562914				0.335788079470199	-0.0948344370860927	-0.404238410596026	-15.6596026490066	-7.12238410596027	-18.114701986755			
100	2220	0.727841059602649	0.0507549668874172	-0.327523178807947	43.1533774834437	131.455364238411	5.25509933774834				0.400953642384106	-0.0642119205298013	0.0611390728476822	23.1139072847682	-56.2521854304636	-13.7459602649007				0.629827814569536	-0.0332715231788079	-0.34394701986755	-26.872582781457	133.706490066225	-1.88026490066225				0.240529801324503	-0.304529801324503	-0.357721854304636	16.4829139072848	-18.8564238410596	35.7843708609272				0.500026490066225	-0.0125033112582781	0.0859337748344371	-2.5682119205298	-63.5080794701987	11.9825165562914				0.287788079470199	-0.0308344370860927	-0.452238410596026	-35.2596026490066	-6.84238410596027	-15.594701986755			
101	2240	0.743841059602649	-0.0452450331125828	-0.311523178807947	35.8733774834437	125.015364238411	8.89509933774834				0.448953642384106	-0.0322119205298013	-0.0348609271523178	25.3539072847682	-63.2521854304636	-12.0659602649007				0.661827814569536	-0.0492715231788079	-0.40794701986755	-33.032582781457	115.786490066225	-0.48026490066225				0.176529801324503	-0.288529801324503	-0.373721854304636	15.3629139072848	-15.7764238410596	32.7043708609272				0.500026490066225	-0.0445033112582781	-0.0100662251655629	1.0717880794702	-61.8280794701987	11.1425165562914				0.303788079470199	0.0491655629139073	-0.500238410596026	-41.4196026490066	-8.52238410596027	-13.634701986755			
102	2260	0.743841059602649	-0.0132450331125828	-0.359523178807947	29.4333774834437	106.535364238411	8.89509933774834				0.560953642384106	-0.0162119205298013	-0.0988609271523179	9.11390728476821	-62.4121854304636	-9.26596026490066				0.725827814569536	-0.113271523178808	-0.40794701986755	-25.752582781457	97.5864900662252	3.99973509933775				0.272529801324503	-0.256529801324503	-0.421721854304636	17.6029139072848	-15.7764238410596	37.7443708609272				0.548026490066225	-0.0445033112582781	0.0699337748344371	1.6317880794702	-47.8280794701987	9.18251655629139				0.335788079470199	0.0811655629139073	-0.516238410596026	-24.3396026490066	-18.3223841059603	-16.714701986755			
103	2280	0.807841059602649	-0.0932450331125828	-0.311523178807947	7.87337748344371	96.1753642384106	9.73509933774834				0.496953642384106	0.0797880794701987	0.0131390728476822	7.99390728476821	-43.9321854304636	-12.3459602649007				0.853827814569536	-0.0972715231788079	-0.40794701986755	-12.592582781457	68.1864900662252	5.95973509933775				0.352529801324503	-0.256529801324503	-0.437721854304636	22.0829139072848	-21.3764238410596	39.9843708609272				0.580026490066225	0.00349668874172187	0.133933774834437	-2.8482119205298	-51.4680794701987	8.62251655629139				0.367788079470199	0.0651655629139073	-0.564238410596026	-10.6196026490066	-27.5623841059603	-18.114701986755			
104	2300	0.839841059602649	-0.109245033112583	-0.327523178807947	3.67337748344371	82.7353642384106	11.9750993377483				0.768953642384106	0.0637880794701987	0.0931390728476822	15.5539072847682	-23.7721854304636	-10.9459602649007				0.917827814569536	-0.0172715231788079	-0.40794701986755	4.20741721854305	45.7864900662252	7.63973509933775				0.448529801324503	-0.272529801324503	-0.469721854304636	15.6429139072848	-25.0164238410596	31.8643708609272				0.628026490066225	0.0194966887417219	0.101933774834437	-2.2882119205298	-48.3880794701987	8.34251655629139				0.399788079470199	0.0651655629139073	-0.628238410596026	3.66039735099338	-32.6023841059603	-16.154701986755			
105	2320	0.855841059602649	-0.0612450331125828	-0.327523178807947	12.0733774834437	71.5353642384106	17.8550993377483				0.816953642384106	0.0797880794701987	0.157139072847682	30.9539072847682	-23.4921854304636	-20.1859602649007				0.949827814569536	-0.0332715231788079	-0.42394701986755	-4.75258278145695	27.5864900662252	5.67973509933775				0.544529801324503	-0.336529801324503	-0.501721854304636	12.8429139072848	-25.8564238410596	19.8243708609272				0.756026490066225	0.0354966887417219	0.0699337748344371	2.4717880794702	-33.2680794701987	6.66251655629139				0.447788079470199	0.0971655629139073	-0.692238410596026	10.6603973509934	-26.7223841059603	-17.274701986755			
106	2340	0.935841059602649	-0.0452450331125828	-0.247523178807947	8.43337748344371	66.7753642384106	18.1350993377483				0.928953642384106	-0.0162119205298013	0.109139072847682	24.5139072847682	-31.0521854304636	-23.2659602649007				0.965827814569536	-0.0332715231788079	-0.42394701986755	-3.35258278145695	21.7064900662252	5.67973509933775				0.592529801324503	-0.400529801324503	-0.549721854304636	15.0829139072848	-23.0564238410596	11.9843708609272				0.868026490066225	0.0514966887417219	0.101933774834437	6.9517880794702	-24.5880794701987	4.98251655629139				0.495788079470199	0.145165562913907	-0.756238410596026	15.9803973509934	-28.6823841059603	-22.874701986755			
107	2360	0.999841059602649	0.00275496688741723	-0.247523178807947	-0.246622516556291	52.7753642384106	12.2550993377483				0.992953642384106	-0.0482119205298013	0.125139072847682	-15.2460927152318	-13.6921854304636	-18.2259602649007				0.917827814569536	-0.0172715231788079	-0.31194701986755	-15.112582781457	19.4664900662252	5.39973509933775				0.608529801324503	-0.448529801324503	-0.613721854304636	13.6829139072848	-21.0964238410596	11.4243708609272				0.932026490066225	0.0674966887417219	0.117933774834437	9.1917880794702	-17.8680794701987	4.42251655629139				0.511788079470199	0.177165562913907	-0.756238410596026	19.0603973509934	-30.6423841059603	-33.794701986755			
108	2380	1.01584105960265	0.0507549668874172	-0.183523178807947	2.55337748344371	52.2153642384106	1.89509933774834				1.07295364238411	0.0477880794701987	0.109139072847682	-42.4060927152318	3.10781456953642	-12.9059602649007				0.885827814569536	0.0147284768211921	-0.26394701986755	-24.352582781457	20.5864900662252	2.31973509933775				0.624529801324503	-0.480529801324503	-0.677721854304636	10.0429139072848	-22.2164238410596	13.1043708609272				0.964026490066225	0.0674966887417219	0.101933774834437	10.8717880794702	-14.5080794701987	2.18251655629139				0.543788079470199	0.113165562913907	-0.740238410596026	26.0603973509934	-28.1223841059603	-37.154701986755			
109	2400	1.01584105960265	-0.0132450331125828	-0.183523178807947	7.03337748344371	47.1753642384106	-1.46490066225166				1.02495364238411	0.143788079470199	0.0291390728476822	-35.1260927152318	-5.57218543046358	-11.5059602649007				0.901827814569536	0.0467284768211921	-0.16794701986755	-28.552582781457	16.9464900662252	0.91973509933775				0.624529801324503	-0.480529801324503	-0.709721854304636	0.802913907284768	-20.5364238410596	11.4243708609272				1.02802649006623	0.0674966887417219	0.0859337748344371	9.4717880794702	-12.5480794701987	0.782516556291392				0.591788079470199	0.0171655629139073	-0.740238410596026	24.3803973509934	-24.2023841059603	-30.714701986755			
110	2420	0.919841059602649	-0.0452450331125828	-0.119523178807947	8.15337748344371	47.7353642384106	-4.26490066225166				0.928953642384106	0.127788079470199	-0.0188609271523178	-15.5260927152318	-18.4521854304636	-7.30596026490066				0.933827814569536	0.0787284768211921	-0.18394701986755	-16.512582781457	21.4264900662252	0.91973509933775				0.544529801324503	-0.432529801324503	-0.709721854304636	6.12291390728477	-15.7764238410596	6.94437086092715				0.996026490066225	0.0514966887417219	0.0699337748344371	7.5117880794702	-12.2680794701987	-0.337483443708608				0.575788079470199	-0.0308344370860927	-0.724238410596026	18.7803973509934	-18.0423841059603	-20.914701986755			
111	2440	0.919841059602649	-0.0932450331125828	-0.039523178807947	14.8733774834437	48.5753642384106	-3.42490066225166				0.896953642384106	0.0957880794701987	-0.0188609271523178	-16.3660927152318	-9.49218543046358	-2.82596026490066				0.949827814569536	0.0147284768211921	-0.23194701986755	-9.51258278145695	20.3064900662252	1.75973509933775				0.496529801324503	-0.384529801324503	-0.645721854304636	-4.23708609271523	-17.1764238410596	-0.0556291390728476				0.916026490066225	0.0354966887417219	0.0539337748344371	-0.888211920529802	-15.0680794701987	0.782516556291392				0.511788079470199	-0.0308344370860927	-0.644238410596026	6.74039735099338	-10.7623841059603	-16.714701986755			
112	2460	0.967841059602649	-0.0772450331125828	-0.00752317880794696	0.873377483443709	45.7753642384106	-3.14490066225166				0.928953642384106	0.111788079470199	0.0291390728476822	-6.56609271523179	9.26781456953642	4.45403973509934				0.965827814569536	-0.0172715231788079	-0.19994701986755	-8.95258278145695	16.1064900662252	3.99973509933775				0.464529801324503	-0.352529801324503	-0.597721854304636	-7.87708609271523	-18.5764238410596	-2.29562913907285				0.868026490066225	0.0354966887417219	0.101933774834437	-2.5682119205298	-13.6680794701987	1.34251655629139				0.495788079470199	0.00116556291390731	-0.644238410596026	-8.09960264900662	-2.92238410596027	-13.634701986755			
113	2480	0.999841059602649	-0.0452450331125828	0.072476821192053	-4.44662251655629	36.5353642384106	-2.02490066225166				0.960953642384106	0.159788079470199	0.0771390728476822	-5.44609271523179	19.0678145695364	4.45403973509934				0.933827814569536	-0.0652715231788079	-0.19994701986755	-4.19258278145695	15.2664900662252	4.55973509933775				0.448529801324503	-0.336529801324503	-0.581721854304636	-6.47708609271523	-16.8964238410596	-0.895629139072848				0.868026490066225	0.0514966887417219	0.101933774834437	-6.2082119205298	-11.7080794701987	1.34251655629139				0.527788079470199	0.0171655629139073	-0.708238410596026	-3.89960264900662	-1.24238410596026	-5.23470198675497			
114	2500	0.983841059602649	0.0507549668874172	0.024476821192053	-3.32662251655629	26.7353642384106	-0.344900662251656				0.896953642384106	0.175788079470199	0.0291390728476822	-2.92609271523179	8.70781456953642	1.37403973509934				0.981827814569536	-0.0332715231788079	-0.16794701986755	-1.11258278145695	15.8264900662252	4.83973509933775				0.528529801324503	-0.384529801324503	-0.597721854304636	-4.79708609271523	-10.1764238410596	3.86437086092715				0.884026490066225	0.0834966887417219	0.117933774834437	-8.7282119205298	-8.90807947019868	0.222516556291392				0.575788079470199	0.0331655629139073	-0.772238410596026	3.38039735099338	0.717615894039735	0.0852980132450323			
115	2520	0.951841059602649	0.0347549668874172	0.040476821192053	5.63337748344371	17.7753642384106	1.61509933774834				0.976953642384106	0.111788079470199	0.109139072847682	4.07390728476821	4.78781456953642	3.61403973509934				0.933827814569536	-0.0172715231788079	-0.18394701986755	0.00741721854304636	11.0664900662252	4.55973509933775				0.576529801324503	-0.448529801324503	-0.629721854304636	-1.71708609271523	-1.7764238410596	7.22437086092715				0.916026490066225	0.0674966887417219	0.0859337748344371	-6.4882119205298	-2.46807947019868	1.90251655629139				0.591788079470199	0.0811655629139073	-0.804238410596027	8.14039735099338	4.07761589403974	0.645298013245032			
116	2540	1.01584105960265	-0.0292450331125828	0.024476821192053	8.43337748344371	13.8553642384106	1.33509933774834				0.992953642384106	0.0637880794701987	0.0771390728476822	5.19390728476821	5.34781456953642	5.01403973509934				0.949827814569536	0.0147284768211921	-0.18394701986755	3.92741721854305	11.0664900662252	5.39973509933775				0.592529801324503	-0.464529801324503	-0.629721854304636	-5.91708609271523	4.9435761589404	11.4243708609272				0.964026490066225	0.0514966887417219	0.101933774834437	-6.4882119205298	5.65192052980133	1.90251655629139				0.591788079470199	0.0811655629139073	-0.788238410596027	15.7003973509934	-0.122384105960265	-2.43470198675497			
117	2560	0.983841059602649	-0.0292450331125828	-0.00752317880794696	10.6733774834437	13.8553642384106	0.215099337748344				0.992953642384106	0.0317880794701987	0.0931390728476822	-3.48609271523179	4.50781456953642	5.29403973509934				0.949827814569536	0.0307284768211921	-0.19994701986755	5.88741721854305	10.7864900662252	5.67973509933775				0.624529801324503	-0.416529801324503	-0.629721854304636	-2.27708609271523	8.5835761589404	16.4643708609272				0.980026490066225	0.0514966887417219	0.117933774834437	-4.5282119205298	6.21192052980133	2.18251655629139				0.559788079470199	0.0171655629139073	-0.788238410596027	14.0203973509934	-4.32238410596027	0.365298013245032			
118	2580	0.967841059602649	-0.0612450331125828	-0.023523178807947	9.83337748344371	16.0953642384106	-2.02490066225166				0.944953642384106	0.0637880794701987	0.0291390728476822	-1.52609271523179	-0.532185430463576	3.89403973509934				0.949827814569536	-0.0172715231788079	-0.19994701986755	-0.272582781456954	7.70649006622517	4.55973509933775				0.592529801324503	-0.368529801324503	-0.613721854304636	3.04291390728477	8.3035761589404	14.7843708609272				0.964026490066225	0.0354966887417219	0.117933774834437	-6.4882119205298	1.45192052980132	3.02251655629139				0.543788079470199	-0.0308344370860927	-0.772238410596026	8.14039735099338	-6.28238410596027	5.12529801324503			
119	2600	0.967841059602649	-0.0772450331125828	0.00847682119205304	0.873377483443709	13.0153642384106	-3.42490066225166				0.944953642384106	0.0637880794701987	-0.00286092715231785	2.67390728476821	-1.09218543046358	5.29403973509934				0.949827814569536	-0.0332715231788079	-0.19994701986755	0.00741721854304636	2.38649006622517	2.59973509933775				0.576529801324503	-0.368529801324503	-0.597721854304636	-2.27708609271523	4.1035761589404	10.0243708609272				0.916026490066225	0.0354966887417219	0.117933774834437	-5.0882119205298	0.611920529801325	4.14251655629139				0.527788079470199	-0.0308344370860927	-0.772238410596026	5.62039735099338	-5.72238410596027	12.685298013245			
120	2620	0.935841059602649	-0.0292450331125828	-0.00752317880794696	-5.56662251655629	9.3753642384106	-1.74490066225166				0.944953642384106	0.0637880794701987	0.0451390728476822	1.27390728476821	1.42781456953642	4.17403973509934				0.949827814569536	-0.0172715231788079	-0.19994701986755	2.80741721854305	-0.693509933774834	0.63973509933775				0.560529801324503	-0.384529801324503	-0.597721854304636	-5.07708609271523	-0.0964238410596001	5.82437086092715				0.916026490066225	0.00349668874172187	0.133933774834437	-1.7282119205298	3.41192052980132	4.70251655629139				0.511788079470199	-0.0148344370860927	-0.724238410596026	1.98039735099338	-7.12238410596027	15.765298013245			
121	2640	0.999841059602649	-0.0452450331125828	-0.039523178807947	-6.68662251655629	6.2953642384106	-2.02490066225166				0.976953642384106	0.0477880794701987	0.0611390728476822	-2.64609271523179	3.10781456953642	2.49403973509934				0.949827814569536	-0.00127152317880793	-0.19994701986755	0.847417218543046	-2.09350993377483	-0.76026490066225				0.560529801324503	-0.400529801324503	-0.597721854304636	-7.59708609271523	-1.7764238410596	3.86437086092715				0.932026490066225	0.00349668874172187	0.133933774834437	-0.328211920529802	3.97192052980133	4.14251655629139				0.527788079470199	0.00116556291390731	-0.708238410596026	5.62039735099338	-3.76238410596027	15.765298013245			
122	2660	0.999841059602649	-0.0132450331125828	-0.055523178807947	-8.36662251655629	3.4953642384106	-1.18490066225166				0.976953642384106	0.0957880794701987	0.0451390728476822	-8.80609271523179	2.82781456953642	-0.585960264900661				0.917827814569536	-0.0172715231788079	-0.23194701986755	-2.79258278145695	-4.05350993377483	-1.32026490066225				0.576529801324503	-0.432529801324503	-0.597721854304636	-1.43708609271523	1.8635761589404	1.06437086092715				0.964026490066225	0.00349668874172187	0.117933774834437	-2.5682119205298	2.57192052980133	2.18251655629139				0.559788079470199	0.00116556291390731	-0.724238410596026	9.26039735099338	-0.682384105960265	16.045298013245			
123	2680	0.983841059602649	-0.0132450331125828	-0.071523178807947	-4.44662251655629	3.2153642384106	-1.46490066225166				1.02495364238411	0.159788079470199	-0.0188609271523178	-6.00609271523179	-2.21218543046358	-0.585960264900661				0.901827814569536	-0.00127152317880793	-0.23194701986755	-2.79258278145695	-1.81350993377483	0.91973509933775				0.560529801324503	-0.432529801324503	-0.613721854304636	2.48291390728477	7.4635761589404	-2.29562913907285				0.964026490066225	0.0194966887417219	0.117933774834437	-5.3682119205298	-0.228079470198675	0.782516556291392				0.575788079470199	-0.0468344370860927	-0.740238410596026	8.98039735099338	2.39761589403974	15.485298013245			
124	2700	0.983841059602649	0.00275496688741723	-0.071523178807947	-5.84662251655629	3.2153642384106	-2.58490066225166				1.02495364238411	0.111788079470199	-0.0508609271523178	-1.52609271523179	-12.0121854304636	0.25403973509934				0.949827814569536	0.0307284768211921	-0.24794701986755	-6.15258278145695	1.82649006622517	2.59973509933775				0.560529801324503	-0.432529801324503	-0.629721854304636	5.84291390728477	14.4635761589404	-0.895629139072848				0.964026490066225	0.0354966887417219	0.149933774834437	-5.9282119205298	4.25192052980133	1.34251655629139				0.559788079470199	-0.0308344370860927	-0.740238410596026	2.26039735099338	7.43761589403974	12.405298013245			
125	2720	0.999841059602649	0.00275496688741723	-0.087523178807947	-5.00662251655629	2.3753642384106	-3.14490066225166				1.02495364238411	0.0797880794701987	-0.0508609271523178	0.993907284768212	-11.4521854304636	0.25403973509934				0.949827814569536	0.0147284768211921	-0.26394701986755	-4.19258278145695	2.38649006622517	2.59973509933775				0.576529801324503	-0.464529801324503	-0.629721854304636	8.64291390728477	17.8235761589404	4.14437086092715				0.964026490066225	0.00349668874172187	0.0859337748344371	-7.0482119205298	-1.90807947019868	1.62251655629139				0.559788079470199	0.0171655629139073	-0.756238410596026	-5.01960264900662	10.5176158940397	7.08529801324503			
126	2740	0.951841059602649	0.0507549668874172	-0.167523178807947	-1.64662251655629	-0.424635761589404	-1.18490066225166				0.928953642384106	0.175788079470199	-0.162860927152318	2.95390728476821	-0.532185430463576	0.53403973509934				0.885827814569536	0.0947284768211921	-0.32794701986755	-2.51258278145695	0.706490066225167	-0.76026490066225				0.592529801324503	-0.448529801324503	-0.645721854304636	8.92291390728477	15.3035761589404	4.70437086092715				0.964026490066225	0.0194966887417219	0.117933774834437	-11.2482119205298	3.69192052980133	-0.897483443708608				0.543788079470199	0.0171655629139073	-0.772238410596026	-10.3396026490066	12.7576158940397	5.12529801324503			
127	2760	0.967841059602649	-0.0132450331125828	-0.023523178807947	-0.806622516556291	-2.3846357615894	-0.344900662251656				0.976953642384106	0.0957880794701987	0.0291390728476822	-0.126092715231788	1.70781456953642	0.25403973509934				0.901827814569536	0.0147284768211921	-0.27994701986755	-5.03258278145695	4.62649006622517	2.59973509933775				0.608529801324503	-0.432529801324503	-0.677721854304636	2.20291390728477	10.5435761589404	3.02437086092715				0.980026490066225	0.0354966887417219	0.101933774834437	-11.8082119205298	3.41192052980132	-1.17748344370861				0.543788079470199	0.0171655629139073	-0.788238410596027	-9.77960264900662	9.95761589403974	5.40529801324503			
128	2780	0.967841059602649	-0.0292450331125828	-0.023523178807947	3.95337748344371	-1.8246357615894	-0.344900662251656				0.976953642384106	0.0637880794701987	0.0131390728476822	-2.64609271523179	-4.45218543046358	-1.70596026490066				0.917827814569536	0.0307284768211921	-0.27994701986755	-6.99258278145695	4.62649006622517	2.87973509933775				0.640529801324503	-0.432529801324503	-0.645721854304636	-2.27708609271523	6.9035761589404	2.46437086092715				0.980026490066225	0.0514966887417219	0.101933774834437	-7.3282119205298	1.45192052980132	-0.897483443708608				0.543788079470199	0.0331655629139073	-0.788238410596027	-7.25960264900662	9.39761589403974	2.32529801324503			
129	2800	0.967841059602649	-0.0292450331125828	-0.023523178807947	2.83337748344371	-1.5446357615894	-1.18490066225166				1.00895364238411	0.111788079470199	-0.0188609271523178	-3.76609271523179	-10.8921854304636	-3.94596026490066				0.949827814569536	0.0147284768211921	-0.26394701986755	-5.31258278145695	0.986490066225167	0.63973509933775				0.624529801324503	-0.448529801324503	-0.629721854304636	-3.67708609271523	2.4235761589404	1.06437086092715				0.964026490066225	0.0514966887417219	0.0859337748344371	-3.6882119205298	0.0519205298013249	-2.01748344370861				0.559788079470199	0.0331655629139073	-0.804238410596027	-7.25960264900662	8.27761589403974	-0.754701986754968			
130	2820	0.983841059602649	-0.0452450331125828	-0.00752317880794696	-6.96662251655629	0.975364238410596	-0.624900662251656				1.00895364238411	0.143788079470199	-0.0348609271523178	-6.56609271523179	-4.73218543046358	-0.30596026490066				0.949827814569536	0.0307284768211921	-0.27994701986755	0.567417218543046	0.986490066225167	-0.48026490066225				0.608529801324503	-0.448529801324503	-0.629721854304636	-5.91708609271523	-1.2164238410596	2.18437086092715				0.980026490066225	0.0514966887417219	0.0699337748344371	-6.2082119205298	-0.228079470198675	-2.29748344370861				0.527788079470199	0.0331655629139073	-0.820238410596026	-3.61960264900662	2.11761589403974	-2.15470198675497			
131	2840	0.983841059602649	0.0187549668874172	-0.023523178807947	-8.36662251655629	-0.704635761589404	-1.46490066225166				0.976953642384106	0.127788079470199	-0.0348609271523178	-7.68609271523179	-1.65218543046358	0.81403973509934				0.917827814569536	0.0307284768211921	-0.27994701986755	-1.67258278145695	-1.81350993377483	-1.04026490066225				0.608529801324503	-0.448529801324503	-0.629721854304636	-5.91708609271523	-2.3364238410596	6.10437086092715				0.964026490066225	0.0354966887417219	0.0859337748344371	-2.0082119205298	-0.508079470198675	-1.73748344370861				0.527788079470199	0.0491655629139073	-0.820238410596026	-2.77960264900662	-2.08238410596027	-3.27470198675497			
132	2860	0.983841059602649	0.0347549668874172	-0.039523178807947	-0.526622516556291	-0.704635761589404	-2.02490066225166				0.976953642384106	0.0957880794701987	-0.0668609271523178	0.713907284768212	-5.01218543046358	1.65403973509934				0.933827814569536	0.0307284768211921	-0.26394701986755	-3.63258278145695	-1.25350993377483	-1.32026490066225				0.592529801324503	-0.448529801324503	-0.645721854304636	-2.83708609271523	-0.9364238410596	8.06437086092715				0.948026490066225	0.0194966887417219	0.0699337748344371	1.0717880794702	-0.228079470198675	-1.73748344370861				0.543788079470199	0.0171655629139073	-0.804238410596027	-0.539602649006623	-4.60238410596027	-3.55470198675497			
133	2880	0.967841059602649	0.0347549668874172	-0.00752317880794696	2.55337748344371	-1.8246357615894	-1.46490066225166				0.976953642384106	0.127788079470199	-0.0348609271523178	2.11390728476821	-3.61218543046358	-0.585960264900661				0.917827814569536	0.0147284768211921	-0.26394701986755	-2.79258278145695	-2.65350993377483	-0.76026490066225				0.576529801324503	-0.432529801324503	-0.629721854304636	-5.35708609271523	-2.8964238410596	5.54437086092715				0.964026490066225	0.0194966887417219	0.0859337748344371	2.1917880794702	1.17192052980133	-1.45748344370861				0.543788079470199	-0.0148344370860927	-0.804238410596027	2.54039735099338	-7.96238410596027	-2.15470198675497			
134	2900	0.967841059602649	0.00275496688741723	0.024476821192053	1.43337748344371	-0.984635761589404	-1.18490066225166				0.976953642384106	0.127788079470199	-0.0188609271523178	4.91390728476821	-1.93218543046358	-0.585960264900661				0.917827814569536	0.0307284768211921	-0.27994701986755	-1.11258278145695	-6.01350993377483	0.35973509933775				0.560529801324503	-0.416529801324503	-0.645721854304636	-2.83708609271523	-2.8964238410596	2.74437086092715				0.980026490066225	0.0194966887417219	0.0699337748344371	0.511788079470198	0.331920529801325	-2.29748344370861				0.511788079470199	0.00116556291390731	-0.772238410596026	-1.09960264900662	-8.24238410596027	-0.474701986754968			
135	2920	0.983841059602649	-0.0292450331125828	-0.023523178807947	5.63337748344371	-0.984635761589404	-0.624900662251656				0.992953642384106	0.111788079470199	-0.0188609271523178	7.15390728476821	-1.37218543046358	-0.0259602649006601				0.933827814569536	0.0307284768211921	-0.27994701986755	3.08741721854305	-2.37350993377483	1.47973509933775				0.560529801324503	-0.432529801324503	-0.629721854304636	-0.317086092715232	-3.1764238410596	0.224370860927152				0.964026490066225	0.0194966887417219	0.101933774834437	-0.0482119205298018	-1.06807947019868	-3.41748344370861				0.511788079470199	0.0491655629139073	-0.788238410596027	-2.21960264900662	-6.84238410596027	-2.15470198675497			
136	2940	0.967841059602649	-0.0132450331125828	-0.023523178807947	7.87337748344371	-0.144635761589404	-1.74490066225166				0.944953642384106	0.111788079470199	-0.0668609271523178	6.59390728476821	-2.77218543046358	-3.38596026490066				0.917827814569536	0.0147284768211921	-0.26394701986755	5.60741721854305	-0.133509933774833	-0.76026490066225				0.576529801324503	-0.432529801324503	-0.629721854304636	-0.877086092715232	-3.1764238410596	-1.45562913907285				0.948026490066225	0.0354966887417219	0.0859337748344371	1.9117880794702	0.0519205298013249	-2.01748344370861				0.511788079470199	0.0491655629139073	-0.804238410596027	3.94039735099338	-7.40238410596027	-5.23470198675497			
137	2960	0.967841059602649	-0.0132450331125828	-0.039523178807947	5.35337748344371	0.415364238410596	-0.904900662251656				0.976953642384106	0.127788079470199	-0.0828609271523179	6.03390728476821	-1.37218543046358	-3.94596026490066				0.917827814569536	0.0307284768211921	-0.26394701986755	1.68741721854305	-0.133509933774833	-0.48026490066225				0.592529801324503	-0.448529801324503	-0.645721854304636	-1.43708609271523	-3.7364238410596	-2.29562913907285				0.964026490066225	0.0354966887417219	0.0539337748344371	2.7517880794702	-2.46807947019868	-2.29748344370861				0.527788079470199	0.0171655629139073	-0.788238410596027	8.42039735099338	-7.40238410596027	-5.79470198675497			
138	2980	0.951841059602649	-0.0132450331125828	-0.00752317880794696	2.55337748344371	-0.424635761589404	-0.904900662251656				0	0	0	0	0	0				0	0	0	0	0	0				0	0	0	0	0	0				0	0	0	0	0	0				0	0	0	0	0	0			
