No	Time	12-AccX	12-AccY	12-AccZ	12-GyroX	12-GyroY	12-GyroZ	13-AccX	13-AccY	13-AccZ	13-GyroX	13-GyroY	13-GyroZ	14-AccX	14-AccY	14-AccZ	14-GyroX	14-GyroY	14-GyroZ	15-AccX	15-AccY	15-AccZ	15-GyroX	15-GyroY	15-GyroZ	16-AccX	16-AccY	16-AccZ	16-GyroX	16-GyroY	16-GyroZ	17-AccX	17-AccY	17-AccZ	17-GyroX	17-GyroY	17-GyroZ
0	120	0	0	0	0	0	0				0	0	0	0	0	0				-0.202172185430464	0.0147284768211921	-0.88794701986755	-1.39258278145695	0.146490066225167	0.35973509933775				0.576529801324503	-0.288529801324503	-0.709721854304636	0.802913907284768	0.4635761589404	1.62437086092715				0.964026490066225	0.0834966887417219	0.133933774834437	0.511788079470198	-0.228079470198675	-0.337483443708608				0.511788079470199	-0.0308344370860927	-0.804238410596027	0.0203973509933773	0.717615894039735	-0.194701986754968			
1	140	-0.184158940397351	0.130754966887417	-0.951523178807947	0.313377483443709	0.135364238410596	-2.30490066225166				0.944953642384106	0.175788079470199	0.237139072847682	0.713907284768212	-1.09218543046358	1.09403973509934				-0.218172185430464	0.0307284768211921	-0.90394701986755	-0.832582781456954	0.426490066225167	-0.48026490066225				0.576529801324503	-0.304529801324503	-0.709721854304636	-0.317086092715232	-0.3764238410596	1.90437086092715				0.964026490066225	0.0834966887417219	0.149933774834437	1.0717880794702	0.0519205298013249	0.782516556291392				0.511788079470199	-0.0468344370860927	-0.804238410596027	1.70039735099338	-0.122384105960265	-0.754701986754968			
2	160	-0.184158940397351	0.146754966887417	-0.951523178807947	-0.526622516556291	1.2553642384106	-1.46490066225166				0.976953642384106	0.191788079470199	0.237139072847682	0.993907284768212	-0.812185430463576	0.25403973509934				-0.202172185430464	0.0147284768211921	-0.90394701986755	0.287417218543046	0.706490066225167	-0.76026490066225				0.576529801324503	-0.288529801324503	-0.709721854304636	-0.877086092715232	-0.6564238410596	1.06437086092715				0.948026490066225	0.0834966887417219	0.133933774834437	2.1917880794702	0.891920529801325	1.06251655629139				0.511788079470199	-0.0468344370860927	-0.788238410596027	2.26039735099338	-0.962384105960265	0.0852980132450323			
3	180	-0.200158940397351	0.146754966887417	-0.935523178807947	-0.806622516556291	0.135364238410596	-0.344900662251656				0.976953642384106	0.191788079470199	0.253139072847682	1.83390728476821	-0.812185430463576	0.53403973509934				-0.202172185430464	0.0147284768211921	-0.90394701986755	0.287417218543046	-0.413509933774833	-0.20026490066225				0.592529801324503	-0.288529801324503	-0.709721854304636	0.522913907284768	-0.6564238410596	0.504370860927152				0.948026490066225	0.0834966887417219	0.133933774834437	2.4717880794702	0.331920529801325	0.222516556291392				0.511788079470199	-0.0468344370860927	-0.788238410596027	0.860397350993377	-0.402384105960265	-0.474701986754968			
4	200	-0.184158940397351	0.130754966887417	-0.935523178807947	0.873377483443709	-0.424635761589404	-0.624900662251656				0.944953642384106	0.175788079470199	0.253139072847682	2.67390728476821	-2.77218543046358	0.25403973509934				-0.202172185430464	0.0147284768211921	-0.88794701986755	0.00741721854304636	0.426490066225167	0.0797350993377501				0.576529801324503	-0.288529801324503	-0.709721854304636	0.242913907284768	0.1835761589404	1.06437086092715				0.964026490066225	0.0834966887417219	0.149933774834437	2.1917880794702	2.57192052980133	-0.617483443708608				0.511788079470199	-0.0308344370860927	-0.804238410596027	0.300397350993377	0.997615894039735	-0.754701986754968			
5	220	-0.200158940397351	0.146754966887417	-0.951523178807947	0.313377483443709	-0.144635761589404	-0.624900662251656				0.944953642384106	0.175788079470199	0.253139072847682	2.67390728476821	-2.49218543046358	0.25403973509934				-0.218172185430464	-0.00127152317880793	-0.90394701986755	0.287417218543046	0.146490066225167	-1.04026490066225				0.576529801324503	-0.304529801324503	-0.709721854304636	1.08291390728477	0.4635761589404	0.504370860927152				0.948026490066225	0.0834966887417219	0.133933774834437	-0.0482119205298018	2.85192052980133	-0.897483443708608				0.511788079470199	-0.0308344370860927	-0.788238410596027	1.42039735099338	0.157615894039735	-1.31470198675497			
6	240	-0.200158940397351	0.146754966887417	-0.951523178807947	0.313377483443709	0.135364238410596	-0.624900662251656				0.960953642384106	0.191788079470199	0.221139072847682	1.55390728476821	-1.93218543046358	0.25403973509934				-0.218172185430464	0.0147284768211921	-0.90394701986755	-1.11258278145695	-0.413509933774833	-0.76026490066225				0.592529801324503	-0.288529801324503	-0.725721854304636	-0.597086092715232	-0.6564238410596	0.224370860927152				0.948026490066225	0.0834966887417219	0.133933774834437	2.4717880794702	2.57192052980133	-0.617483443708608				0.511788079470199	-0.0468344370860927	-0.788238410596027	2.26039735099338	-1.24238410596026	-1.31470198675497			
7	260	-0.184158940397351	0.146754966887417	-0.935523178807947	0.593377483443709	0.415364238410596	-1.18490066225166				0.960953642384106	0.191788079470199	0.221139072847682	-0.126092715231788	0.0278145695364242	1.09403973509934				-0.218172185430464	0.0147284768211921	-0.88794701986755	-1.39258278145695	0.706490066225167	-0.48026490066225				0.576529801324503	-0.288529801324503	-0.725721854304636	0.802913907284768	0.7435761589404	0.504370860927152				0.948026490066225	0.0674966887417219	0.165933774834437	-2.5682119205298	3.41192052980132	-1.17748344370861				0.511788079470199	-0.0468344370860927	-0.788238410596027	0.860397350993377	-0.962384105960265	-2.15470198675497			
8	280	-0.184158940397351	0.130754966887417	-0.935523178807947	0.593377483443709	0.695364238410596	-1.74490066225166				0.976953642384106	0.175788079470199	0.253139072847682	-0.406092715231788	-1.09218543046358	0.81403973509934				-0.202172185430464	0.0147284768211921	-0.88794701986755	-0.272582781456954	1.54649006622517	0.0797350993377501				0.576529801324503	-0.304529801324503	-0.725721854304636	0.242913907284768	1.3035761589404	-0.0556291390728476				0.980026490066225	0.0834966887417219	0.149933774834437	2.4717880794702	2.29192052980133	-0.897483443708608				0.511788079470199	-0.0468344370860927	-0.788238410596027	-0.819602649006623	0.997615894039735	-1.87470198675497			
9	300	-0.184158940397351	0.130754966887417	-0.935523178807947	0.313377483443709	-0.144635761589404	-0.904900662251656				0.976953642384106	0.175788079470199	0.253139072847682	3.51390728476821	-6.41218543046358	0.53403973509934				-0.202172185430464	0.0147284768211921	-0.88794701986755	0.287417218543046	0.706490066225167	-0.20026490066225				0.576529801324503	-0.288529801324503	-0.709721854304636	-1.71708609271523	0.1835761589404	-0.0556291390728476				0.980026490066225	0.0834966887417219	0.117933774834437	1.9117880794702	0.0519205298013249	-0.617483443708608				0.527788079470199	-0.0308344370860927	-0.820238410596026	-0.819602649006623	2.39761589403974	-2.71470198675497			
10	320	-0.184158940397351	0.146754966887417	-0.935523178807947	0.0333774834437086	0.135364238410596	-0.904900662251656				0.960953642384106	0.191788079470199	0.221139072847682	4.07390728476821	-6.41218543046358	0.25403973509934				-0.202172185430464	0.0307284768211921	-0.90394701986755	1.40741721854305	0.146490066225167	-0.20026490066225				0.576529801324503	-0.288529801324503	-0.709721854304636	-0.597086092715232	-1.4964238410596	-0.895629139072848				0.964026490066225	0.0834966887417219	0.149933774834437	-0.328211920529802	0.331920529801325	0.782516556291392				0.511788079470199	-0.0468344370860927	-0.804238410596027	1.14039735099338	1.55761589403974	-2.99470198675497			
11	340	-0.200158940397351	0.130754966887417	-0.951523178807947	0.873377483443709	0.415364238410596	-2.02490066225166				0.960953642384106	0.191788079470199	0.205139072847682	2.39390728476821	-4.17218543046358	0.25403973509934				-0.218172185430464	0.0147284768211921	-0.90394701986755	1.96741721854305	0.986490066225167	-0.20026490066225				0.592529801324503	-0.288529801324503	-0.709721854304636	1.36291390728477	-1.2164238410596	-0.335629139072848				0.964026490066225	0.0834966887417219	0.149933774834437	2.4717880794702	0.611920529801325	-0.0574834437086077				0.511788079470199	-0.0468344370860927	-0.804238410596027	1.70039735099338	0.157615894039735	-2.15470198675497			
12	360	-0.184158940397351	0.146754966887417	-0.951523178807947	-0.246622516556291	1.2553642384106	-1.18490066225166				0.960953642384106	0.191788079470199	0.237139072847682	1.27390728476821	-0.252185430463576	0.81403973509934				-0.202172185430464	0.0147284768211921	-0.88794701986755	0.847417218543046	0.426490066225167	-1.04026490066225				0.592529801324503	-0.288529801324503	-0.725721854304636	0.242913907284768	-1.2164238410596	-1.73562913907285				0.948026490066225	0.0834966887417219	0.149933774834437	2.7517880794702	0.891920529801325	-0.897483443708608				0.527788079470199	-0.0468344370860927	-0.804238410596027	1.70039735099338	-0.962384105960265	-2.15470198675497			
13	380	-0.184158940397351	0.146754966887417	-0.935523178807947	-0.806622516556291	0.415364238410596	-0.904900662251656				0.960953642384106	0.175788079470199	0.253139072847682	1.27390728476821	-3.05218543046358	1.37403973509934				-0.202172185430464	0.0147284768211921	-0.88794701986755	-1.39258278145695	0.146490066225167	-0.48026490066225				0.576529801324503	-0.288529801324503	-0.709721854304636	-1.99708609271523	-0.9364238410596	-2.57562913907285				0.964026490066225	0.0674966887417219	0.133933774834437	1.9117880794702	0.611920529801325	-0.337483443708608				0.527788079470199	-0.0468344370860927	-0.788238410596027	-0.259602649006623	-0.122384105960265	-1.03470198675497			
14	400	-0.184158940397351	0.146754966887417	-0.935523178807947	0.0333774834437086	0.415364238410596	-1.18490066225166				0.960953642384106	0.191788079470199	0.237139072847682	2.67390728476821	-5.01218543046358	1.09403973509934				-0.202172185430464	0.0147284768211921	-0.90394701986755	0.847417218543046	-0.133509933774833	-0.48026490066225				0.576529801324503	-0.288529801324503	-0.709721854304636	-0.0370860927152318	-1.7764238410596	-2.29562913907285				0.948026490066225	0.0834966887417219	0.149933774834437	1.9117880794702	0.891920529801325	-0.617483443708608				0.527788079470199	-0.0468344370860927	-0.788238410596027	-1.37960264900662	0.437615894039735	-1.87470198675497			
15	420	-0.184158940397351	0.146754966887417	-0.951523178807947	1.15337748344371	0.975364238410596	-1.18490066225166				0.960953642384106	0.191788079470199	0.205139072847682	4.07390728476821	-3.05218543046358	0.81403973509934				-0.202172185430464	0.0147284768211921	-0.88794701986755	3.08741721854305	0.146490066225167	-0.48026490066225				0.576529801324503	-0.288529801324503	-0.709721854304636	0.522913907284768	-2.3364238410596	-1.45562913907285				0.948026490066225	0.0834966887417219	0.149933774834437	1.3517880794702	0.0519205298013249	-0.617483443708608				0.527788079470199	-0.0308344370860927	-0.788238410596027	1.98039735099338	-0.402384105960265	-1.31470198675497			
16	440	-0.200158940397351	0.130754966887417	-0.951523178807947	-0.246622516556291	0.135364238410596	-0.624900662251656				0.944953642384106	0.191788079470199	0.205139072847682	3.51390728476821	-0.532185430463576	1.09403973509934				-0.202172185430464	0.0147284768211921	-0.90394701986755	1.96741721854305	0.146490066225167	-0.76026490066225				0.576529801324503	-0.288529801324503	-0.709721854304636	0.802913907284768	-1.7764238410596	-1.73562913907285				0.948026490066225	0.0834966887417219	0.165933774834437	1.9117880794702	1.73192052980133	-0.897483443708608				0.511788079470199	-0.0468344370860927	-0.788238410596027	2.26039735099338	-0.962384105960265	-1.03470198675497			
17	460	-0.184158940397351	0.146754966887417	-0.919523178807947	-0.526622516556291	-0.144635761589404	-0.904900662251656				0.960953642384106	0.175788079470199	0.221139072847682	2.11390728476821	-0.252185430463576	1.09403973509934				-0.202172185430464	-0.00127152317880793	-0.90394701986755	0.00741721854304636	0.706490066225167	-0.48026490066225				0.576529801324503	-0.288529801324503	-0.709721854304636	-1.71708609271523	-1.4964238410596	-0.895629139072848				0.948026490066225	0.0834966887417219	0.149933774834437	1.9117880794702	0.0519205298013249	-0.0574834437086077				0.527788079470199	-0.0468344370860927	-0.772238410596026	0.300397350993377	-0.682384105960265	-0.754701986754968			
18	480	-0.184158940397351	0.130754966887417	-0.935523178807947	0.593377483443709	-0.144635761589404	-1.18490066225166				0.960953642384106	0.175788079470199	0.237139072847682	1.83390728476821	0.307814569536424	1.09403973509934				-0.186172185430464	-0.00127152317880793	-0.88794701986755	0.567417218543046	0.426490066225167	-0.48026490066225				0.560529801324503	-0.288529801324503	-0.709721854304636	-0.317086092715232	-0.3764238410596	-1.45562913907285				0.964026490066225	0.0994966887417219	0.149933774834437	0.231788079470198	2.01192052980133	-0.897483443708608				0.527788079470199	-0.0468344370860927	-0.788238410596027	-0.259602649006623	-0.402384105960265	-1.59470198675497			
19	500	-0.200158940397351	0.146754966887417	-0.935523178807947	1.15337748344371	-0.424635761589404	-0.904900662251656				0.976953642384106	0.191788079470199	0.237139072847682	2.67390728476821	-0.812185430463576	0.81403973509934				-0.202172185430464	-0.00127152317880793	-0.88794701986755	1.40741721854305	-0.133509933774833	-0.48026490066225				0.576529801324503	-0.272529801324503	-0.709721854304636	0.522913907284768	-0.9364238410596	-1.45562913907285				0.948026490066225	0.0834966887417219	0.149933774834437	1.3517880794702	1.17192052980133	-0.0574834437086077				0.511788079470199	-0.0308344370860927	-0.804238410596027	0.0203973509933773	0.157615894039735	-1.87470198675497			
20	520	-0.184158940397351	0.130754966887417	-0.951523178807947	-0.246622516556291	-0.144635761589404	-1.46490066225166				0.960953642384106	0.191788079470199	0.221139072847682	2.39390728476821	-1.09218543046358	1.09403973509934				-0.218172185430464	0.0147284768211921	-0.88794701986755	0.287417218543046	-0.133509933774833	-0.48026490066225				0.576529801324503	-0.288529801324503	-0.709721854304636	0.242913907284768	-0.9364238410596	-1.17562913907285				0.964026490066225	0.0834966887417219	0.149933774834437	2.1917880794702	1.45192052980132	-0.617483443708608				0.511788079470199	-0.0468344370860927	-0.804238410596027	2.82039735099338	0.997615894039735	-2.43470198675497			
21	540	-0.184158940397351	0.162754966887417	-0.951523178807947	-1.08662251655629	0.695364238410596	-0.904900662251656				0.960953642384106	0.175788079470199	0.221139072847682	2.11390728476821	0.587814569536424	0.81403973509934				-0.202172185430464	0.0147284768211921	-0.90394701986755	1.12741721854305	-0.133509933774833	0.0797350993377501				0.576529801324503	-0.288529801324503	-0.709721854304636	-0.0370860927152318	-0.3764238410596	-1.45562913907285				0.964026490066225	0.0834966887417219	0.149933774834437	0.791788079470198	0.611920529801325	-0.337483443708608				0.511788079470199	-0.0628344370860927	-0.788238410596027	1.98039735099338	0.717615894039735	-2.43470198675497			
22	560	-0.168158940397351	0.146754966887417	-0.935523178807947	0.873377483443709	0.695364238410596	-0.0649006622516557				0.960953642384106	0.191788079470199	0.237139072847682	2.67390728476821	-1.09218543046358	-0.30596026490066				-0.202172185430464	-0.00127152317880793	-0.90394701986755	0.847417218543046	0.986490066225167	-0.20026490066225				0.576529801324503	-0.288529801324503	-0.709721854304636	0.802913907284768	1.0235761589404	-1.17562913907285				0.964026490066225	0.0834966887417219	0.149933774834437	-0.608211920529802	0.611920529801325	0.502516556291392				0.527788079470199	-0.0468344370860927	-0.804238410596027	0.0203973509933773	0.717615894039735	-1.31470198675497			
23	580	-0.200158940397351	0.130754966887417	-0.935523178807947	0.593377483443709	-0.424635761589404	-1.18490066225166				0.960953642384106	0.175788079470199	0.237139072847682	4.91390728476821	-4.73218543046358	0.25403973509934				-0.202172185430464	-0.00127152317880793	-0.90394701986755	-0.552582781456954	0.426490066225167	-0.76026490066225				0.576529801324503	-0.288529801324503	-0.709721854304636	1.92291390728477	0.1835761589404	-0.335629139072848				0.964026490066225	0.0834966887417219	0.149933774834437	1.0717880794702	0.0519205298013249	0.222516556291392				0.527788079470199	-0.0468344370860927	-0.804238410596027	0.0203973509933773	1.27761589403974	-1.59470198675497			
24	600	-0.184158940397351	0.130754966887417	-0.951523178807947	0.0333774834437086	0.415364238410596	-1.74490066225166				0.976953642384106	0.191788079470199	0.221139072847682	2.95390728476821	-2.77218543046358	1.09403973509934				-0.218172185430464	-0.00127152317880793	-0.90394701986755	-0.552582781456954	0.146490066225167	-0.48026490066225				0.576529801324503	-0.288529801324503	-0.725721854304636	1.64291390728477	0.4635761589404	-0.615629139072848				0.964026490066225	0.0834966887417219	0.149933774834437	0.231788079470198	-1.34807947019868	-0.337483443708608				0.527788079470199	-0.0468344370860927	-0.804238410596027	0.860397350993377	0.157615894039735	-1.87470198675497			
25	620	-0.184158940397351	0.146754966887417	-0.967523178807947	-1.08662251655629	0.415364238410596	-1.18490066225166				0.960953642384106	0.175788079470199	0.221139072847682	0.993907284768212	-1.65218543046358	0.81403973509934				-0.218172185430464	-0.00127152317880793	-0.90394701986755	-0.552582781456954	-0.133509933774833	-0.20026490066225				0.592529801324503	-0.288529801324503	-0.709721854304636	-0.0370860927152318	-0.9364238410596	-1.17562913907285				0.964026490066225	0.0834966887417219	0.149933774834437	0.511788079470198	-1.06807947019868	0.222516556291392				0.527788079470199	-0.0468344370860927	-0.804238410596027	1.70039735099338	-0.682384105960265	-1.31470198675497			
26	640	-0.168158940397351	0.146754966887417	-0.935523178807947	-0.526622516556291	0.415364238410596	-1.46490066225166				0.960953642384106	0.175788079470199	0.205139072847682	2.11390728476821	-2.49218543046358	1.65403973509934				-0.202172185430464	0.0147284768211921	-0.90394701986755	-0.552582781456954	0.706490066225167	0.63973509933775				0.576529801324503	-0.272529801324503	-0.725721854304636	0.242913907284768	-0.6564238410596	0.224370860927152				0.980026490066225	0.0834966887417219	0.149933774834437	1.6317880794702	0.0519205298013249	-0.0574834437086077				0.527788079470199	-0.0468344370860927	-0.804238410596027	-0.259602649006623	-0.962384105960265	-0.194701986754968			
27	660	-0.184158940397351	0.130754966887417	-0.935523178807947	-0.806622516556291	-0.144635761589404	-0.624900662251656				0.960953642384106	0.175788079470199	0.221139072847682	3.23390728476821	-4.17218543046358	1.93403973509934				-0.202172185430464	0.0147284768211921	-0.88794701986755	-0.832582781456954	-0.413509933774833	-0.48026490066225				0.560529801324503	-0.288529801324503	-0.725721854304636	1.08291390728477	-0.3764238410596	-0.0556291390728476				0.964026490066225	0.0834966887417219	0.149933774834437	0.511788079470198	-0.508079470198675	0.502516556291392				0.527788079470199	-0.0468344370860927	-0.804238410596027	-0.259602649006623	-0.402384105960265	-0.194701986754968			
28	680	-0.184158940397351	0.130754966887417	-0.935523178807947	0.313377483443709	0.135364238410596	-0.624900662251656				0.960953642384106	0.175788079470199	0.205139072847682	3.23390728476821	-3.05218543046358	0.81403973509934				-0.202172185430464	-0.00127152317880793	-0.90394701986755	-0.552582781456954	-0.693509933774834	-0.48026490066225				0.560529801324503	-0.288529801324503	-0.709721854304636	-0.0370860927152318	-0.9364238410596	0.504370860927152				0.948026490066225	0.0834966887417219	0.149933774834437	0.791788079470198	-0.508079470198675	0.782516556291392				0.511788079470199	-0.0308344370860927	-0.788238410596027	0.0203973509933773	0.157615894039735	0.365298013245032			
29	700	-0.200158940397351	0.146754966887417	-0.951523178807947	0.313377483443709	0.415364238410596	-1.46490066225166				0.960953642384106	0.191788079470199	0.221139072847682	2.11390728476821	-0.252185430463576	0.53403973509934				-0.218172185430464	0.0147284768211921	-0.88794701986755	-0.832582781456954	0.706490066225167	0.0797350993377501				0.560529801324503	-0.288529801324503	-0.709721854304636	-0.877086092715232	-1.2164238410596	1.06437086092715				0.948026490066225	0.0674966887417219	0.149933774834437	0.511788079470198	-0.508079470198675	0.502516556291392				0.527788079470199	-0.0468344370860927	-0.788238410596027	1.42039735099338	0.157615894039735	0.645298013245032			
30	720	-0.200158940397351	0.146754966887417	-0.951523178807947	-0.246622516556291	0.695364238410596	-0.904900662251656				0.976953642384106	0.191788079470199	0.205139072847682	1.55390728476821	-0.532185430463576	1.09403973509934				-0.218172185430464	0.0147284768211921	-0.88794701986755	-0.552582781456954	0.426490066225167	0.35973509933775				0.560529801324503	-0.288529801324503	-0.709721854304636	0.522913907284768	0.4635761589404	0.504370860927152				0.948026490066225	0.0834966887417219	0.181933774834437	1.3517880794702	2.57192052980133	1.06251655629139				0.527788079470199	-0.0628344370860927	-0.788238410596027	1.14039735099338	-0.962384105960265	1.20529801324503			
31	740	-0.184158940397351	0.146754966887417	-0.935523178807947	0.313377483443709	-0.424635761589404	-0.624900662251656				0.960953642384106	0.175788079470199	0.221139072847682	1.83390728476821	-2.21218543046358	1.09403973509934				-0.202172185430464	0.0147284768211921	-0.88794701986755	-2.23258278145695	0.426490066225167	-0.48026490066225				0.560529801324503	-0.288529801324503	-0.709721854304636	1.36291390728477	1.8635761589404	0.784370860927152				0.964026490066225	0.0674966887417219	0.117933774834437	1.6317880794702	-1.62807947019868	1.06251655629139				0.511788079470199	-0.0468344370860927	-0.788238410596027	0.0203973509933773	-0.682384105960265	0.365298013245032			
32	760	-0.184158940397351	0.146754966887417	-0.935523178807947	-0.246622516556291	-0.424635761589404	-0.904900662251656				0.960953642384106	0.191788079470199	0.221139072847682	4.63390728476821	-4.45218543046358	0.53403973509934				-0.186172185430464	0.0147284768211921	-0.90394701986755	-1.39258278145695	0.146490066225167	0.0797350993377501				0.576529801324503	-0.288529801324503	-0.709721854304636	2.48291390728477	1.8635761589404	0.784370860927152				0.964026490066225	0.0994966887417219	0.165933774834437	-3.9682119205298	1.45192052980132	-0.617483443708608				0.511788079470199	-0.0468344370860927	-0.788238410596027	0.580397350993377	0.437615894039735	-0.194701986754968			
33	780	-0.184158940397351	0.146754966887417	-0.935523178807947	0.0333774834437086	0.695364238410596	-1.18490066225166				0.944953642384106	0.175788079470199	0.173139072847682	4.91390728476821	-1.93218543046358	1.93403973509934				-0.186172185430464	0.0147284768211921	-0.90394701986755	-0.832582781456954	0.706490066225167	0.63973509933775				0.560529801324503	-0.272529801324503	-0.709721854304636	1.64291390728477	2.1435761589404	1.34437086092715				0.948026490066225	0.0834966887417219	0.165933774834437	-3.4082119205298	1.17192052980133	-0.337483443708608				0.511788079470199	-0.0468344370860927	-0.788238410596027	0.860397350993377	-0.122384105960265	0.645298013245032			
34	800	-0.184158940397351	0.130754966887417	-0.951523178807947	-0.526622516556291	0.695364238410596	-0.624900662251656				0.960953642384106	0.191788079470199	0.205139072847682	-0.406092715231788	0.867814569536424	1.09403973509934				-0.202172185430464	-0.00127152317880793	-0.90394701986755	-0.832582781456954	0.706490066225167	0.91973509933775				0.560529801324503	-0.288529801324503	-0.725721854304636	1.64291390728477	2.1435761589404	1.90437086092715				0.948026490066225	0.0834966887417219	0.133933774834437	-1.1682119205298	2.29192052980133	-0.0574834437086077				0.511788079470199	-0.0468344370860927	-0.788238410596027	1.14039735099338	-0.122384105960265	0.0852980132450323			
35	820	-0.184158940397351	0.146754966887417	-0.935523178807947	-1.08662251655629	-0.984635761589404	-1.18490066225166				0.976953642384106	0.175788079470199	0.237139072847682	-0.686092715231788	-2.21218543046358	0.81403973509934				-0.202172185430464	-0.00127152317880793	-0.88794701986755	-3.63258278145695	-0.413509933774833	0.63973509933775				0.576529801324503	-0.304529801324503	-0.693721854304636	0.522913907284768	1.5835761589404	0.504370860927152				0.964026490066225	0.0834966887417219	0.149933774834437	0.231788079470198	0.891920529801325	-0.0574834437086077				0.527788079470199	-0.0468344370860927	-0.804238410596027	-1.93960264900662	-1.24238410596026	0.0852980132450323			
36	840	-0.200158940397351	0.130754966887417	-0.935523178807947	-0.246622516556291	-0.704635761589404	-0.904900662251656				0.944953642384106	0.175788079470199	0.221139072847682	2.11390728476821	-3.05218543046358	1.93403973509934				-0.186172185430464	-0.00127152317880793	-0.88794701986755	-6.71258278145695	-0.693509933774834	1.47973509933775				0.576529801324503	-0.288529801324503	-0.725721854304636	-0.877086092715232	1.5835761589404	0.224370860927152				0.964026490066225	0.0994966887417219	0.149933774834437	-0.888211920529802	2.01192052980133	0.222516556291392				0.527788079470199	-0.0788344370860927	-0.804238410596027	-1.93960264900662	-4.32238410596027	0.925298013245032			
37	860	-0.200158940397351	0.130754966887417	-0.951523178807947	1.71337748344371	0.695364238410596	-0.904900662251656				0.960953642384106	0.191788079470199	0.205139072847682	2.95390728476821	1.42781456953642	1.65403973509934				-0.202172185430464	0.0147284768211921	-0.88794701986755	-9.23258278145695	-0.413509933774833	1.47973509933775				0.560529801324503	-0.304529801324503	-0.709721854304636	0.802913907284768	1.5835761589404	1.06437086092715				0.964026490066225	0.0834966887417219	0.149933774834437	-2.0082119205298	1.73192052980133	-0.337483443708608				0.495788079470199	-0.0628344370860927	-0.788238410596027	-5.29960264900662	-5.16238410596027	3.72529801324503			
38	880	-0.200158940397351	0.130754966887417	-0.967523178807947	1.71337748344371	-0.144635761589404	-0.624900662251656				0.960953642384106	0.175788079470199	0.221139072847682	3.23390728476821	2.82781456953642	2.77403973509934				-0.202172185430464	0.0147284768211921	-0.90394701986755	-9.79258278145695	0.426490066225167	0.91973509933775				0.560529801324503	-0.304529801324503	-0.725721854304636	1.36291390728477	2.1435761589404	2.46437086092715				0.948026490066225	0.0674966887417219	0.149933774834437	-2.0082119205298	1.73192052980133	-0.617483443708608				0.511788079470199	-0.0308344370860927	-0.788238410596027	-7.53960264900662	-4.04238410596027	5.68529801324503			
39	900	-0.184158940397351	0.130754966887417	-0.935523178807947	-1.64662251655629	0.415364238410596	-1.18490066225166				0.960953642384106	0.191788079470199	0.205139072847682	3.23390728476821	0.0278145695364242	4.73403973509934				-0.202172185430464	0.0147284768211921	-0.91994701986755	-9.51258278145695	0.706490066225167	2.03973509933775				0.560529801324503	-0.304529801324503	-0.725721854304636	0.802913907284768	1.8635761589404	3.30437086092715				0.964026490066225	0.0834966887417219	0.133933774834437	-2.8482119205298	3.13192052980133	0.222516556291392				0.527788079470199	-0.0308344370860927	-0.804238410596027	-4.73960264900662	-2.36238410596027	6.24529801324503			
40	920	-0.184158940397351	0.146754966887417	-0.935523178807947	-1.64662251655629	-0.144635761589404	-0.904900662251656				0.960953642384106	0.175788079470199	0.205139072847682	3.51390728476821	-4.45218543046358	4.73403973509934				-0.218172185430464	0.0147284768211921	-0.87194701986755	-10.352582781457	0.706490066225167	1.47973509933775				0.560529801324503	-0.304529801324503	-0.741721854304636	3.60291390728477	0.1835761589404	4.42437086092715				0.964026490066225	0.0674966887417219	0.133933774834437	-2.8482119205298	4.53192052980133	-0.337483443708608				0.527788079470199	-0.0308344370860927	-0.820238410596026	-4.17960264900662	-4.60238410596027	4.00529801324503			
41	940	-0.200158940397351	0.130754966887417	-0.951523178807947	0.593377483443709	-0.704635761589404	-0.904900662251656				0.976953642384106	0.175788079470199	0.173139072847682	2.67390728476821	-3.61218543046358	4.45403973509934				-0.218172185430464	0.0307284768211921	-0.88794701986755	-13.152582781457	0.146490066225167	0.91973509933775				0.544529801324503	-0.320529801324503	-0.757721854304636	4.16291390728477	-2.6164238410596	5.26437086092715				0.964026490066225	0.0674966887417219	0.133933774834437	-4.5282119205298	4.25192052980133	-1.17748344370861				0.511788079470199	-0.0628344370860927	-0.820238410596026	-6.13960264900662	-7.96238410596027	4.28529801324503			
42	1060	0	0	0	0	0	0				0	0	0	0	0	0				0	0	0	0	0	0				0.480529801324503	-0.464529801324503	-0.901721854304636	-3.67708609271523	-21.6564238410596	13.1043708609272				0.964026490066225	0.0514966887417219	0.0859337748344371	-4.8082119205298	15.1719205298013	-0.617483443708608				0.415788079470199	0.0171655629139073	-0.964238410596026	-12.8596026490066	-29.5223841059603	16.605298013245			
43	1080	0	0	0	0	0	0				0	0	0	0	0	0				0	0	0	0	0	0				0.496529801324503	-0.512529801324503	-0.901721854304636	-16.5570860927152	-25.0164238410596	20.3843708609272				1.01202649006623	0.0514966887417219	0.0379337748344371	-6.2082119205298	16.5719205298013	-0.617483443708608				0.463788079470199	0.0171655629139073	-0.996238410596026	-0.539602649006623	-32.8823841059603	20.245298013245			
44	1100	0	0	0	0	0	0				0	0	0	0	0	0				-0.186172185430464	-0.0652715231788079	-1.01594701986755	49.287417218543	-26.7335099337748	-8.32026490066225				0.432529801324503	-0.480529801324503	-0.933721854304636	-31.1170860927152	-37.0564238410596	25.1443708609272				1.01202649006623	0.0194966887417219	0.0219337748344371	-10.4082119205298	19.6519205298013	-2.57748344370861				0.431788079470199	-0.0308344370860927	-0.980238410596026	10.1003973509934	-33.1623841059603	28.085298013245			
45	1120	-0.168158940397351	0.114754966887417	-0.919523178807947	-8.92662251655629	1.5353642384106	8.05509933774835				1.10495364238411	0.207788079470199	-0.00286092715231785	-12.1660927152318	-32.7321854304636	9.77403973509934				-0.234172185430464	-0.193271523178808	-0.95194701986755	80.0874172185431	-55.2935099337748	-1.88026490066225				0.336529801324503	-0.448529801324503	-0.933721854304636	-35.0370860927152	-47.9764238410596	25.4243708609272				1.06002649006623	0.0194966887417219	0.0379337748344371	-14.8882119205298	17.6919205298013	-3.69748344370861				0.351788079470199	-0.0788344370860927	-1.01223841059603	12.6203973509934	-44.9223841059603	35.925298013245			
46	1140	-0.248158940397351	0.130754966887417	-0.919523178807947	-11.4466225165563	0.415364238410596	8.61509933774835				1.04095364238411	0.207788079470199	-0.0668609271523178	-25.0460927152318	-37.7721854304636	11.1740397350993				-0.202172185430464	-0.257271523178808	-0.85594701986755	79.5274172185431	-75.4535099337748	-8.04026490066225				0.384529801324503	-0.528529801324503	-0.981721854304636	-40.6370860927152	-49.0964238410596	27.1043708609272				1.10802649006623	0.0354966887417219	-0.0260662251655629	-21.3282119205298	14.3319205298013	-5.37748344370861				0.367788079470199	-0.0788344370860927	-1.09223841059603	4.50039735099338	-55.0023841059603	42.645298013245			
47	1160	-0.280158940397351	0.130754966887417	-0.935523178807947	-12.2866225165563	1.8153642384106	8.61509933774835				1.05695364238411	0.191788079470199	-0.0348609271523178	-42.9660927152318	-26.2921854304636	8.65403973509934				-0.138172185430464	-0.257271523178808	-0.64794701986755	-24.912582781457	-75.1735099337748	58.5997350993377				0.352529801324503	-0.544529801324503	-0.997721854304636	-50.9970860927152	-53.0164238410596	39.4243708609272				1.09202649006623	0.0514966887417219	-0.0580662251655629	-24.6882119205298	15.1719205298013	-7.33748344370861				0.367788079470199	-0.0148344370860927	-1.14023841059603	-4.73960264900662	-67.0423841059603	53.565298013245			
48	1180	-0.296158940397351	0.0987549668874172	-0.983523178807947	-18.7266225165563	2.0953642384106	10.2950993377483				0.944953642384106	0.159788079470199	-0.130860927152318	-41.5660927152318	-29.3721854304636	10.3340397350993				-0.250172185430464	0.0147284768211921	-0.72794701986755	-39.472582781457	0.146490066225167	24.9997350993378				0.208529801324503	-0.480529801324503	-1.01372185430464	-69.7570860927152	-63.3764238410596	40.8243708609272				1.09202649006623	0.0194966887417219	-0.0740662251655629	-24.4082119205298	17.6919205298013	-3.97748344370861				0.287788079470199	0.0171655629139073	-1.14023841059603	0.860397350993377	-72.0823841059603	61.965298013245			
49	1200	-0.280158940397351	0.0827549668874172	-0.951523178807947	-22.3666225165563	0.415364238410596	8.89509933774834				0.832953642384106	0.175788079470199	-0.178860927152318	-33.1660927152318	-5.29218543046358	16.4940397350993				-0.458172185430464	0.110728476821192	-0.88794701986755	-45.352582781457	-6.57350993377483	30.5997350993378				0.144529801324503	-0.400529801324503	-1.01372185430464	-71.1570860927152	-68.1364238410596	37.4643708609272				1.12402649006623	0.0194966887417219	-0.0580662251655629	-26.0882119205298	18.2519205298013	-1.45748344370861				0.239788079470199	0.0811655629139073	-1.17223841059603	8.98039735099338	-76.8423841059603	60.845298013245			
50	1220	-0.264158940397351	0.178754966887417	-0.951523178807947	-22.3666225165563	-0.144635761589404	6.65509933774834				0.848953642384106	0.143788079470199	-0.0828609271523179	-47.4460927152318	84.0278145695364	20.4140397350993				-0.474172185430464	0.190728476821192	-0.98394701986755	-38.632582781457	-2.37350993377483	25.2797350993378				0.224529801324503	-0.352529801324503	-0.965721854304636	-76.7570860927152	-69.8164238410596	36.6243708609272				1.18802649006623	0.0194966887417219	-0.0100662251655629	-25.5282119205298	15.7319205298013	-3.69748344370861				0.159788079470199	0.0331655629139073	-1.15623841059603	28.5803973509934	-84.1223841059603	62.245298013245			
51	1240	-0.360158940397351	0.274754966887417	-1.28752317880795	-37.2066225165563	14.6953642384106	8.33509933774834				1.39295364238411	0.111788079470199	0.317139072847682	-49.9660927152318	109.787814569536	34.4140397350993				-0.506172185430464	0.158728476821192	-1.09594701986755	-13.152582781457	11.6264900662252	14.0797350993378				0.288529801324503	-0.272529801324503	-0.981721854304636	-67.7970860927152	-67.0164238410596	37.7443708609272				1.28402649006623	0.0514966887417219	0.0859337748344371	-31.1282119205298	13.2119205298013	-5.93748344370861				0.143788079470199	-0.0308344370860927	-1.07623841059603	28.3003973509934	-71.2423841059603	63.085298013245			
52	1260	-0.408158940397351	0.290754966887417	-0.791523178807947	-43.3666225165563	43.8153642384106	8.05509933774835				1.26495364238411	0.191788079470199	-0.00286092715231785	-31.2060927152318	64.1478145695364	32.1740397350993				-0.634172185430464	0.190728476821192	-1.52794701986755	-2.79258278145695	37.1064900662252	7.35973509933775				0.256529801324503	-0.144529801324503	-0.917721854304636	-43.4370860927152	-41.5364238410596	38.5843708609272				1.36402649006623	0.0834966887417219	0.165933774834437	-34.4882119205298	10.1319205298013	2.46251655629139				0.111788079470199	-0.110834437086093	-1.09223841059603	18.7803973509934	-47.4423841059603	61.685298013245			
53	1280	-0.360158940397351	0.498754966887417	-1.01552317880795	-11.1666225165563	27.0153642384106	15.8950993377483				1.18495364238411	0.271788079470199	0.189139072847682	-21.1260927152318	88.7878145695364	32.1740397350993				-0.506172185430464	0.302728476821192	-0.79194701986755	13.167417218543	45.7864900662252	0.63973509933775				0.336529801324503	-0.176529801324503	-0.901721854304636	-10.9570860927152	-2.8964238410596	34.3843708609272				1.26802649006623	0.163496688741722	0.197933774834437	-21.3282119205298	11.8119205298013	4.70251655629139				0.159788079470199	-0.0148344370860927	-1.15623841059603	13.4603973509934	-21.9623841059603	51.325298013245			
54	1300	-0.568158940397351	0.242754966887417	-1.01552317880795	-31.3266225165563	51.9353642384106	16.1750993377483				1.20095364238411	0.255788079470199	0.525139072847682	-46.6060927152318	83.4678145695364	28.5340397350993				-0.762172185430464	0.270728476821192	-0.93594701986755	-9.23258278145695	51.1064900662252	-0.48026490066225				0.448529801324503	-0.240529801324503	-1.04572185430464	6.96291390728477	29.3035761589404	26.5443708609272				1.12402649006623	0.163496688741722	0.277933774834437	-0.888211920529802	18.2519205298013	6.10251655629139				0.207788079470199	0.00116556291390731	-1.09223841059603	23.8203973509934	-13.2823841059603	36.205298013245			
55	1320	-0.456158940397351	0.226754966887417	-1.17552317880795	-16.4866225165563	65.3753642384106	21.7750993377483				1.48895364238411	0.175788079470199	0.621139072847682	-65.9260927152318	103.907814569536	29.9340397350993				-0.650172185430464	0.222728476821192	-1.07994701986755	-10.632582781457	62.5864900662252	-2.16026490066225				0.704529801324503	-0.0965298013245033	-1.07772185430464	14.8029139072848	51.4235761589404	24.8643708609272				1.20402649006623	0.147496688741722	0.549933774834437	34.9517880794702	31.1319205298013	4.14251655629139				0.319788079470199	-0.126834437086093	-0.996238410596026	26.9003973509934	2.11761589403974	27.805298013245			
56	1340	-0.312158940397351	0.242754966887417	-1.09552317880795	-2.48662251655629	73.2153642384106	28.7750993377483				1.55295364238411	0.0477880794701987	0.813139072847682	-32.3260927152318	83.1878145695364	15.3740397350993				-0.442172185430464	0.0787284768211921	-1.03194701986755	8.40741721854305	75.1864900662252	-0.20026490066225				1.0085298013245	-0.144529801324503	-1.18972185430464	49.2429139072848	55.3435761589404	21.5043708609272				1.34802649006623	0.227496688741722	0.837933774834437	23.1917880794702	35.6119205298013	-0.897483443708608				0.527788079470199	-0.190834437086093	-1.07623841059603	5.34039735099338	26.7576158940397	18.285298013245			
57	1360	-0.168158940397351	0.290754966887417	-1.09552317880795	-3.88662251655629	82.4553642384106	34.9350993377483				1.36095364238411	0.111788079470199	1.03713907284768	11.0739072847682	36.4278145695364	-3.66596026490066				-0.170172185430464	-0.177271523178808	-1.04794701986755	17.087417218543	80.7864900662252	6.79973509933775				1.2165298013245	-0.320529801324503	-1.26972185430464	55.4029139072848	58.4235761589404	10.0243708609272				1.34802649006623	0.307496688741722	0.741933774834437	-15.1682119205298	24.1319205298013	-6.49748344370861				0.639788079470199	-0.222834437086093	-1.06023841059603	3.66039735099338	41.3176158940397	-1.31470198675497			
58	1380	-0.024158940397351	0.354754966887417	-1.06352317880795	2.83337748344371	90.8553642384106	39.9750993377484				1.20095364238411	-0.0642119205298013	0.797139072847682	-1.24609271523179	2.26781456953642	3.05403973509934				-0.122172185430464	0.0467284768211921	-1.06394701986755	20.1674172185431	89.7464900662252	14.6397350993378				1.0565298013245	-0.448529801324503	-1.18972185430464	-1.43708609271523	46.3835761589404	-5.93562913907285				1.26802649006623	0.227496688741722	0.501933774834437	3.0317880794702	1.17192052980133	-5.09748344370861				0.607788079470199	-0.318834437086093	-1.01223841059603	9.82039735099338	38.5176158940397	-11.674701986755			
59	1400	0.023841059602649	0.338754966887417	-1.09552317880795	18.7933774834437	100.935364238411	42.2150993377483				1.23295364238411	0.0797880794701987	0.349139072847682	-23.3660927152318	-9.21218543046358	6.13403973509934				-0.0741721854304636	0.0147284768211921	-1.09594701986755	18.487417218543	99.2664900662252	22.4797350993378				0.688529801324503	-0.240529801324503	-1.02972185430464	-39.5170860927152	27.9035761589404	-13.4956291390728				1.15602649006623	0.131496688741722	0.485933774834437	10.8717880794702	-4.98807947019868	-3.13748344370861				0.527788079470199	-0.382834437086093	-1.01223841059603	-19.8596026490066	41.8776158940397	-2.99470198675497			
60	1420	0.071841059602649	0.258754966887417	-1.03152317880795	50.7133774834437	103.455364238411	39.4150993377484				1.23295364238411	0.127788079470199	0.477139072847682	-43.8060927152318	1.98781456953642	15.0940397350993				-0.0581721854304636	-0.0972715231788079	-1.09594701986755	12.607417218543	109.066490066225	24.7197350993378				0.464529801324503	-0.224529801324503	-0.981721854304636	-27.4770860927152	22.0235761589404	-2.57562913907285				1.10802649006623	0.0994966887417219	0.581933774834437	4.9917880794702	-5.26807947019868	-3.97748344370861				0.575788079470199	-0.334834437086093	-1.07623841059603	-47.0196026490066	49.7176158940397	0.0852980132450323			
61	1440	0.215841059602649	0.114754966887417	-1.03152317880795	47.0733774834437	106.815364238411	40.2550993377484				1.39295364238411	0.0637880794701987	0.877139072847682	-13.0060927152318	15.9878145695364	13.4140397350993				0.0378278145695364	-0.00127152317880793	-1.06394701986755	0.847417218543046	116.906490066225	25.8397350993378				0.512529801324503	-0.288529801324503	-1.02972185430464	-8.71708609271523	29.3035761589404	3.58437086092715				1.20402649006623	0.0834966887417219	0.501933774834437	-16.5682119205298	9.29192052980133	-11.5374834437086				0.639788079470199	-0.302834437086093	-1.09223841059603	-39.1796026490066	53.0776158940397	0.365298013245032			
62	1460	0.311841059602649	0.226754966887417	-1.07952317880795	33.6333774834437	116.335364238411	37.1750993377484				1.26495364238411	-0.240211920529801	0.829139072847682	6.87390728476821	-16.7721854304636	17.0540397350993				0.101827814569536	0.0627284768211921	-0.98394701986755	-12.872582781457	128.386490066225	23.8797350993378				0.544529801324503	-0.256529801324503	-0.997721854304636	2.48291390728477	51.7035761589404	4.98437086092715				1.22002649006623	0.0674966887417219	0.405933774834437	-24.1282119205298	12.6519205298013	-13.4974834437086				0.655788079470199	-0.254834437086093	-1.10823841059603	-22.6596026490066	54.7576158940397	9.32529801324503			
63	1480	0.311841059602649	0.242754966887417	-1.03152317880795	33.3533774834437	129.495364238411	38.0150993377484				1.00895364238411	-0.0642119205298013	0.525139072847682	-27.2860927152318	-35.2521854304636	-0.0259602649006601				0.197827814569536	0.110728476821192	-0.95194701986755	-14.272582781457	133.426490066225	20.5197350993378				0.576529801324503	-0.272529801324503	-0.837721854304636	13.6829139072848	69.6235761589404	11.1443708609272				1.14002649006623	0.00349668874172187	0.421933774834437	-17.9682119205298	10.9719205298013	-3.69748344370861				0.575788079470199	-0.222834437086093	-1.01223841059603	-12.5796026490066	62.5976158940397	9.04529801324503			
64	1500	0.327841059602649	0.162754966887417	-0.935523178807947	25.7933774834437	143.215364238411	35.4950993377484				1.02495364238411	0.0157880794701987	0.333139072847682	-12.7260927152318	-31.6121854304636	-8.98596026490066				0.213827814569536	0.158728476821192	-0.91994701986755	-0.832582781456954	135.946490066225	17.9997350993378				0.672529801324503	-0.288529801324503	-0.805721854304636	12.2829139072848	57.3035761589404	17.8643708609272				1.04402649006623	0.0514966887417219	0.405933774834437	-24.1282119205298	12.3719205298013	0.222516556291392				0.559788079470199	-0.222834437086093	-0.964238410596026	-10.6196026490066	69.5976158940397	2.32529801324503			
65	1520	0.487841059602649	0.146754966887417	-0.919523178807947	18.7933774834437	140.695364238411	31.2950993377483				1.23295364238411	0.127788079470199	0.461139072847682	10.7939072847682	14.3078145695364	-14.3059602649007				0.437827814569536	0.0947284768211921	-0.93594701986755	7.00741721854305	140.426490066225	16.3197350993378				0.752529801324503	-0.240529801324503	-0.805721854304636	1.92291390728477	39.3835761589404	13.9443708609272				1.09202649006623	0.0514966887417219	0.405933774834437	-31.6882119205298	8.73192052980133	-3.41748344370861				0.559788079470199	-0.254834437086093	-0.900238410596026	-4.17960264900662	67.3576158940397	3.16529801324503			
66	1540	0.503841059602649	0.258754966887417	-0.887523178807947	19.3533774834437	142.095364238411	27.0950993377483				1.07295364238411	0.0477880794701987	0.493139072847682	8.27390728476821	5.06781456953642	-6.74596026490066				0.261827814569536	-0.00127152317880793	-0.87194701986755	14.847417218543	144.346490066225	9.87973509933775				0.816529801324503	-0.240529801324503	-0.805721854304636	9.20291390728477	43.3035761589404	10.8643708609272				1.04402649006623	0.147496688741722	0.453933774834437	-45.4082119205298	-4.14807947019868	-7.61748344370861				0.511788079470199	-0.238834437086093	-0.836238410596026	-22.3796026490066	64.8376158940397	4.84529801324503			
67	1560	0.503841059602649	0.226754966887417	-0.791523178807947	22.4333774834437	145.455364238411	27.0950993377483				1.04095364238411	-0.128211920529801	0.333139072847682	-11.8860927152318	-26.5721854304636	-1.70596026490066				0.325827814569536	0.0787284768211921	-0.82394701986755	12.047417218543	145.466490066225	7.35973509933775				0.768529801324503	-0.240529801324503	-0.805721854304636	22.3629139072848	48.9035761589404	7.78437086092715				0.980026490066225	0.147496688741722	0.485933774834437	-34.4882119205298	-9.18807947019868	-5.65748344370861				0.559788079470199	-0.0948344370860927	-0.836238410596026	-43.3796026490066	64.5576158940397	-2.43470198675497			
68	1580	0.567841059602649	0.0667549668874172	-0.775523178807947	19.3533774834437	148.535364238411	24.2950993377483				0.976953642384106	0.0797880794701987	0.285139072847682	0.153907284768212	-53.4521854304636	-11.2259602649007				0.373827814569536	0.0947284768211921	-0.77594701986755	6.44741721854305	144.346490066225	4.55973509933775				0.736529801324503	-0.208529801324503	-0.741721854304636	14.5229139072848	42.7435761589404	0.504370860927152				0.932026490066225	0.131496688741722	0.389933774834437	-19.6482119205298	-8.06807947019868	-2.01748344370861				0.591788079470199	0.00116556291390731	-0.900238410596026	-42.8196026490066	66.5176158940397	-12.234701986755			
69	1600	0.615841059602649	-0.0132450331125828	-0.743523178807947	3.11337748344371	150.215364238411	20.0950993377483				0.896953642384106	0.207788079470199	0.317139072847682	53.0739072847682	-53.4521854304636	-15.9859602649007				0.373827814569536	0.0947284768211921	-0.72794701986755	1.12741721854305	143.786490066225	2.03973509933775				0.688529801324503	-0.176529801324503	-0.661721854304636	9.48291390728477	30.9835761589404	-5.09562913907285				0.900026490066225	0.211496688741722	0.245933774834437	-27.7682119205298	-8.62807947019868	-1.17748344370861				0.527788079470199	0.0331655629139073	-0.868238410596026	-20.9796026490066	61.1976158940397	-14.754701986755			
70	1620	0.599841059602649	0.162754966887417	-0.695523178807947	-12.5666225165563	148.815364238411	13.0950993377483				0.896953642384106	0.191788079470199	0.349139072847682	46.0739072847682	-46.1721854304636	-14.3059602649007				0.389827814569536	0.142728476821192	-0.66394701986755	7.56741721854305	142.946490066225	-2.72026490066225				0.736529801324503	-0.160529801324503	-0.629721854304636	0.802913907284768	18.9435761589404	-9.57562913907285				0.852026490066225	0.179496688741722	0.197933774834437	-11.8082119205298	-11.1480794701987	-2.29748344370861				0.399788079470199	-0.0788344370860927	-0.692238410596026	-3.05960264900662	55.0376158940397	-6.35470198675497			
71	1640	0.535841059602649	0.242754966887417	-0.647523178807947	-8.64662251655629	146.295364238411	11.4150993377483				0.896953642384106	0.0317880794701987	0.333139072847682	6.03390728476821	-53.4521854304636	-11.5059602649007				0.453827814569536	0.158728476821192	-0.66394701986755	22.407417218543	142.106490066225	-4.12026490066225				0.592529801324503	-0.176529801324503	-0.597721854304636	1.64291390728477	16.7035761589404	-10.9756291390728				0.804026490066225	0.0834966887417219	0.277933774834437	-2.0082119205298	-10.0280794701987	-1.17748344370861				0.367788079470199	-0.0628344370860927	-0.628238410596026	-25.1796026490066	47.7576158940397	-5.79470198675497			
72	1660	0.535841059602649	0.178754966887417	-0.567523178807947	9.55337748344371	144.335364238411	11.4150993377483				0.848953642384106	-0.0162119205298013	0.157139072847682	7.99390728476821	-68.5721854304636	-8.14596026490066				0.597827814569536	0.0627284768211921	-0.63194701986755	36.967417218543	142.386490066225	-1.88026490066225				0.464529801324503	-0.160529801324503	-0.533721854304636	3.32291390728477	13.9035761589404	-10.6956291390728				0.708026490066225	0.0514966887417219	0.293933774834437	1.3517880794702	-18.7080794701987	0.222516556291392				0.399788079470199	0.00116556291390731	-0.660238410596027	-38.0596026490066	40.1976158940397	-9.43470198675497			
73	1680	0.583841059602649	0.114754966887417	-0.567523178807947	18.7933774834437	144.055364238411	10.2950993377483				0.720953642384106	0.0477880794701987	0.0291390728476822	24.2339072847682	-73.6121854304636	-6.18596026490066				0.469827814569536	-0.0332715231788079	-0.63194701986755	24.927417218543	145.466490066225	-5.24026490066225				0.432529801324503	-0.176529801324503	-0.469721854304636	15.0829139072848	10.5435761589404	-8.73562913907285				0.692026490066225	0.0354966887417219	0.229933774834437	1.0717880794702	-28.7880794701987	-0.337483443708608				0.399788079470199	0.00116556291390731	-0.644238410596026	-27.1396026490066	28.4376158940397	-13.914701986755			
74	1700	0.599841059602649	0.0187549668874172	-0.519523178807947	19.6333774834437	141.535364238411	8.33509933774834				0.720953642384106	0.191788079470199	0.0611390728476822	29.5539072847682	-73.3321854304636	-7.86596026490066				0.469827814569536	-0.0332715231788079	-0.56794701986755	5.88741721854305	144.346490066225	-5.24026490066225				0.432529801324503	-0.176529801324503	-0.453721854304636	25.4429139072848	12.2235761589404	-4.25562913907285				0.692026490066225	0.0514966887417219	0.181933774834437	-1.7282119205298	-39.9880794701987	-0.897483443708608				0.351788079470199	-0.0148344370860927	-0.580238410596026	-17.6196026490066	22.5576158940397	-13.354701986755			
75	1720	0.615841059602649	0.0187549668874172	-0.535523178807947	10.6733774834437	139.855364238411	11.1350993377483				0.704953642384106	0.159788079470199	0.0931390728476822	25.3539072847682	-80.0521854304636	-3.38596026490066				0.565827814569536	0.0147284768211921	-0.47194701986755	-1.39258278145695	149.386490066225	0.91973509933775				0.400529801324503	-0.192529801324503	-0.437721854304636	26.0029139072848	11.6635761589404	-0.895629139072848				0.660026490066225	0.0674966887417219	0.149933774834437	0.791788079470198	-44.4680794701987	0.502516556291392				0.335788079470199	-0.0308344370860927	-0.532238410596027	-22.0996026490066	20.0376158940397	-12.794701986755			
76	1740	0.583841059602649	0.0187549668874172	-0.455523178807947	10.6733774834437	143.775364238411	12.8150993377483				0.672953642384106	-0.0322119205298013	0.109139072847682	18.3539072847682	-73.0521854304636	1.37403973509934				0.613827814569536	0.0307284768211921	-0.45594701986755	3.64741721854305	146.026490066225	0.63973509933775				0.384529801324503	-0.144529801324503	-0.437721854304636	28.8029139072848	4.6635761589404	4.70437086092715				0.612026490066225	0.0674966887417219	0.181933774834437	5.2717880794702	-37.1880794701987	1.90251655629139				0.399788079470199	-0.0308344370860927	-0.532238410596027	-28.2596026490066	17.7976158940397	-13.634701986755			
77	1760	0.647841059602649	0.0667549668874172	-0.455523178807947	20.4733774834437	147.695364238411	10.0150993377483				0.656953642384106	-0.112211920529801	0.0611390728476822	10.2339072847682	-58.4921854304636	-8.70596026490066				0.533827814569536	0.0467284768211921	-0.42394701986755	1.12741721854305	146.026490066225	-5.80026490066225				0.416529801324503	-0.160529801324503	-0.437721854304636	38.6029139072848	1.0235761589404	10.3043708609272				0.660026490066225	-0.0125033112582781	0.245933774834437	17.3117880794702	-41.6680794701987	4.98251655629139				0.431788079470199	-0.0148344370860927	-0.516238410596026	-26.5796026490066	16.1176158940397	-15.874701986755			
78	1780	0.711841059602649	0.00275496688741723	-0.391523178807947	17.1133774834437	143.215364238411	12.8150993377483				0.640953642384106	0.0157880794701987	0.141139072847682	19.7539072847682	-65.7721854304636	-16.2659602649007				0.533827814569536	0.0627284768211921	-0.47194701986755	-21.832582781457	142.386490066225	-6.64026490066225				0.432529801324503	-0.224529801324503	-0.437721854304636	38.3229139072848	-5.9764238410596	9.74437086092715				0.660026490066225	-0.0445033112582781	0.133933774834437	14.7917880794702	-64.0680794701987	10.3025165562914				0.415788079470199	0.0171655629139073	-0.548238410596027	-29.3796026490066	14.4376158940397	-19.514701986755			
79	1800	0.711841059602649	0.0187549668874172	-0.327523178807947	18.5133774834437	143.775364238411	10.5750993377483				0.512953642384106	0.111788079470199	-0.0348609271523178	18.9139072847682	-66.6121854304636	-23.8259602649007				0.677827814569536	0.0787284768211921	-0.42394701986755	-22.112582781457	144.346490066225	-10.0002649006623				0.368529801324503	-0.320529801324503	-0.389721854304636	20.6829139072848	-14.9364238410596	8.34437086092715				0.596026490066225	-0.0285033112582781	0.0379337748344371	5.8317880794702	-72.4680794701987	11.9825165562914				0.367788079470199	0.00116556291390731	-0.500238410596026	-23.2196026490066	7.99761589403974	-21.754701986755			
80	1820	0.695841059602649	0.114754966887417	-0.247523178807947	24.9533774834437	132.015364238411	3.85509933774834				0.448953642384106	0.0797880794701987	-0.114860927152318	17.5139072847682	-61.8521854304636	-18.5059602649007				0.741827814569536	0.0787284768211921	-0.42394701986755	-23.512582781457	134.546490066225	-12.2402649006623				0.240529801324503	-0.320529801324503	-0.389721854304636	10.6029139072848	-22.7764238410596	11.4243708609272				0.500026490066225	0.0194966887417219	0.0219337748344371	0.511788079470198	-65.1880794701987	10.8625165562914				0.351788079470199	-0.0308344370860927	-0.436238410596026	-26.8596026490066	7.15761589403974	-22.034701986755			
81	1840	0.727841059602649	0.114754966887417	-0.263523178807947	18.7933774834437	126.135364238411	3.29509933774834				0.464953642384106	0.0317880794701987	-0.0508609271523178	9.95390728476821	-35.8121854304636	-12.6259602649007				0.645827814569536	0.0307284768211921	-0.29594701986755	-22.392582781457	135.106490066225	-12.5202649006623				0.112529801324503	-0.208529801324503	-0.421721854304636	8.36291390728477	-23.6164238410596	11.9843708609272				0.468026490066225	-0.0285033112582781	0.0379337748344371	0.791788079470198	-59.8680794701987	10.5825165562914				0.271788079470199	-0.0308344370860927	-0.436238410596026	-34.4196026490066	2.67761589403974	-18.674701986755			
82	1860	0.791841059602649	-0.0132450331125828	-0.327523178807947	17.9533774834437	117.175364238411	5.81509933774834				0.480953642384106	0.0157880794701987	0.0611390728476822	4.35390728476821	-26.2921854304636	-10.1059602649007				0.693827814569536	-0.00127152317880793	-0.32794701986755	-14.272582781457	124.746490066225	-14.2002649006623				0.112529801324503	-0.160529801324503	-0.453721854304636	12.8429139072848	-19.1364238410596	13.3843708609272				0.468026490066225	-0.0285033112582781	0.0699337748344371	-4.2482119205298	-51.4680794701987	8.06251655629139				0.223788079470199	0.0171655629139073	-0.468238410596026	-36.3796026490066	-2.64238410596027	-14.754701986755			
83	1880	0.855841059602649	-0.0292450331125828	-0.279523178807947	34.7533774834437	102.055364238411	8.89509933774834				0.496953642384106	0.0797880794701987	0.205139072847682	0.713907284768212	-16.2121854304636	-8.42596026490066				0.741827814569536	-0.0972715231788079	-0.35994701986755	0.567417218543046	94.5064900662252	-10.2802649006622				0.208529801324503	-0.224529801324503	-0.437721854304636	24.0429139072848	-12.6964238410596	17.8643708609272				0.484026490066225	0.00349668874172187	0.0379337748344371	-5.6482119205298	-53.9880794701987	8.06251655629139				0.271788079470199	0.0811655629139073	-0.500238410596026	-31.3396026490066	-3.48238410596027	-13.914701986755			
84	1900	0.839841059602649	-0.0132450331125828	-0.167523178807947	28.8733774834437	92.5353642384106	11.1350993377483				0.560953642384106	0.111788079470199	0.141139072847682	7.71390728476821	-14.8121854304636	-14.8659602649007				0.821827814569536	-0.113271523178808	-0.37594701986755	15.967417218543	75.1864900662252	-6.64026490066225				0.304529801324503	-0.288529801324503	-0.453721854304636	24.0429139072848	-9.8964238410596	21.5043708609272				0.564026490066225	0.0514966887417219	0.0219337748344371	-2.5682119205298	-41.6680794701987	8.34251655629139				0.351788079470199	0.0971655629139073	-0.580238410596026	-17.3396026490066	-7.12238410596027	-11.674701986755			
85	1920	0.887841059602649	-0.0292450331125828	-0.279523178807947	18.5133774834437	82.4553642384106	14.4950993377483				0.720953642384106	0.127788079470199	0.125139072847682	16.1139072847682	-12.0121854304636	-17.6659602649007				1.01382781456954	-0.113271523178808	-0.34394701986755	24.927417218543	54.1864900662252	0.0797350993377501				0.400529801324503	-0.352529801324503	-0.501721854304636	22.0829139072848	-3.4564238410596	21.5043708609272				0.660026490066225	0.0194966887417219	0.0699337748344371	4.7117880794702	-25.1480794701987	6.66251655629139				0.383788079470199	0.0811655629139073	-0.612238410596026	-5.01960264900662	-6.00238410596027	-9.99470198675497			
86	1940	0.919841059602649	-0.0292450331125828	-0.183523178807947	17.1133774834437	71.2553642384106	14.2150993377483				0.864953642384106	0.0637880794701987	0.173139072847682	16.6739072847682	-8.93218543046358	-17.9459602649007				0.965827814569536	-0.193271523178808	-0.29594701986755	29.6874172185431	32.9064900662252	3.99973509933775				0	0	0	0	0	0				0	0	0	0	0	0				0	0	0	0	0	0			
87	2060	0	0	0	0	0	0				0	0	0	0	0	0				0	0	0	0	0	0				0	0	0	0	0	0				0.932026490066225	0.0994966887417219	0.133933774834437	4.1517880794702	-2.46807947019868	-5.93748344370861				0.607788079470199	0.0331655629139073	-0.692238410596026	-3.33960264900662	13.8776158940397	5.96529801324503			
88	2080	0	0	0	0	0	0				0.944953642384106	0.207788079470199	0.0931390728476822	1.55390728476821	3.10781456953642	-0.86596026490066				0.949827814569536	-0.0172715231788079	-0.16794701986755	7.84741721854305	13.0264900662252	-0.48026490066225				0.560529801324503	-0.336529801324503	-0.645721854304636	-11.5170860927152	-3.4564238410596	-5.93562913907285				0.916026490066225	0.0834966887417219	0.0859337748344371	4.1517880794702	-1.62807947019868	-5.09748344370861				0.671788079470199	0.0811655629139073	-0.724238410596026	-2.49960264900662	14.4376158940397	7.36529801324503			
89	2100	0.951841059602649	-0.0132450331125828	0.040476821192053	-9.76662251655629	30.0953642384106	-0.0649006622516557				0.960953642384106	0.127788079470199	0.0451390728476822	10.7939072847682	-2.77218543046358	4.73403973509934				0.949827814569536	-0.113271523178808	-0.18394701986755	13.447417218543	15.8264900662252	-1.32026490066225				0.560529801324503	-0.320529801324503	-0.629721854304636	-5.63708609271523	-2.6164238410596	-2.01562913907285				0.948026490066225	0.0674966887417219	0.117933774834437	2.1917880794702	3.13192052980133	-5.37748344370861				0.703788079470199	0.0971655629139073	-0.740238410596026	3.10039735099338	7.99761589403974	5.40529801324503			
90	2120	0.999841059602649	0.0827549668874172	-0.023523178807947	-4.44662251655629	25.0553642384106	-2.02490066225166				0.976953642384106	0.127788079470199	0.0451390728476822	8.55390728476821	0.307814569536424	5.01403973509934				0.965827814569536	-0.113271523178808	-0.19994701986755	11.207417218543	12.7464900662252	0.35973509933775				0.544529801324503	-0.336529801324503	-0.645721854304636	1.08291390728477	0.4635761589404	-0.0556291390728476				0.964026490066225	0.0514966887417219	0.117933774834437	0.511788079470198	2.29192052980133	-3.41748344370861				0.687788079470199	0.145165562913907	-0.772238410596026	0.860397350993377	3.23761589403974	-2.71470198675497			
91	2140	0.983841059602649	0.0667549668874172	-0.00752317880794696	1.99337748344371	20.5753642384106	-0.904900662251656				0.944953642384106	0.111788079470199	0.0771390728476822	5.75390728476821	2.82781456953642	4.17403973509934				0.965827814569536	-0.0652715231788079	-0.21594701986755	-0.552582781456954	9.38649006622517	2.03973509933775				0.576529801324503	-0.336529801324503	-0.645721854304636	2.76291390728477	2.4235761589404	0.224370860927152				0.964026490066225	0.0834966887417219	0.101933774834437	1.0717880794702	4.25192052980133	-0.337483443708608				0.655788079470199	0.129165562913907	-0.788238410596027	3.66039735099338	4.07761589403974	-7.75470198675497			
92	2160	0.967841059602649	-0.0292450331125828	-0.055523178807947	8.43337748344371	16.0953642384106	-2.30490066225166				0.960953642384106	0.127788079470199	0.109139072847682	9.11390728476821	1.14781456953642	2.21403973509934				0.949827814569536	-0.0172715231788079	-0.21594701986755	-0.832582781456954	6.02649006622517	3.71973509933775				0.608529801324503	-0.336529801324503	-0.645721854304636	-5.07708609271523	-0.6564238410596	-1.73562913907285				0.964026490066225	0.0994966887417219	0.0539337748344371	1.9117880794702	6.77192052980133	1.34251655629139				0.671788079470199	0.0971655629139073	-0.788238410596027	6.74039735099338	2.67761589403974	-8.03470198675497			
93	2180	0.967841059602649	-0.0932450331125828	-0.055523178807947	6.19337748344371	12.4553642384106	-2.30490066225166				0.960953642384106	0.175788079470199	0.0931390728476822	11.6339072847682	-3.05218543046358	0.53403973509934				0.933827814569536	0.0147284768211921	-0.21594701986755	4.76741721854305	3.78649006622517	5.39973509933775				0.576529801324503	-0.288529801324503	-0.629721854304636	-1.99708609271523	-0.6564238410596	-3.13562913907285				0.948026490066225	0.0994966887417219	0.0859337748344371	1.0717880794702	5.93192052980133	3.58251655629139				0.591788079470199	0.0811655629139073	-0.708238410596026	5.90039735099338	-0.122384105960265	-6.07470198675497			
94	2200	0.999841059602649	-0.0772450331125828	-0.071523178807947	-0.526622516556291	6.8553642384106	-0.0649006622516557				0.976953642384106	0.159788079470199	0.0451390728476822	15.2739072847682	-0.532185430463576	3.33403973509934				0.933827814569536	0.0467284768211921	-0.24794701986755	3.92741721854305	0.706490066225167	6.79973509933775				0.576529801324503	-0.304529801324503	-0.629721854304636	5.00291390728477	2.1435761589404	-2.01562913907285				0.932026490066225	0.0994966887417219	0.101933774834437	5.8317880794702	4.81192052980133	3.86251655629139				0.543788079470199	0.0971655629139073	-0.692238410596026	1.98039735099338	-0.682384105960265	-5.79470198675497			
95	2220	0.967841059602649	-0.0292450331125828	-0.119523178807947	-1.36662251655629	3.4953642384106	1.05509933774834				0.976953642384106	0.127788079470199	0.0451390728476822	12.4739072847682	4.22781456953642	4.73403973509934				0.917827814569536	0.0307284768211921	-0.29594701986755	7.28741721854305	-0.133509933774833	3.71973509933775				0.592529801324503	-0.384529801324503	-0.677721854304636	10.0429139072848	2.1435761589404	-1.73562913907285				0.932026490066225	0.0674966887417219	0.0859337748344371	6.3917880794702	1.73192052980133	1.90251655629139				0.559788079470199	0.113165562913907	-0.724238410596026	5.34039735099338	-1.80238410596026	-6.35470198675497			
96	2240	0.967841059602649	-0.0452450331125828	-0.135523178807947	0.873377483443709	2.6553642384106	1.61509933774834				0.992953642384106	0.127788079470199	0.0451390728476822	4.07390728476821	1.70781456953642	3.89403973509934				0.917827814569536	0.0307284768211921	-0.26394701986755	2.24741721854305	1.26649006622517	0.63973509933775				0.592529801324503	-0.416529801324503	-0.693721854304636	3.88291390728477	1.5835761589404	-3.41562913907285				0.948026490066225	0.0674966887417219	0.0699337748344371	7.2317880794702	3.13192052980133	1.06251655629139				0.591788079470199	0.0651655629139073	-0.740238410596026	14.8603973509934	-6.28238410596027	-5.23470198675497			
97	2260	0.983841059602649	-0.0292450331125828	-0.151523178807947	-0.246622516556291	0.695364238410596	-0.0649006622516557				1.00895364238411	0.143788079470199	0.0291390728476822	0.993907284768212	-3.33218543046358	3.61403973509934				0.933827814569536	0.0147284768211921	-0.26394701986755	0.00741721854304636	3.78649006622517	-1.60026490066225				0.560529801324503	-0.384529801324503	-0.693721854304636	-0.317086092715232	1.3035761589404	-3.69562913907285				0.964026490066225	0.0514966887417219	0.0859337748344371	7.2317880794702	7.89192052980133	-0.0574834437086077				0.607788079470199	0.0491655629139073	-0.724238410596026	14.3003973509934	-6.28238410596027	-3.27470198675497			
98	2280	0.983841059602649	-0.0452450331125828	-0.103523178807947	-3.04662251655629	-1.2646357615894	-2.02490066225166				1.00895364238411	0.143788079470199	0.0131390728476822	-0.126092715231788	-6.69218543046358	3.61403973509934				0.933827814569536	0.0147284768211921	-0.32794701986755	-0.552582781456954	4.34649006622517	-2.44026490066225				0.576529801324503	-0.368529801324503	-0.693721854304636	2.48291390728477	-0.3764238410596	-3.69562913907285				0.980026490066225	0.0514966887417219	0.0859337748344371	5.5517880794702	6.21192052980133	-0.617483443708608				0.607788079470199	0.0491655629139073	-0.724238410596026	4.50039735099338	-1.24238410596026	-1.31470198675497			
99	2300	0.967841059602649	-0.0132450331125828	-0.119523178807947	-6.12662251655629	-3.5046357615894	-1.46490066225166				1.00895364238411	0.127788079470199	-0.00286092715231785	3.51390728476821	-9.49218543046358	4.45403973509934				0.917827814569536	0.0147284768211921	-0.29594701986755	-2.51258278145695	1.26649006622517	-0.20026490066225				0.576529801324503	-0.384529801324503	-0.677721854304636	3.60291390728477	-2.0564238410596	-2.85562913907285				0.996026490066225	0.0354966887417219	0.0699337748344371	4.1517880794702	2.29192052980133	-0.337483443708608				0.607788079470199	0.0811655629139073	-0.724238410596026	3.66039735099338	-0.122384105960265	-4.39470198675497			
100	2320	0.967841059602649	0.00275496688741723	-0.119523178807947	-3.88662251655629	-3.2246357615894	-0.904900662251656				0.976953642384106	0.143788079470199	-0.0348609271523178	4.91390728476821	-10.3321854304636	1.37403973509934				0.933827814569536	-0.00127152317880793	-0.29594701986755	-1.95258278145695	-1.25350993377483	2.31973509933775				0.560529801324503	-0.384529801324503	-0.693721854304636	3.04291390728477	-2.6164238410596	-3.41562913907285				0.996026490066225	0.0354966887417219	0.0539337748344371	1.6317880794702	-2.18807947019868	-0.337483443708608				0.623788079470199	0.0811655629139073	-0.724238410596026	5.34039735099338	-1.52238410596026	-8.87470198675497			
101	2340	0.951841059602649	0.0187549668874172	-0.071523178807947	-4.16662251655629	-0.424635761589404	-0.0649006622516557				0.992953642384106	0.191788079470199	-0.0348609271523178	2.95390728476821	-7.53218543046358	-0.0259602649006601				0.933827814569536	0.0147284768211921	-0.31194701986755	-6.15258278145695	-2.93350993377483	3.43973509933775				0.544529801324503	-0.352529801324503	-0.693721854304636	2.20291390728477	-3.4564238410596	-2.01562913907285				0.964026490066225	0.0834966887417219	0.101933774834437	0.231788079470198	-3.58807947019868	-0.0574834437086077				0.607788079470199	0.0651655629139073	-0.772238410596026	1.70039735099338	-1.80238410596026	-10.274701986755			
102	2360	0.967841059602649	0.00275496688741723	-0.039523178807947	-1.08662251655629	1.5353642384106	-0.904900662251656				1.02495364238411	0.143788079470199	-0.0668609271523178	-0.406092715231788	-4.17218543046358	1.09403973509934				0.917827814569536	0.0147284768211921	-0.32794701986755	-6.99258278145695	-1.81350993377483	3.15973509933775				0.544529801324503	-0.384529801324503	-0.693721854304636	3.32291390728477	-3.4564238410596	1.34437086092715				0.980026490066225	0.0674966887417219	0.0219337748344371	-1.1682119205298	-8.34807947019868	1.34251655629139				0.607788079470199	0.0971655629139073	-0.756238410596026	-4.73960264900662	-0.402384105960265	-9.15470198675497			
103	2380	0.983841059602649	-0.0292450331125828	-0.055523178807947	1.71337748344371	1.5353642384106	-0.904900662251656				1.04095364238411	0.127788079470199	-0.0508609271523178	2.67390728476821	-5.85218543046358	3.05403973509934				0.917827814569536	0.0627284768211921	-0.29594701986755	-4.75258278145695	2.38649006622517	2.87973509933775				0.544529801324503	-0.384529801324503	-0.709721854304636	4.44291390728477	-4.5764238410596	3.86437086092715				0.980026490066225	0.0834966887417219	0.0539337748344371	-4.2482119205298	-2.18807947019868	0.502516556291392				0.575788079470199	0.113165562913907	-0.772238410596026	-7.53960264900662	0.437615894039735	-6.35470198675497			
104	2400	0.967841059602649	-0.0292450331125828	-0.055523178807947	-0.526622516556291	0.415364238410596	-1.46490066225166				0.976953642384106	0.143788079470199	-0.00286092715231785	-1.52609271523179	-9.21218543046358	2.49403973509934				0.933827814569536	0.0627284768211921	-0.26394701986755	-3.91258278145695	1.82649006622517	1.47973509933775				0.528529801324503	-0.384529801324503	-0.725721854304636	3.32291390728477	-3.4564238410596	3.86437086092715				0.996026490066225	0.0674966887417219	0.00593377483443711	-2.8482119205298	-3.58807947019868	0.782516556291392				0.575788079470199	0.129165562913907	-0.788238410596027	-2.49960264900662	-2.08238410596027	-4.95470198675497			
105	2420	0.967841059602649	-0.0132450331125828	-0.039523178807947	-0.246622516556291	0.415364238410596	-0.904900662251656				0.928953642384106	0.143788079470199	0.0131390728476822	-3.20609271523179	-10.6121854304636	-1.70596026490066				0.933827814569536	0.0307284768211921	-0.27994701986755	1.68741721854305	0.426490066225167	-0.20026490066225				0.528529801324503	-0.384529801324503	-0.709721854304636	1.92291390728477	-3.1764238410596	3.30437086092715				0.980026490066225	0.0674966887417219	0.0219337748344371	-2.8482119205298	-6.10807947019868	1.90251655629139				0.575788079470199	0.0811655629139073	-0.788238410596027	0.860397350993377	-5.44238410596027	-4.39470198675497			
106	2440	0.967841059602649	-0.0132450331125828	-0.055523178807947	4.79337748344371	0.415364238410596	-0.344900662251656				0.944953642384106	0.143788079470199	-0.0188609271523178	1.27390728476821	-10.0521854304636	-1.70596026490066				0.917827814569536	0.0147284768211921	-0.29594701986755	2.80741721854305	-0.693509933774834	-0.20026490066225				0.512529801324503	-0.384529801324503	-0.693721854304636	1.36291390728477	-2.0564238410596	4.42437086092715				0.964026490066225	0.0674966887417219	0.00593377483443711	1.9117880794702	-8.06807947019868	2.74251655629139				0.559788079470199	0.0971655629139073	-0.788238410596027	-1.65960264900662	-5.16238410596027	-1.31470198675497			
107	2460	0.967841059602649	-0.0132450331125828	-0.039523178807947	3.11337748344371	-0.704635761589404	-0.904900662251656				0.976953642384106	0.143788079470199	-0.0188609271523178	0.433907284768212	-6.41218543046358	0.25403973509934				0.933827814569536	0.0147284768211921	-0.24794701986755	3.08741721854305	0.426490066225167	-0.20026490066225				0.528529801324503	-0.368529801324503	-0.693721854304636	3.04291390728477	-3.4564238410596	4.98437086092715				0.948026490066225	0.0674966887417219	0.0219337748344371	-1.1682119205298	-8.62807947019868	2.74251655629139				0.559788079470199	0.113165562913907	-0.804238410596027	-1.37960264900662	-6.00238410596027	1.76529801324503			
108	2480	0.983841059602649	-0.0132450331125828	-0.039523178807947	0.593377483443709	-2.3846357615894	-0.0649006622516557				0.976953642384106	0.143788079470199	-0.00286092715231785	0.153907284768212	-4.17218543046358	1.93403973509934				0.949827814569536	-0.00127152317880793	-0.24794701986755	0.287417218543046	-0.133509933774833	-0.48026490066225				0.528529801324503	-0.384529801324503	-0.677721854304636	5.28291390728477	-1.7764238410596	4.70437086092715				0.948026490066225	0.0514966887417219	0.0379337748344371	-0.0482119205298018	-7.78807947019868	4.14251655629139				0.543788079470199	0.113165562913907	-0.788238410596027	3.66039735099338	-7.96238410596027	3.44529801324503			
109	2500	0.967841059602649	0.0187549668874172	-0.023523178807947	0.593377483443709	-1.8246357615894	-0.904900662251656				0.992953642384106	0.143788079470199	-0.00286092715231785	2.11390728476821	-3.61218543046358	2.49403973509934				0.949827814569536	-0.0172715231788079	-0.24794701986755	1.68741721854305	-3.21350993377483	0.63973509933775				0.528529801324503	-0.384529801324503	-0.677721854304636	6.40291390728477	1.3035761589404	2.46437086092715				0.948026490066225	0.0514966887417219	0.0379337748344371	1.9117880794702	-6.94807947019868	3.30251655629139				0.543788079470199	0.113165562913907	-0.772238410596026	6.74039735099338	-9.08238410596027	4.00529801324503			
110	2520	0.983841059602649	-0.0132450331125828	-0.023523178807947	4.23337748344371	-0.704635761589404	-0.904900662251656				0.976953642384106	0.143788079470199	-0.0188609271523178	5.47390728476821	-6.41218543046358	0.53403973509934				0.949827814569536	-0.0492715231788079	-0.24794701986755	0.567417218543046	-3.49350993377483	0.91973509933775				0.528529801324503	-0.400529801324503	-0.677721854304636	6.40291390728477	3.5435761589404	1.06437086092715				0.964026490066225	0.0354966887417219	0.0379337748344371	3.0317880794702	-6.38807947019868	3.86251655629139				0.559788079470199	0.113165562913907	-0.772238410596026	7.86039735099338	-9.36238410596027	2.32529801324503			
111	2540	0.967841059602649	-0.0292450331125828	-0.023523178807947	-0.246622516556291	0.135364238410596	-0.904900662251656				0.992953642384106	0.127788079470199	-0.0188609271523178	4.35390728476821	-5.01218543046358	2.49403973509934				0.933827814569536	-0.00127152317880793	-0.24794701986755	-0.832582781456954	-0.413509933774833	1.75973509933775				0.544529801324503	-0.416529801324503	-0.693721854304636	7.52291390728477	3.2635761589404	3.02437086092715				0.980026490066225	0.0354966887417219	0.0379337748344371	3.0317880794702	-7.22807947019868	3.30251655629139				0.559788079470199	0.113165562913907	-0.756238410596026	7.30039735099338	-7.12238410596027	0.0852980132450323			
112	2560	0.967841059602649	-0.0292450331125828	-0.039523178807947	0.0333774834437086	1.5353642384106	-1.18490066225166				0.976953642384106	0.111788079470199	-0.0348609271523178	-0.686092715231788	-4.17218543046358	3.89403973509934				0.917827814569536	0.0147284768211921	-0.24794701986755	-6.99258278145695	-0.133509933774833	2.31973509933775				0.544529801324503	-0.432529801324503	-0.693721854304636	10.0429139072848	3.5435761589404	4.70437086092715				0.980026490066225	0.0354966887417219	0.0219337748344371	1.3517880794702	-7.50807947019868	2.46251655629139				0.575788079470199	0.113165562913907	-0.772238410596026	5.90039735099338	-6.00238410596027	-3.55470198675497			
113	2580	0.967841059602649	-0.0292450331125828	-0.055523178807947	-1.64662251655629	2.3753642384106	-1.46490066225166				0.960953642384106	0.127788079470199	-0.0508609271523178	-1.52609271523179	-3.05218543046358	1.93403973509934				0.933827814569536	0.0147284768211921	-0.24794701986755	-1.67258278145695	0.146490066225167	0.91973509933775				0.544529801324503	-0.448529801324503	-0.725721854304636	5.56291390728477	2.4235761589404	5.82437086092715				0.964026490066225	0.0194966887417219	0.0379337748344371	1.6317880794702	-7.22807947019868	3.58251655629139				0.575788079470199	0.0971655629139073	-0.772238410596026	4.78039735099338	-4.32238410596027	-5.23470198675497			
114	2600	0.983841059602649	-0.0292450331125828	-0.055523178807947	-2.76662251655629	2.3753642384106	-1.74490066225166				0.976953642384106	0.143788079470199	-0.0508609271523178	0.713907284768212	-3.33218543046358	1.65403973509934				0.933827814569536	0.0307284768211921	-0.26394701986755	1.40741721854305	0.426490066225167	0.0797350993377501				0.528529801324503	-0.448529801324503	-0.693721854304636	-0.317086092715232	-0.3764238410596	5.54437086092715				0.980026490066225	0.0354966887417219	0.00593377483443711	2.4717880794702	-8.90807947019868	4.70251655629139				0.559788079470199	0.0811655629139073	-0.772238410596026	3.38039735099338	-2.92238410596027	-5.23470198675497			
115	2620	0.967841059602649	-0.0132450331125828	-0.039523178807947	-4.16662251655629	-0.144635761589404	-0.904900662251656				1.00895364238411	0.111788079470199	-0.0188609271523178	2.67390728476821	-1.93218543046358	2.77403973509934				0.949827814569536	0.0147284768211921	-0.26394701986755	-0.272582781456954	0.146490066225167	-0.48026490066225				0.512529801324503	-0.416529801324503	-0.661721854304636	-1.99708609271523	-1.7764238410596	5.26437086092715				0.964026490066225	0.0354966887417219	0.0219337748344371	-1.1682119205298	-4.70807947019868	2.74251655629139				0.559788079470199	0.0811655629139073	-0.772238410596026	3.10039735099338	-2.36238410596027	-4.67470198675497			
116	2640	0.967841059602649	-0.0292450331125828	-0.055523178807947	-0.526622516556291	0.415364238410596	-0.904900662251656				0.992953642384106	0.0957880794701987	-0.0348609271523178	-1.52609271523179	-0.532185430463576	3.33403973509934				0.933827814569536	-0.0172715231788079	-0.26394701986755	-1.11258278145695	-0.413509933774833	-1.04026490066225				0.496529801324503	-0.400529801324503	-0.677721854304636	-0.0370860927152318	-0.3764238410596	5.26437086092715				0.964026490066225	0.0194966887417219	0.00593377483443711	-2.2882119205298	-6.38807947019868	3.02251655629139				0.559788079470199	0.0811655629139073	-0.788238410596027	3.10039735099338	-2.64238410596027	-2.71470198675497			
117	2660	0.967841059602649	-0.0452450331125828	-0.039523178807947	-1.08662251655629	0.415364238410596	-1.74490066225166				0.960953642384106	0.127788079470199	-0.0188609271523178	-4.32609271523179	-6.13218543046358	0.53403973509934				0.917827814569536	-0.0492715231788079	-0.29594701986755	-1.39258278145695	-1.53350993377483	-0.76026490066225				0.512529801324503	-0.416529801324503	-0.677721854304636	-1.43708609271523	0.4635761589404	7.22437086092715				0.932026490066225	0.0354966887417219	0.00593377483443711	-1.7282119205298	-4.42807947019868	4.14251655629139				0.543788079470199	0.0811655629139073	-0.788238410596027	5.34039735099338	-1.52238410596026	-1.03470198675497			
118	2680	0.967841059602649	-0.0292450331125828	-0.039523178807947	-5.00662251655629	0.135364238410596	-1.74490066225166				0.976953642384106	0.143788079470199	-0.0668609271523178	-2.64609271523179	-7.81218543046358	-0.585960264900661				0.933827814569536	-0.0172715231788079	-0.26394701986755	-3.07258278145695	-0.133509933774833	-0.76026490066225				0.512529801324503	-0.400529801324503	-0.677721854304636	-1.43708609271523	0.1835761589404	6.38437086092715				0.948026490066225	0.0514966887417219	0.0219337748344371	-3.1282119205298	-2.74807947019868	3.58251655629139				0.559788079470199	0.0811655629139073	-0.788238410596027	8.14039735099338	-1.52238410596026	0.645298013245032			
119	2700	0.967841059602649	-0.0292450331125828	-0.055523178807947	-5.28662251655629	-0.144635761589404	-1.18490066225166				0.992953642384106	0.127788079470199	-0.0508609271523178	-3.76609271523179	-5.85218543046358	0.81403973509934				0.949827814569536	-0.00127152317880793	-0.24794701986755	-3.91258278145695	-0.413509933774833	0.35973509933775				0.512529801324503	-0.416529801324503	-0.677721854304636	2.20291390728477	4.6635761589404	6.94437086092715				0.980026490066225	0.0194966887417219	0.00593377483443711	-3.4082119205298	-2.74807947019868	3.58251655629139				0.559788079470199	0.0651655629139073	-0.804238410596027	10.9403973509934	-2.64238410596027	1.76529801324503			
120	2720	0.967841059602649	-0.0132450331125828	-0.055523178807947	-5.56662251655629	1.2553642384106	-1.74490066225166				0.992953642384106	0.127788079470199	-0.0348609271523178	-2.64609271523179	-0.812185430463576	3.61403973509934				0.949827814569536	-0.00127152317880793	-0.26394701986755	-2.51258278145695	-2.37350993377483	-0.76026490066225				0.528529801324503	-0.416529801324503	-0.693721854304636	8.08291390728477	7.1835761589404	7.78437086092715				0.996026490066225	0.0354966887417219	0.00593377483443711	-6.4882119205298	-1.06807947019868	3.86251655629139				0.575788079470199	0.0651655629139073	-0.788238410596027	10.3803973509934	-1.80238410596026	4.00529801324503			
121	2740	0.967841059602649	-0.0132450331125828	-0.039523178807947	-3.32662251655629	0.975364238410596	-2.02490066225166				0.960953642384106	0.127788079470199	-0.0508609271523178	-1.24609271523179	-2.49218543046358	3.61403973509934				0.917827814569536	0.0147284768211921	-0.27994701986755	-3.63258278145695	-2.93350993377483	-0.48026490066225				0.560529801324503	-0.432529801324503	-0.693721854304636	5.28291390728477	6.6235761589404	9.46437086092715				0.980026490066225	0.0354966887417219	0.00593377483443711	-4.2482119205298	-2.46807947019868	4.42251655629139				0.559788079470199	0.0651655629139073	-0.772238410596026	7.02039735099338	-0.402384105960265	5.68529801324503			
122	2760	0.967841059602649	-0.0292450331125828	-0.071523178807947	-3.60662251655629	0.135364238410596	-1.74490066225166				0.960953642384106	0.143788079470199	-0.0668609271523178	-1.80609271523179	-3.89218543046358	1.09403973509934				0.901827814569536	0.0147284768211921	-0.27994701986755	-3.91258278145695	-0.973509933774833	-1.88026490066225				0.544529801324503	-0.416529801324503	-0.693721854304636	4.16291390728477	4.9435761589404	10.8643708609272				0.980026490066225	0.0354966887417219	0.00593377483443711	-2.2882119205298	-4.14807947019868	4.98251655629139				0.559788079470199	0.0651655629139073	-0.788238410596027	5.06039735099338	-0.122384105960265	7.36529801324503			
123	2780	0.967841059602649	-0.0132450331125828	-0.055523178807947	-3.88662251655629	0.695364238410596	-2.30490066225166				0.976953642384106	0.127788079470199	-0.0668609271523178	-5.16609271523179	-6.69218543046358	-1.42596026490066				0.917827814569536	0.0147284768211921	-0.27994701986755	-1.95258278145695	-0.693509933774834	-1.32026490066225				0.528529801324503	-0.432529801324503	-0.693721854304636	2.20291390728477	1.8635761589404	10.0243708609272				0.948026490066225	0.0194966887417219	0.00593377483443711	-3.4082119205298	-4.98807947019868	5.26251655629139				0.559788079470199	0.0331655629139073	-0.772238410596026	3.38039735099338	-2.64238410596027	7.92529801324503			
124	2800	0.967841059602649	-0.0132450331125828	-0.039523178807947	-4.16662251655629	0.695364238410596	-2.58490066225166				0.992953642384106	0.127788079470199	-0.0508609271523178	-5.16609271523179	-3.89218543046358	0.53403973509934				0.933827814569536	0.0147284768211921	-0.29594701986755	-0.272582781456954	-0.693509933774834	-1.32026490066225				0.528529801324503	-0.432529801324503	-0.677721854304636	-1.71708609271523	1.0235761589404	8.62437086092715				0.964026490066225	0.0194966887417219	0.0219337748344371	-3.9682119205298	-4.70807947019868	4.14251655629139				0.543788079470199	0.0331655629139073	-0.772238410596026	0.860397350993377	-3.48238410596027	9.04529801324503			
