No	Time	12-AccX	12-AccY	12-AccZ	12-GyroX	12-GyroY	12-GyroZ	13-AccX	13-AccY	13-AccZ	13-GyroX	13-GyroY	13-GyroZ	14-AccX	14-AccY	14-AccZ	14-GyroX	14-GyroY	14-GyroZ	15-AccX	15-AccY	15-AccZ	15-GyroX	15-GyroY	15-GyroZ	16-AccX	16-AccY	16-AccZ	16-GyroX	16-GyroY	16-GyroZ	17-AccX	17-AccY	17-AccZ	17-GyroX	17-GyroY	17-GyroZ
0	120	-0.200158940397351	0.0987549668874172	-0.919523178807947	-0.526622516556291	-0.984635761589404	-1.46490066225166				0.944953642384106	0.111788079470199	0.253139072847682	-0.966092715231788	1.42781456953642	0.81403973509934				-0.234172185430464	-0.0172715231788079	-0.88794701986755	0.287417218543046	0.706490066225167	-0.48026490066225				0	0	0	0	0	0				0.964026490066225	0.0834966887417219	0.181933774834437	-0.328211920529802	-1.62807947019868	-0.0574834437086077				0	0	0	0	0	0			
1	140	-0.216158940397351	0.0827549668874172	-0.951523178807947	-1.08662251655629	0.415364238410596	-0.904900662251656				0.960953642384106	0.127788079470199	0.269139072847682	-1.24609271523179	2.54781456953642	-0.0259602649006601				-0.250172185430464	-0.0172715231788079	-0.88794701986755	1.40741721854305	0.146490066225167	-0.20026490066225				0.512529801324503	-0.224529801324503	-0.789721854304636	2.20291390728477	1.3035761589404	-0.335629139072848				0.964026490066225	0.0674966887417219	0.181933774834437	-0.0482119205298018	-2.46807947019868	0.222516556291392				0.495788079470199	-0.142834437086093	-0.804238410596027	-0.259602649006623	1.27761589403974	-2.15470198675497			
2	160	-0.216158940397351	0.0987549668874172	-0.967523178807947	0.0333774834437086	0.695364238410596	-0.344900662251656				0.960953642384106	0.127788079470199	0.269139072847682	-2.08609271523179	2.82781456953642	0.25403973509934				-0.250172185430464	-0.0172715231788079	-0.88794701986755	0.00741721854304636	0.706490066225167	0.0797350993377501				0.512529801324503	-0.224529801324503	-0.789721854304636	1.64291390728477	1.0235761589404	0.224370860927152				0.948026490066225	0.0674966887417219	0.165933774834437	0.231788079470198	-2.74807947019868	-0.337483443708608				0.495788079470199	-0.126834437086093	-0.804238410596027	-1.65960264900662	0.437615894039735	-1.59470198675497			
3	180	-0.200158940397351	0.0987549668874172	-0.951523178807947	0.313377483443709	0.695364238410596	-1.18490066225166				0.960953642384106	0.127788079470199	0.269139072847682	-2.36609271523179	3.38781456953642	1.09403973509934				-0.234172185430464	-0.0332715231788079	-0.87194701986755	0.287417218543046	0.146490066225167	-0.20026490066225				0.496529801324503	-0.224529801324503	-0.805721854304636	0.522913907284768	0.1835761589404	-0.0556291390728476				0.948026490066225	0.0674966887417219	0.197933774834437	-1.1682119205298	-2.74807947019868	-0.0574834437086077				0.495788079470199	-0.126834437086093	-0.804238410596027	-1.37960264900662	0.157615894039735	-1.59470198675497			
4	200	-0.200158940397351	0.114754966887417	-0.935523178807947	-0.246622516556291	0.695364238410596	-0.0649006622516557				0.960953642384106	0.111788079470199	0.269139072847682	-1.52609271523179	3.10781456953642	1.09403973509934				-0.234172185430464	-0.00127152317880793	-0.88794701986755	-1.39258278145695	0.706490066225167	0.35973509933775				0.496529801324503	-0.224529801324503	-0.789721854304636	0.802913907284768	-0.9364238410596	0.504370860927152				0.964026490066225	0.0674966887417219	0.181933774834437	-1.4482119205298	-2.46807947019868	-0.337483443708608				0.495788079470199	-0.142834437086093	-0.804238410596027	-0.539602649006623	-0.122384105960265	-0.754701986754968			
5	220	-0.216158940397351	0.0987549668874172	-0.935523178807947	-0.806622516556291	-0.424635761589404	-0.904900662251656				0.960953642384106	0.111788079470199	0.269139072847682	-0.126092715231788	3.10781456953642	0.25403973509934				-0.234172185430464	-0.00127152317880793	-0.88794701986755	0.287417218543046	-0.133509933774833	-0.76026490066225				0.512529801324503	-0.224529801324503	-0.789721854304636	2.76291390728477	0.4635761589404	-0.0556291390728476				0.948026490066225	0.0674966887417219	0.181933774834437	-2.8482119205298	-2.46807947019868	0.782516556291392				0.495788079470199	-0.126834437086093	-0.804238410596027	-0.819602649006623	0.717615894039735	-0.474701986754968			
6	240	-0.216158940397351	0.0987549668874172	-0.967523178807947	0.313377483443709	0.415364238410596	-1.46490066225166				0.960953642384106	0.127788079470199	0.269139072847682	-0.686092715231788	3.38781456953642	-0.0259602649006601				-0.234172185430464	-0.0172715231788079	-0.88794701986755	1.40741721854305	-0.133509933774833	-0.20026490066225				0.512529801324503	-0.224529801324503	-0.773721854304636	0.242913907284768	0.7435761589404	-0.0556291390728476				0.948026490066225	0.0674966887417219	0.197933774834437	-0.608211920529802	-1.34807947019868	-0.0574834437086077				0.495788079470199	-0.126834437086093	-0.804238410596027	-1.65960264900662	0.717615894039735	0.0852980132450323			
7	260	-0.200158940397351	0.0987549668874172	-0.951523178807947	0.313377483443709	0.975364238410596	-1.18490066225166				0.960953642384106	0.127788079470199	0.269139072847682	-2.36609271523179	5.06781456953642	-0.30596026490066				-0.250172185430464	-0.0172715231788079	-0.87194701986755	1.40741721854305	0.426490066225167	-0.20026490066225				0.512529801324503	-0.224529801324503	-0.789721854304636	-0.317086092715232	-0.0964238410596001	-0.335629139072848				0.948026490066225	0.0674966887417219	0.181933774834437	-0.328211920529802	-1.34807947019868	-0.0574834437086077				0.495788079470199	-0.142834437086093	-0.804238410596027	-0.539602649006623	0.157615894039735	-0.194701986754968			
8	280	-0.200158940397351	0.0987549668874172	-0.951523178807947	-0.806622516556291	0.695364238410596	-1.18490066225166				0.960953642384106	0.111788079470199	0.285139072847682	-2.64609271523179	3.94781456953642	-0.0259602649006601				-0.250172185430464	-0.0172715231788079	-0.85594701986755	1.12741721854305	0.986490066225167	0.35973509933775				0.512529801324503	-0.224529801324503	-0.789721854304636	0.242913907284768	-0.6564238410596	0.224370860927152				0.948026490066225	0.0674966887417219	0.181933774834437	-0.0482119205298018	-1.06807947019868	-0.0574834437086077				0.495788079470199	-0.142834437086093	-0.804238410596027	-0.539602649006623	0.157615894039735	-0.474701986754968			
9	300	-0.200158940397351	0.0987549668874172	-0.935523178807947	0.0333774834437086	0.135364238410596	-0.904900662251656				0.944953642384106	0.111788079470199	0.285139072847682	-0.686092715231788	2.26781456953642	0.25403973509934				-0.234172185430464	-0.0172715231788079	-0.90394701986755	0.00741721854304636	-0.133509933774833	-0.48026490066225				0.512529801324503	-0.224529801324503	-0.789721854304636	0.802913907284768	0.1835761589404	-0.0556291390728476				0.948026490066225	0.0674966887417219	0.181933774834437	-0.328211920529802	-1.34807947019868	0.222516556291392				0.495788079470199	-0.142834437086093	-0.804238410596027	-0.259602649006623	-0.122384105960265	-0.754701986754968			
10	320	-0.216158940397351	0.0827549668874172	-0.951523178807947	0.0333774834437086	-0.704635761589404	-1.18490066225166				0.960953642384106	0.127788079470199	0.269139072847682	0.713907284768212	1.70781456953642	-0.0259602649006601				-0.250172185430464	-0.0332715231788079	-0.88794701986755	0.567417218543046	0.146490066225167	0.0797350993377501				0.512529801324503	-0.224529801324503	-0.789721854304636	1.36291390728477	0.4635761589404	-0.0556291390728476				0.948026490066225	0.0674966887417219	0.197933774834437	1.0717880794702	-1.06807947019868	-0.0574834437086077				0.495788079470199	-0.142834437086093	-0.788238410596027	-0.539602649006623	0.997615894039735	-0.754701986754968			
11	340	-0.216158940397351	0.0827549668874172	-0.951523178807947	-0.246622516556291	0.415364238410596	-0.904900662251656				0.960953642384106	0.127788079470199	0.269139072847682	0.993907284768212	2.26781456953642	0.53403973509934				-0.234172185430464	-0.0172715231788079	-0.88794701986755	0.287417218543046	0.146490066225167	0.0797350993377501				0.512529801324503	-0.224529801324503	-0.789721854304636	0.802913907284768	1.0235761589404	0.224370860927152				0.964026490066225	0.0834966887417219	0.149933774834437	0.511788079470198	-3.02807947019868	0.222516556291392				0.495788079470199	-0.126834437086093	-0.804238410596027	0.0203973509933773	0.157615894039735	-1.87470198675497			
12	360	-0.200158940397351	0.0827549668874172	-0.951523178807947	-0.806622516556291	0.415364238410596	-0.904900662251656				0.960953642384106	0.111788079470199	0.269139072847682	-1.24609271523179	5.06781456953642	1.09403973509934				-0.250172185430464	-0.0172715231788079	-0.88794701986755	-0.832582781456954	1.54649006622517	-0.20026490066225				0.512529801324503	-0.224529801324503	-0.789721854304636	1.64291390728477	-0.0964238410596001	-0.335629139072848				0.948026490066225	0.0674966887417219	0.213933774834437	-2.2882119205298	1.17192052980133	-0.337483443708608				0.495788079470199	-0.142834437086093	-0.820238410596026	-0.539602649006623	-0.402384105960265	-1.03470198675497			
13	380	-0.200158940397351	0.0987549668874172	-0.951523178807947	-1.08662251655629	0.135364238410596	-0.904900662251656				0.960953642384106	0.127788079470199	0.301139072847682	-3.48609271523179	2.82781456953642	0.81403973509934				-0.218172185430464	-0.0172715231788079	-0.88794701986755	0.847417218543046	0.706490066225167	-0.20026490066225				0.496529801324503	-0.224529801324503	-0.789721854304636	2.20291390728477	-0.3764238410596	-0.615629139072848				0.948026490066225	0.0674966887417219	0.165933774834437	-0.328211920529802	-0.228079470198675	-0.617483443708608				0.495788079470199	-0.126834437086093	-0.804238410596027	0.300397350993377	-0.682384105960265	-1.31470198675497			
14	400	-0.200158940397351	0.0987549668874172	-0.935523178807947	0.593377483443709	0.135364238410596	-0.0649006622516557				0.960953642384106	0.127788079470199	0.301139072847682	-1.24609271523179	-1.09218543046358	0.53403973509934				-0.234172185430464	-0.0172715231788079	-0.88794701986755	2.52741721854305	-0.133509933774833	-0.76026490066225				0.512529801324503	-0.224529801324503	-0.789721854304636	0.802913907284768	0.1835761589404	0.504370860927152				0.964026490066225	0.0674966887417219	0.165933774834437	-0.888211920529802	-0.228079470198675	-0.337483443708608				0.495788079470199	-0.126834437086093	-0.804238410596027	0.860397350993377	-0.122384105960265	-2.15470198675497			
15	420	-0.200158940397351	0.0987549668874172	-0.951523178807947	-0.246622516556291	-0.144635761589404	-0.0649006622516557				0.976953642384106	0.127788079470199	0.269139072847682	1.27390728476821	2.54781456953642	0.81403973509934				-0.234172185430464	-0.0172715231788079	-0.90394701986755	2.52741721854305	0.426490066225167	0.0797350993377501				0.512529801324503	-0.224529801324503	-0.789721854304636	0.522913907284768	0.4635761589404	0.504370860927152				0.964026490066225	0.0674966887417219	0.181933774834437	1.9117880794702	-1.34807947019868	1.34251655629139				0.511788079470199	-0.142834437086093	-0.804238410596027	0.0203973509933773	0.997615894039735	-1.31470198675497			
16	440	-0.216158940397351	0.0987549668874172	-0.951523178807947	0.0333774834437086	0.415364238410596	-1.18490066225166				0.960953642384106	0.127788079470199	0.285139072847682	0.433907284768212	3.38781456953642	1.37403973509934				-0.234172185430464	-0.00127152317880793	-0.88794701986755	0.287417218543046	0.426490066225167	-0.20026490066225				0.528529801324503	-0.224529801324503	-0.773721854304636	0.242913907284768	0.7435761589404	0.784370860927152				0.964026490066225	0.0514966887417219	0.181933774834437	0.231788079470198	-0.788079470198675	1.06251655629139				0.511788079470199	-0.142834437086093	-0.804238410596027	-0.819602649006623	0.717615894039735	-1.31470198675497			
17	460	-0.200158940397351	0.0827549668874172	-0.951523178807947	-0.526622516556291	0.695364238410596	-0.904900662251656				0.944953642384106	0.127788079470199	0.285139072847682	-0.686092715231788	3.66781456953642	0.81403973509934				-0.250172185430464	-0.0172715231788079	-0.88794701986755	-0.272582781456954	0.146490066225167	-0.20026490066225				0.528529801324503	-0.240529801324503	-0.789721854304636	3.32291390728477	0.7435761589404	1.06437086092715				0.964026490066225	0.0674966887417219	0.181933774834437	-0.328211920529802	-1.62807947019868	0.222516556291392				0.495788079470199	-0.142834437086093	-0.804238410596027	-0.819602649006623	-0.122384105960265	-1.03470198675497			
18	480	-0.200158940397351	0.0987549668874172	-0.903523178807947	0.593377483443709	0.415364238410596	-0.344900662251656				0.960953642384106	0.127788079470199	0.301139072847682	-0.406092715231788	2.26781456953642	1.37403973509934				-0.234172185430464	-0.0172715231788079	-0.88794701986755	1.12741721854305	0.146490066225167	0.91973509933775				0.528529801324503	-0.224529801324503	-0.789721854304636	1.92291390728477	1.0235761589404	0.224370860927152				0.932026490066225	0.0674966887417219	0.181933774834437	0.791788079470198	-1.06807947019868	0.502516556291392				0.511788079470199	-0.126834437086093	-0.788238410596027	-0.819602649006623	-0.682384105960265	-0.194701986754968			
19	500	-0.200158940397351	0.0987549668874172	-0.951523178807947	-0.526622516556291	0.415364238410596	-1.46490066225166				0.960953642384106	0.111788079470199	0.285139072847682	0.153907284768212	-0.252185430463576	0.81403973509934				-0.234172185430464	-0.0172715231788079	-0.88794701986755	1.12741721854305	-0.133509933774833	0.63973509933775				0.528529801324503	-0.224529801324503	-0.789721854304636	0.522913907284768	0.4635761589404	-0.615629139072848				0.964026490066225	0.0674966887417219	0.181933774834437	0.791788079470198	-0.788079470198675	-0.0574834437086077				0.511788079470199	-0.142834437086093	-0.804238410596027	0.0203973509933773	-1.24238410596026	-0.194701986754968			
20	520	-0.216158940397351	0.0987549668874172	-0.951523178807947	0.313377483443709	-0.144635761589404	-0.344900662251656				0.960953642384106	0.127788079470199	0.269139072847682	1.27390728476821	0.307814569536424	0.81403973509934				-0.234172185430464	-0.0172715231788079	-0.88794701986755	1.40741721854305	0.426490066225167	0.35973509933775				0.512529801324503	-0.224529801324503	-0.789721854304636	0.802913907284768	-1.2164238410596	-0.615629139072848				0.964026490066225	0.0674966887417219	0.197933774834437	0.231788079470198	-0.788079470198675	0.782516556291392				0.495788079470199	-0.142834437086093	-0.788238410596027	0.580397350993377	-0.122384105960265	-0.474701986754968			
21	540	-0.200158940397351	0.0827549668874172	-0.951523178807947	-0.246622516556291	0.415364238410596	-0.624900662251656				0.960953642384106	0.127788079470199	0.285139072847682	-0.126092715231788	2.54781456953642	0.25403973509934				-0.250172185430464	-0.0172715231788079	-0.88794701986755	-0.272582781456954	0.986490066225167	0.0797350993377501				0.512529801324503	-0.224529801324503	-0.789721854304636	0.242913907284768	-0.6564238410596	-0.0556291390728476				0.948026490066225	0.0674966887417219	0.181933774834437	-0.608211920529802	-1.62807947019868	-0.0574834437086077				0.495788079470199	-0.126834437086093	-0.788238410596027	-0.539602649006623	-0.122384105960265	0.365298013245032			
22	560	-0.184158940397351	0.0987549668874172	-0.935523178807947	-0.806622516556291	0.415364238410596	-1.18490066225166				0.960953642384106	0.127788079470199	0.285139072847682	-1.24609271523179	3.10781456953642	0.81403973509934				-0.234172185430464	-0.0172715231788079	-0.88794701986755	0.567417218543046	0.986490066225167	0.63973509933775				0.512529801324503	-0.224529801324503	-0.789721854304636	0.242913907284768	-0.9364238410596	0.224370860927152				0.948026490066225	0.0834966887417219	0.181933774834437	-0.888211920529802	-1.90807947019868	0.222516556291392				0.495788079470199	-0.126834437086093	-0.804238410596027	-0.259602649006623	-0.962384105960265	-0.474701986754968			
23	580	-0.216158940397351	0.0987549668874172	-0.935523178807947	-0.246622516556291	0.415364238410596	-0.344900662251656				0.944953642384106	0.111788079470199	0.301139072847682	0.433907284768212	1.42781456953642	0.25403973509934				-0.234172185430464	-0.0172715231788079	-0.88794701986755	0.567417218543046	0.706490066225167	0.63973509933775				0.512529801324503	-0.224529801324503	-0.789721854304636	0.802913907284768	-0.0964238410596001	-0.0556291390728476				0.964026490066225	0.0674966887417219	0.197933774834437	-0.888211920529802	-1.34807947019868	0.222516556291392				0.495788079470199	-0.142834437086093	-0.804238410596027	-0.259602649006623	-0.962384105960265	-1.31470198675497			
24	600	-0.216158940397351	0.0987549668874172	-0.951523178807947	0.0333774834437086	-0.424635761589404	-0.624900662251656				0.960953642384106	0.127788079470199	0.285139072847682	0.993907284768212	1.42781456953642	0.53403973509934				-0.234172185430464	-0.0172715231788079	-0.88794701986755	0.567417218543046	-0.413509933774833	0.35973509933775				0.512529801324503	-0.224529801324503	-0.789721854304636	1.08291390728477	1.0235761589404	-0.0556291390728476				0.964026490066225	0.0674966887417219	0.181933774834437	-1.4482119205298	0.331920529801325	0.782516556291392				0.495788079470199	-0.126834437086093	-0.804238410596027	-0.259602649006623	-0.962384105960265	-1.03470198675497			
25	620	-0.216158940397351	0.0987549668874172	-0.951523178807947	0.0333774834437086	-0.144635761589404	-1.18490066225166				0.960953642384106	0.127788079470199	0.301139072847682	0.713907284768212	1.42781456953642	0.81403973509934				-0.250172185430464	-0.0172715231788079	-0.88794701986755	0.00741721854304636	0.146490066225167	0.91973509933775				0.512529801324503	-0.224529801324503	-0.789721854304636	3.04291390728477	1.3035761589404	0.224370860927152				0.964026490066225	0.0674966887417219	0.165933774834437	-0.328211920529802	0.611920529801325	-1.17748344370861				0.495788079470199	-0.126834437086093	-0.804238410596027	0.300397350993377	-0.122384105960265	-1.87470198675497			
26	640	-0.200158940397351	0.0987549668874172	-0.951523178807947	-0.806622516556291	0.695364238410596	-1.18490066225166				0.960953642384106	0.127788079470199	0.285139072847682	-1.24609271523179	1.14781456953642	0.53403973509934				-0.250172185430464	-0.0172715231788079	-0.88794701986755	-0.272582781456954	0.706490066225167	0.35973509933775				0.512529801324503	-0.224529801324503	-0.789721854304636	3.04291390728477	0.4635761589404	-0.335629139072848				0.948026490066225	0.0674966887417219	0.181933774834437	0.231788079470198	-1.34807947019868	-0.897483443708608				0.495788079470199	-0.126834437086093	-0.820238410596026	1.14039735099338	0.717615894039735	-2.43470198675497			
27	660	-0.184158940397351	0.0987549668874172	-0.935523178807947	0.0333774834437086	0.975364238410596	-0.0649006622516557				0.944953642384106	0.127788079470199	0.301139072847682	-0.966092715231788	0.867814569536424	-0.0259602649006601				-0.234172185430464	-0.0172715231788079	-0.88794701986755	0.287417218543046	0.426490066225167	-0.48026490066225				0.512529801324503	-0.224529801324503	-0.789721854304636	0.802913907284768	-0.3764238410596	-0.335629139072848				0.964026490066225	0.0834966887417219	0.181933774834437	-0.0482119205298018	-0.508079470198675	1.06251655629139				0.495788079470199	-0.142834437086093	-0.804238410596027	-0.259602649006623	-0.402384105960265	-1.59470198675497			
28	680	-0.200158940397351	0.114754966887417	-0.935523178807947	-0.526622516556291	0.135364238410596	-0.624900662251656				0.944953642384106	0.127788079470199	0.285139072847682	1.55390728476821	-1.09218543046358	0.81403973509934				-0.234172185430464	-0.0172715231788079	-0.88794701986755	0.287417218543046	-0.693509933774834	0.35973509933775				0.512529801324503	-0.224529801324503	-0.789721854304636	-0.0370860927152318	-0.0964238410596001	-0.0556291390728476				0.964026490066225	0.0674966887417219	0.165933774834437	-0.608211920529802	-0.508079470198675	0.502516556291392				0.495788079470199	-0.126834437086093	-0.804238410596027	0.0203973509933773	0.157615894039735	-1.31470198675497			
29	700	-0.216158940397351	0.0987549668874172	-0.951523178807947	-0.246622516556291	-0.424635761589404	-0.904900662251656				0.944953642384106	0.127788079470199	0.285139072847682	1.83390728476821	0.307814569536424	1.09403973509934				-0.234172185430464	-0.0332715231788079	-0.88794701986755	0.567417218543046	0.426490066225167	-0.20026490066225				0.512529801324503	-0.240529801324503	-0.789721854304636	1.92291390728477	0.1835761589404	-0.0556291390728476				0.964026490066225	0.0674966887417219	0.165933774834437	0.511788079470198	-1.06807947019868	1.06251655629139				0.495788079470199	-0.142834437086093	-0.820238410596026	-1.09960264900662	2.11761589403974	-0.754701986754968			
30	720	-0.216158940397351	0.0987549668874172	-0.951523178807947	0.873377483443709	0.415364238410596	-0.904900662251656				0.960953642384106	0.127788079470199	0.285139072847682	-0.406092715231788	2.54781456953642	0.81403973509934				-0.250172185430464	-0.0172715231788079	-0.88794701986755	0.00741721854304636	0.706490066225167	-0.76026490066225				0.512529801324503	-0.240529801324503	-0.789721854304636	0.802913907284768	0.1835761589404	0.224370860927152				0.948026490066225	0.0674966887417219	0.181933774834437	0.231788079470198	-1.90807947019868	0.222516556291392				0.495788079470199	-0.142834437086093	-0.804238410596027	0.0203973509933773	0.717615894039735	-0.194701986754968			
31	740	-0.200158940397351	0.0827549668874172	-0.935523178807947	0.593377483443709	0.695364238410596	-1.18490066225166				0.944953642384106	0.127788079470199	0.301139072847682	-1.24609271523179	1.70781456953642	0.53403973509934				-0.234172185430464	-0.0172715231788079	-0.88794701986755	0.00741721854304636	-0.413509933774833	-0.48026490066225				0.512529801324503	-0.224529801324503	-0.789721854304636	0.522913907284768	-0.6564238410596	0.224370860927152				0.932026490066225	0.0674966887417219	0.181933774834437	1.0717880794702	-2.18807947019868	-0.337483443708608				0.495788079470199	-0.142834437086093	-0.804238410596027	0.0203973509933773	-0.682384105960265	-0.474701986754968			
32	760	-0.200158940397351	0.0827549668874172	-0.935523178807947	-0.526622516556291	0.695364238410596	-1.18490066225166				0.944953642384106	0.111788079470199	0.285139072847682	0.433907284768212	-0.812185430463576	1.09403973509934				-0.234172185430464	-0.0172715231788079	-0.88794701986755	1.40741721854305	-1.25350993377483	-0.20026490066225				0.512529801324503	-0.224529801324503	-0.789721854304636	-0.0370860927152318	-1.2164238410596	0.784370860927152				0.948026490066225	0.0674966887417219	0.181933774834437	-0.328211920529802	-1.62807947019868	-0.0574834437086077				0.495788079470199	-0.142834437086093	-0.804238410596027	-1.09960264900662	-1.24238410596026	0.925298013245032			
33	780	-0.200158940397351	0.0987549668874172	-0.951523178807947	-0.526622516556291	-0.984635761589404	-0.624900662251656				0.944953642384106	0.111788079470199	0.301139072847682	1.27390728476821	-2.21218543046358	0.25403973509934				-0.234172185430464	-0.0332715231788079	-0.87194701986755	0.287417218543046	-0.413509933774833	-0.48026490066225				0.512529801324503	-0.224529801324503	-0.773721854304636	-1.15708609271523	-0.6564238410596	0.784370860927152				0.964026490066225	0.0514966887417219	0.165933774834437	-0.328211920529802	-1.06807947019868	0.222516556291392				0.511788079470199	-0.142834437086093	-0.804238410596027	-0.819602649006623	-0.962384105960265	1.20529801324503			
34	800	-0.200158940397351	0.0987549668874172	-0.951523178807947	0.873377483443709	-0.144635761589404	-0.344900662251656				0.944953642384106	0.127788079470199	0.269139072847682	0.433907284768212	0.0278145695364242	0.53403973509934				-0.234172185430464	-0.0172715231788079	-0.88794701986755	-1.11258278145695	-0.693509933774834	0.35973509933775				0.496529801324503	-0.240529801324503	-0.773721854304636	0.802913907284768	-0.3764238410596	1.62437086092715				0.948026490066225	0.0514966887417219	0.181933774834437	0.231788079470198	-1.06807947019868	-0.337483443708608				0.495788079470199	-0.126834437086093	-0.804238410596027	0.300397350993377	-0.682384105960265	0.645298013245032			
35	820	-0.200158940397351	0.0987549668874172	-0.951523178807947	0.593377483443709	0.695364238410596	-0.624900662251656				0.960953642384106	0.111788079470199	0.285139072847682	-0.406092715231788	2.26781456953642	0.53403973509934				-0.250172185430464	-0.0172715231788079	-0.90394701986755	-0.832582781456954	0.146490066225167	0.63973509933775				0.512529801324503	-0.224529801324503	-0.773721854304636	-1.15708609271523	-0.3764238410596	1.34437086092715				0.932026490066225	0.0674966887417219	0.197933774834437	1.3517880794702	-0.508079470198675	0.502516556291392				0.495788079470199	-0.126834437086093	-0.804238410596027	1.14039735099338	-0.402384105960265	0.365298013245032			
36	840	-0.200158940397351	0.114754966887417	-0.935523178807947	-0.526622516556291	0.135364238410596	-0.0649006622516557				0.960953642384106	0.111788079470199	0.317139072847682	0.153907284768212	0.0278145695364242	0.25403973509934				-0.234172185430464	-0.0332715231788079	-0.88794701986755	0.00741721854304636	-0.133509933774833	0.35973509933775				0.512529801324503	-0.224529801324503	-0.789721854304636	-1.15708609271523	-1.2164238410596	1.34437086092715				0.948026490066225	0.0674966887417219	0.181933774834437	0.791788079470198	0.611920529801325	0.782516556291392				0.495788079470199	-0.126834437086093	-0.804238410596027	0.0203973509933773	-0.122384105960265	0.645298013245032			
37	860	-0.200158940397351	0.0987549668874172	-0.935523178807947	-0.806622516556291	-0.144635761589404	-0.904900662251656				0.944953642384106	0.127788079470199	0.301139072847682	1.55390728476821	-2.21218543046358	0.81403973509934				-0.234172185430464	-0.0172715231788079	-0.88794701986755	0.567417218543046	0.986490066225167	0.0797350993377501				0.512529801324503	-0.224529801324503	-0.789721854304636	-1.15708609271523	-0.3764238410596	0.224370860927152				0.964026490066225	0.0674966887417219	0.181933774834437	0.511788079470198	0.0519205298013249	0.222516556291392				0.495788079470199	-0.142834437086093	-0.804238410596027	0.0203973509933773	-0.402384105960265	-0.194701986754968			
38	880	-0.216158940397351	0.0827549668874172	-0.951523178807947	0.593377483443709	-0.424635761589404	-1.46490066225166				0.976953642384106	0.111788079470199	0.269139072847682	1.55390728476821	-2.49218543046358	-0.0259602649006601				-0.250172185430464	-0.0172715231788079	-0.88794701986755	-0.272582781456954	0.146490066225167	0.0797350993377501				0.512529801324503	-0.224529801324503	-0.789721854304636	-0.0370860927152318	0.1835761589404	0.224370860927152				0.964026490066225	0.0674966887417219	0.165933774834437	0.791788079470198	-0.508079470198675	0.782516556291392				0.495788079470199	-0.142834437086093	-0.820238410596026	0.580397350993377	0.157615894039735	-0.754701986754968			
39	900	-0.216158940397351	0.0827549668874172	-0.967523178807947	1.15337748344371	0.695364238410596	-0.904900662251656				0.960953642384106	0.127788079470199	0.301139072847682	0.713907284768212	0.587814569536424	0.53403973509934				-0.250172185430464	-0.0172715231788079	-0.90394701986755	-0.552582781456954	1.26649006622517	0.0797350993377501				0.512529801324503	-0.224529801324503	-0.789721854304636	0.242913907284768	1.3035761589404	1.06437086092715				0.964026490066225	0.0674966887417219	0.165933774834437	1.3517880794702	-0.228079470198675	0.222516556291392				0.479788079470199	-0.142834437086093	-0.804238410596027	1.14039735099338	0.717615894039735	-1.31470198675497			
40	920	-0.200158940397351	0.0987549668874172	-0.935523178807947	-1.08662251655629	0.975364238410596	-1.46490066225166				0.960953642384106	0.111788079470199	0.285139072847682	-1.24609271523179	-0.252185430463576	1.09403973509934				-0.250172185430464	-0.0172715231788079	-0.90394701986755	-1.11258278145695	0.426490066225167	-0.20026490066225				0.512529801324503	-0.224529801324503	-0.789721854304636	0.242913907284768	-0.0964238410596001	2.18437086092715				0.948026490066225	0.0834966887417219	0.197933774834437	-2.8482119205298	3.13192052980133	-0.617483443708608				0.495788079470199	-0.142834437086093	-0.804238410596027	1.42039735099338	0.437615894039735	0.0852980132450323			
41	940	0	0	0	0	0	0				0	0	0	0	0	0				0	0	0	0	0	0				0.496529801324503	-0.224529801324503	-0.789721854304636	2.20291390728477	0.4635761589404	1.06437086092715				0.948026490066225	0.0674966887417219	0.165933774834437	0.511788079470198	-0.228079470198675	1.06251655629139				0.495788079470199	-0.142834437086093	-0.804238410596027	1.42039735099338	-0.962384105960265	0.645298013245032			
42	960	0	0	0	0	0	0				0	0	0	0	0	0				0	0	0	0	0	0				0.496529801324503	-0.224529801324503	-0.805721854304636	0.522913907284768	1.5835761589404	0.784370860927152				0.964026490066225	0.0674966887417219	0.149933774834437	-2.0082119205298	0.331920529801325	-0.617483443708608				0.495788079470199	-0.142834437086093	-0.804238410596027	0.0203973509933773	-0.962384105960265	-0.194701986754968			
43	1080	-0.200158940397351	0.0987549668874172	-0.951523178807947	-2.20662251655629	0.415364238410596	-0.904900662251656				0.960953642384106	0.127788079470199	0.269139072847682	1.27390728476821	0.0278145695364242	0.53403973509934				-0.250172185430464	-0.0172715231788079	-0.91994701986755	-9.23258278145695	1.82649006622517	0.91973509933775				0	0	0	0	0	0				0.948026490066225	0.0674966887417219	0.181933774834437	1.0717880794702	0.331920529801325	-0.337483443708608				0	0	0	0	0	0			
44	1100	-0.216158940397351	0.0987549668874172	-0.935523178807947	-0.246622516556291	0.415364238410596	-0.0649006622516557				0.960953642384106	0.127788079470199	0.269139072847682	1.83390728476821	1.98781456953642	1.09403973509934				-0.234172185430464	-0.00127152317880793	-0.88794701986755	-10.352582781457	2.94649006622517	1.75973509933775				0.512529801324503	-0.224529801324503	-0.789721854304636	-0.597086092715232	-0.9364238410596	0.224370860927152				0.948026490066225	0.0674966887417219	0.181933774834437	1.0717880794702	0.331920529801325	0.782516556291392				0.495788079470199	-0.142834437086093	-0.788238410596027	0.580397350993377	-0.402384105960265	0.645298013245032			
45	1120	-0.200158940397351	0.0827549668874172	-0.935523178807947	0.873377483443709	0.415364238410596	-0.0649006622516557				0.960953642384106	0.111788079470199	0.269139072847682	0.713907284768212	1.98781456953642	0.25403973509934				-0.218172185430464	0.0147284768211921	-0.88794701986755	-11.472582781457	3.78649006622517	2.59973509933775				0.496529801324503	-0.224529801324503	-0.773721854304636	-0.597086092715232	0.4635761589404	0.224370860927152				0.948026490066225	0.0674966887417219	0.181933774834437	-0.328211920529802	0.331920529801325	0.502516556291392				0.495788079470199	-0.142834437086093	-0.788238410596027	0.0203973509933773	-1.24238410596026	1.20529801324503			
46	1140	-0.216158940397351	0.0667549668874172	-0.951523178807947	-0.526622516556291	-0.424635761589404	0.495099337748344				0.944953642384106	0.127788079470199	0.285139072847682	-1.24609271523179	0.0278145695364242	-0.86596026490066				-0.218172185430464	-0.0172715231788079	-0.88794701986755	-6.99258278145695	4.06649006622517	2.31973509933775				0.512529801324503	-0.240529801324503	-0.789721854304636	0.522913907284768	0.4635761589404	-0.335629139072848				0.964026490066225	0.0514966887417219	0.181933774834437	-0.608211920529802	1.17192052980133	-0.337483443708608				0.495788079470199	-0.142834437086093	-0.788238410596027	-0.819602649006623	-0.402384105960265	1.48529801324503			
47	1160	-0.200158940397351	0.0827549668874172	-0.951523178807947	-1.36662251655629	-0.144635761589404	1.33509933774834				0.944953642384106	0.111788079470199	0.269139072847682	-1.80609271523179	1.42781456953642	0.25403973509934				-0.234172185430464	-0.00127152317880793	-0.90394701986755	-9.23258278145695	3.22649006622517	1.75973509933775				0.496529801324503	-0.240529801324503	-0.789721854304636	0.522913907284768	1.8635761589404	1.06437086092715				0.948026490066225	0.0674966887417219	0.181933774834437	-1.1682119205298	2.01192052980133	-0.897483443708608				0.495788079470199	-0.110834437086093	-0.804238410596027	0.300397350993377	-0.682384105960265	0.365298013245032			
48	1180	-0.200158940397351	0.0987549668874172	-0.951523178807947	-1.08662251655629	0.135364238410596	1.33509933774834				0.960953642384106	0.111788079470199	0.301139072847682	-1.80609271523179	3.66781456953642	1.65403973509934				-0.250172185430464	-0.00127152317880793	-0.91994701986755	-8.67258278145695	1.26649006622517	1.47973509933775				0.512529801324503	-0.240529801324503	-0.789721854304636	-0.0370860927152318	1.0235761589404	2.46437086092715				0.948026490066225	0.0674966887417219	0.165933774834437	-0.888211920529802	2.85192052980133	-0.617483443708608				0.495788079470199	-0.142834437086093	-0.820238410596026	2.26039735099338	-2.08238410596027	0.645298013245032			
49	1200	-0.200158940397351	0.0987549668874172	-0.951523178807947	-1.92662251655629	-0.144635761589404	0.495099337748344				0.960953642384106	0.0797880794701987	0.285139072847682	-2.64609271523179	3.66781456953642	0.53403973509934				-0.218172185430464	0.0147284768211921	-0.88794701986755	-4.47258278145695	-0.413509933774833	0.63973509933775				0.512529801324503	-0.224529801324503	-0.789721854304636	0.242913907284768	-2.3364238410596	3.02437086092715				0.948026490066225	0.0674966887417219	0.165933774834437	-0.888211920529802	2.57192052980133	-0.617483443708608				0.495788079470199	-0.142834437086093	-0.804238410596027	1.70039735099338	-2.08238410596027	3.44529801324503			
50	1220	-0.216158940397351	0.114754966887417	-0.951523178807947	-3.04662251655629	0.135364238410596	1.89509933774834				0.992953642384106	0.127788079470199	0.285139072847682	-4.32609271523179	1.42781456953642	0.25403973509934				-0.250172185430464	0.0307284768211921	-0.90394701986755	5.88741721854305	-2.65350993377483	0.91973509933775				0.480529801324503	-0.240529801324503	-0.821721854304636	0.802913907284768	-5.4164238410596	3.30437086092715				0.964026490066225	0.0674966887417219	0.165933774834437	-1.1682119205298	2.01192052980133	-2.29748344370861				0.495788079470199	-0.158834437086093	-0.820238410596026	-3.33960264900662	-4.04238410596027	4.00529801324503			
51	1240	-0.200158940397351	0.0987549668874172	-0.951523178807947	-1.36662251655629	0.695364238410596	1.33509933774834				0.976953642384106	0.143788079470199	0.269139072847682	-1.24609271523179	-5.85218543046358	1.93403973509934				-0.234172185430464	-0.0172715231788079	-0.91994701986755	11.767417218543	-3.77350993377483	0.0797350993377501				0.496529801324503	-0.240529801324503	-0.821721854304636	-1.15708609271523	-3.7364238410596	4.42437086092715				0.980026490066225	0.0674966887417219	0.165933774834437	-2.5682119205298	2.29192052980133	-0.337483443708608				0.495788079470199	-0.142834437086093	-0.836238410596026	-2.77960264900662	-7.40238410596027	4.00529801324503			
52	1260	-0.168158940397351	0.114754966887417	-0.951523178807947	-0.526622516556291	2.3753642384106	1.61509933774834				0.976953642384106	0.127788079470199	0.253139072847682	-2.36609271523179	-4.45218543046358	4.45403973509934				-0.234172185430464	-0.0332715231788079	-0.93594701986755	18.767417218543	-3.77350993377483	-1.32026490066225				0.496529801324503	-0.272529801324503	-0.821721854304636	-1.71708609271523	-4.2964238410596	4.70437086092715				0.964026490066225	0.0674966887417219	0.133933774834437	-4.5282119205298	4.53192052980133	-1.17748344370861				0.495788079470199	-0.158834437086093	-0.852238410596026	-6.69960264900662	-7.68238410596027	6.80529801324503			
53	1280	-0.184158940397351	0.114754966887417	-0.951523178807947	-1.08662251655629	1.2553642384106	3.01509933774834				0.976953642384106	0.127788079470199	0.269139072847682	-2.64609271523179	-1.65218543046358	6.13403973509934				-0.266172185430464	-0.0812715231788079	-0.93594701986755	38.0874172185431	-11.6135099337748	-2.16026490066225				0.480529801324503	-0.240529801324503	-0.837721854304636	-3.67708609271523	-5.1364238410596	6.38437086092715				0.980026490066225	0.0674966887417219	0.149933774834437	-3.4082119205298	6.49192052980132	-0.617483443708608				0.479788079470199	-0.174834437086093	-0.884238410596026	-7.25960264900662	-5.72238410596027	12.405298013245			
54	1300	-0.232158940397351	0.0987549668874172	-0.919523178807947	0.313377483443709	0.135364238410596	1.89509933774834				0.992953642384106	0.143788079470199	0.269139072847682	-0.406092715231788	-4.45218543046358	8.09403973509934				-0.266172185430464	-0.0972715231788079	-0.91994701986755	45.927417218543	-15.8135099337748	-1.88026490066225				0.464529801324503	-0.256529801324503	-0.821721854304636	-1.43708609271523	-5.9764238410596	7.22437086092715				0.980026490066225	0.0674966887417219	0.149933774834437	-6.7682119205298	3.97192052980133	-2.01748344370861				0.463788079470199	-0.158834437086093	-0.884238410596026	-9.77960264900662	-14.1223841059603	15.205298013245			
55	1320	-0.232158940397351	0.0987549668874172	-0.935523178807947	-3.88662251655629	0.415364238410596	1.61509933774834				0.992953642384106	0.127788079470199	0.253139072847682	-1.24609271523179	-5.01218543046358	10.0540397350993				-0.170172185430464	0.0627284768211921	-0.96794701986755	61.3274172185431	-23.9335099337748	-23.4402649006623				0.464529801324503	-0.288529801324503	-0.853721854304636	2.76291390728477	-11.0164238410596	8.62437086092715				0.964026490066225	0.0674966887417219	0.117933774834437	-7.3282119205298	6.77192052980133	-2.29748344370861				0.479788079470199	-0.158834437086093	-0.932238410596026	-12.8596026490066	-20.2823841059603	19.405298013245			
56	1340	-0.216158940397351	0.0987549668874172	-0.967523178807947	-2.48662251655629	1.5353642384106	1.33509933774834				0.992953642384106	0.127788079470199	0.221139072847682	-3.48609271523179	-10.3321854304636	6.13403973509934				-0.330172185430464	-0.209271523178808	-0.91994701986755	60.7674172185431	-27.8535099337748	-19.2402649006623				0.448529801324503	-0.288529801324503	-0.885721854304636	-1.99708609271523	-14.3764238410596	10.0243708609272				0.948026490066225	0.0674966887417219	0.133933774834437	-7.3282119205298	12.6519205298013	-1.73748344370861				0.479788079470199	-0.158834437086093	-0.948238410596026	-8.93960264900662	-26.7223841059603	24.165298013245			
57	1360	-0.168158940397351	0.114754966887417	-0.935523178807947	-4.16662251655629	2.6553642384106	2.73509933774834				0.992953642384106	0.0637880794701987	0.205139072847682	-6.84609271523179	-12.2921854304636	5.85403973509934				-0.554172185430464	-0.337271523178808	-0.80794701986755	68.047417218543	-30.6535099337748	-2.72026490066225				0.464529801324503	-0.288529801324503	-0.869721854304636	-10.3970860927152	-18.8564238410596	8.62437086092715				0.964026490066225	0.0514966887417219	0.149933774834437	-6.2082119205298	19.0919205298013	-0.337483443708608				0.447788079470199	-0.142834437086093	-0.932238410596026	-2.77960264900662	-28.1223841059603	30.325298013245			
58	1380	-0.152158940397351	0.0827549668874172	-0.935523178807947	-6.96662251655629	2.3753642384106	4.41509933774834				1.00895364238411	0.0477880794701987	0.189139072847682	-13.0060927152318	-8.09218543046358	7.53403973509934				0.325827814569536	0.0467284768211921	-0.69594701986755	-27.992582781457	-12.1735099337748	37.5997350993377				0.448529801324503	-0.288529801324503	-0.901721854304636	-15.4370860927152	-22.2164238410596	8.90437086092715				1.01202649006623	0.0354966887417219	0.149933774834437	-5.0882119205298	17.4119205298013	-0.337483443708608				0.447788079470199	-0.110834437086093	-0.996238410596026	-6.41960264900662	-35.4023841059603	30.885298013245			
59	1400	-0.200158940397351	0.0667549668874172	-0.935523178807947	-7.24662251655629	0.695364238410596	5.53509933774834				1.05695364238411	0.0957880794701987	0.157139072847682	-13.5660927152318	-5.29218543046358	9.77403973509934				-0.154172185430464	0.0307284768211921	-0.79194701986755	-38.352582781457	-3.21350993377483	18.8397350993378				0.416529801324503	-0.320529801324503	-0.933721854304636	-15.4370860927152	-22.7764238410596	11.7043708609272				1.02802649006623	0.0194966887417219	0.133933774834437	-10.6882119205298	9.85192052980133	-0.617483443708608				0.447788079470199	-0.142834437086093	-1.01223841059603	-5.85960264900662	-49.9623841059603	33.685298013245			
60	1420	-0.248158940397351	0.0507549668874172	-0.935523178807947	-7.52662251655629	1.2553642384106	5.25509933774834				1.08895364238411	0.143788079470199	0.0611390728476822	-15.8060927152318	-10.0521854304636	6.41403973509934				-0.298172185430464	-0.00127152317880793	-0.91994701986755	-24.072582781457	-0.693509933774834	20.2397350993378				0.400529801324503	-0.320529801324503	-0.933721854304636	-17.1170860927152	-26.1364238410596	15.6243708609272				1.02802649006623	0.0514966887417219	0.0859337748344371	-13.7682119205298	8.17192052980133	-0.337483443708608				0.383788079470199	-0.158834437086093	-1.06023841059603	4.78039735099338	-59.2023841059603	38.725298013245			
61	1440	-0.264158940397351	0.0347549668874172	-0.967523178807947	-11.7266225165563	2.3753642384106	6.09509933774834				1.15295364238411	0.0637880794701987	0.157139072847682	-30.6460927152318	-33.0121854304636	9.21403973509934				-0.314172185430464	-0.0492715231788079	-0.93594701986755	-13.432582781457	0.146490066225167	19.9597350993378				0.368529801324503	-0.336529801324503	-0.965721854304636	-21.8770860927152	-33.1364238410596	18.9843708609272				1.01202649006623	0.0514966887417219	0.0379337748344371	-11.8082119205298	12.9319205298013	0.222516556291392				0.351788079470199	-0.110834437086093	-1.04423841059603	11.5003973509934	-59.7623841059603	43.205298013245			
62	1460	-0.296158940397351	0.0827549668874172	-0.983523178807947	-16.7666225165563	6.0153642384106	8.61509933774835				0.976953642384106	0.0957880794701987	0.0931390728476822	-62.5660927152318	8.14781456953643	12.0140397350993				-0.298172185430464	0.0147284768211921	-0.88794701986755	-13.432582781457	-0.133509933774833	17.1597350993378				0.320529801324503	-0.320529801324503	-1.01372185430464	-21.5970860927152	-39.8564238410596	22.0643708609272				1.04402649006623	0.0354966887417219	0.0699337748344371	-8.4482119205298	20.2119205298013	0.222516556291392				0.271788079470199	-0.126834437086093	-1.06023841059603	18.5003973509934	-77.6823841059603	46.285298013245			
63	1480	-0.312158940397351	0.0667549668874172	-0.951523178807947	-18.4466225165563	6.5753642384106	10.5750993377483				1.07295364238411	0.0637880794701987	0.141139072847682	-59.2060927152318	-15.9321854304636	25.1740397350993				-0.330172185430464	0.0467284768211921	-0.85594701986755	-8.39258278145695	1.82649006622517	13.5197350993378				0.320529801324503	-0.320529801324503	-1.09372185430464	-15.1570860927152	-42.9364238410596	28.5043708609272				1.09202649006623	0.0194966887417219	0.0539337748344371	-9.0082119205298	14.0519205298013	-2.29748344370861				0.255788079470199	-0.158834437086093	-1.07623841059603	3.38039735099338	-88.8823841059603	48.525298013245			
64	1500	-0.312158940397351	0.114754966887417	-1.03152317880795	-24.0466225165563	8.8153642384106	12.8150993377483				0.816953642384106	0.111788079470199	0.0291390728476822	-31.2060927152318	-5.01218543046358	31.0540397350993				-0.426172185430464	-0.0172715231788079	-0.88794701986755	-7.55258278145695	0.426490066225167	11.5597350993378				0.304529801324503	-0.416529801324503	-1.06172185430464	-18.2370860927152	-42.3764238410596	35.7843708609272				1.12402649006623	0.0194966887417219	0.0219337748344371	-17.6882119205298	7.05192052980133	-3.41748344370861				0.175788079470199	-0.174834437086093	-1.09223841059603	7.30039735099338	-87.2023841059603	55.245298013245			
65	1520	-0.280158940397351	0.0987549668874172	-1.11152317880795	-32.4466225165563	14.6953642384106	12.8150993377483				0.896953642384106	0.0317880794701987	0.205139072847682	-6.28609271523179	64.4278145695364	26.0140397350993				-0.410172185430464	-0.0492715231788079	-0.87194701986755	-10.912582781457	1.26649006622517	8.75973509933775				0.240529801324503	-0.448529801324503	-1.04572185430464	-48.7570860927152	-54.6964238410596	38.3043708609272				1.10802649006623	0.0194966887417219	0.00593377483443711	-17.1282119205298	5.65192052980133	3.30251655629139				0.111788079470199	-0.142834437086093	-1.06023841059603	19.0603973509934	-70.4023841059603	63.645298013245			
66	1540	-0.296158940397351	0.146754966887417	-0.999523178807947	-36.0866225165563	18.0553642384106	13.9350993377483				1.24895364238411	-0.000211920529801304	0.381139072847682	8.55390728476821	103.067814569536	17.8940397350993				-0.378172185430464	0.0307284768211921	-0.96794701986755	-17.352582781457	8.26649006622517	9.87973509933775				0.160529801324503	-0.272529801324503	-0.997721854304636	-79.2770860927152	-68.6964238410596	38.0243708609272				1.02802649006623	0.00349668874172187	0.0699337748344371	-12.6482119205298	21.8919205298013	8.34251655629139				0.0637880794701987	-0.0788344370860927	-1.09223841059603	23.2603973509934	-58.3623841059603	66.725298013245			
67	1560	-0.376158940397351	0.226754966887417	-1.22352317880795	-26.5666225165563	31.4953642384106	16.1750993377483				1.26495364238411	0.0477880794701987	0.157139072847682	-23.0860927152318	61.9078145695364	17.0540397350993				-0.474172185430464	0.0147284768211921	-1.30394701986755	-3.91258278145695	22.5464900662252	6.51973509933775				0.160529801324503	-0.176529801324503	-0.917721854304636	-74.2370860927152	-64.7764238410596	37.7443708609272				1.15602649006623	-0.0765033112582781	0.101933774834437	3.5917880794702	15.4519205298013	11.1425165562914				-0.0162119205298013	-0.0308344370860927	-1.12423841059603	32.5003973509934	-63.6823841059603	59.165298013245			
68	1580	-0.344158940397351	0.258754966887417	-0.727523178807947	-39.1666225165563	45.4953642384106	16.1750993377483				1.05695364238411	0.111788079470199	0.0611390728476822	-35.9660927152318	33.9078145695364	16.2140397350993				-0.458172185430464	0.0467284768211921	-1.07994701986755	26.8874172185431	43.8264900662252	0.0797350993377501				0.208529801324503	-0.128529801324503	-0.997721854304636	-34.7570860927152	-49.0964238410596	35.7843708609272				1.23602649006623	-0.0285033112582781	0.149933774834437	-2.2882119205298	16.5719205298013	3.30251655629139				-0.0962119205298013	-0.110834437086093	-1.04423841059603	56.3003973509934	-58.9223841059603	49.365298013245			
69	1600	-0.424158940397351	0.274754966887417	-0.903523178807947	-17.8866225165563	39.3353642384106	13.9350993377483				0.912953642384106	0.0477880794701987	0.445139072847682	-24.4860927152318	70.3078145695364	19.5740397350993				-0.538172185430464	-0.113271523178808	-0.83994701986755	-27.712582781457	37.6664900662252	6.51973509933775				0.240529801324503	-0.144529801324503	-0.997721854304636	-3.95708609271523	-28.6564238410596	29.6243708609272				1.25202649006623	0.0354966887417219	0.213933774834437	7.7917880794702	12.6519205298013	5.82251655629139				-0.0482119205298013	-0.350834437086093	-0.868238410596026	58.5403973509934	-27.8423841059603	54.685298013245			
70	1620	-0.456158940397351	0.258754966887417	-1.12752317880795	-28.8066225165563	44.0953642384106	13.3750993377483				1.10495364238411	0.0797880794701987	0.797139072847682	-9.92609271523179	109.507814569536	20.9740397350993				-0.602172185430464	0.0787284768211921	-1.11194701986755	-16.792582781457	43.5464900662252	9.87973509933775				0.352529801324503	-0.128529801324503	-1.02972185430464	20.6829139072848	-5.1364238410596	20.6643708609272				1.20402649006623	0.0994966887417219	0.165933774834437	3.3117880794702	14.0519205298013	5.82251655629139				0.207788079470199	-0.254834437086093	-0.916238410596027	26.0603973509934	-11.6023841059603	46.005298013245			
71	1640	-0.280158940397351	0.290754966887417	-0.999523178807947	-11.4466225165563	53.8953642384106	19.2550993377483				1.40895364238411	0.207788079470199	0.557139072847682	-2.36609271523179	69.1878145695364	15.0940397350993				-0.490172185430464	0.0147284768211921	-0.88794701986755	-10.352582781457	54.7464900662252	18.2797350993378				0.496529801324503	-0.160529801324503	-0.997721854304636	32.4429139072848	10.5435761589404	11.1443708609272				1.02802649006623	0.131496688741722	0.293933774834437	36.0717880794702	4.81192052980133	3.30251655629139				0.127788079470199	-0.142834437086093	-0.932238410596026	28.0203973509934	-3.48238410596027	23.045298013245			
72	1660	-0.232158940397351	0.242754966887417	-0.903523178807947	-5.00662251655629	60.0553642384106	20.9350993377483				1.21695364238411	0.0637880794701987	0.493139072847682	-24.4860927152318	27.1878145695364	-2.54596026490066				-0.346172185430464	0.0627284768211921	-0.93594701986755	-8.67258278145695	62.3064900662252	18.5597350993378				0.736529801324503	-0.208529801324503	-1.09372185430464	23.4829139072848	17.2635761589404	8.34437086092715				0.964026490066225	0.211496688741722	0.533933774834437	48.9517880794702	10.6919205298013	1.34251655629139				0.111788079470199	-0.206834437086093	-0.948238410596026	25.2203973509934	6.31761589403974	-0.474701986754968			
73	1680	-0.184158940397351	0.242754966887417	-1.01552317880795	-13.1266225165563	62.5753642384106	22.3350993377483				1.10495364238411	0.0317880794701987	0.781139072847682	-24.7660927152318	29.7078145695364	1.93403973509934				-0.186172185430464	0.142728476821192	-0.99994701986755	0.287417218543046	66.5064900662252	15.7597350993378				0.624529801324503	-0.176529801324503	-1.18972185430464	9.48291390728477	13.6235761589404	-1.73562913907285				1.15602649006623	0.195496688741722	0.725933774834437	24.0317880794702	31.4119205298013	-9.29748344370861				0.351788079470199	-0.446834437086093	-0.996238410596026	33.9003973509934	2.39761589403974	-3.55470198675497			
74	1700	-0.040158940397351	0.290754966887417	-1.04752317880795	-17.3266225165563	70.9753642384106	22.8950993377483				1.26495364238411	-0.0642119205298013	0.941139072847682	-0.126092715231788	22.9878145695364	20.9740397350993				-0.170172185430464	0.110728476821192	-0.99994701986755	36.1274172185431	69.0264900662252	12.1197350993378				0.624529801324503	-0.208529801324503	-1.14172185430464	5.28291390728477	26.7835761589404	-7.61562913907285				1.20402649006623	0.179496688741722	0.565933774834437	16.7517880794702	5.65192052980133	-10.1374834437086				0.511788079470199	-0.622834437086093	-1.02823841059603	6.46039735099338	1.83761589403974	-4.67470198675497			
75	1720	-0.040158940397351	0.306754966887417	-1.04752317880795	-8.36662251655629	78.2553642384106	25.4150993377483				1.15295364238411	-0.000211920529801304	0.509139072847682	-8.80609271523179	-10.6121854304636	15.3740397350993				-0.218172185430464	-0.0172715231788079	-0.99994701986755	36.967417218543	73.7864900662252	12.3997350993378				0.544529801324503	-0.208529801324503	-1.07772185430464	2.48291390728477	33.7835761589404	-5.93562913907285				1.10802649006623	0.259496688741722	0.357933774834437	14.5117880794702	-0.508079470198675	-11.5374834437086				0.511788079470199	-0.654834437086093	-0.996238410596026	-20.1396026490066	6.03761589403974	5.12529801324503			
76	1740	0.007841059602649	0.322754966887417	-0.999523178807947	13.1933774834437	80.2153642384106	25.4150993377483				0.896953642384106	-0.0962119205298013	0.445139072847682	-8.24609271523179	-27.4121854304636	-1.70596026490066				-0.154172185430464	-0.177271523178808	-1.03194701986755	4.48741721854305	79.6664900662252	16.0397350993378				0.432529801324503	-0.0645298013245033	-0.981721854304636	-7.59708609271523	24.8235761589404	6.38437086092715				1.06002649006623	0.115496688741722	0.517933774834437	32.7117880794702	10.6919205298013	-3.13748344370861				0.463788079470199	-0.622834437086093	-1.02823841059603	-38.3396026490066	7.15761589403974	22.205298013245			
77	1760	0.087841059602649	0.418754966887417	-1.03152317880795	26.3533774834437	85.8153642384106	23.1750993377483				1.12095364238411	-0.0802119205298013	0.877139072847682	-12.4460927152318	6.74781456953642	-9.54596026490066				-0.0421721854304636	-0.0972715231788079	-1.03194701986755	-9.51258278145695	88.3464900662252	15.4797350993378				0.336529801324503	-0.128529801324503	-1.02972185430464	-0.597086092715232	10.8235761589404	13.9443708609272				1.10802649006623	-0.0125033112582781	0.581933774834437	12.8317880794702	15.1719205298013	0.222516556291392				0.495788079470199	-0.510834437086093	-1.10823841059603	-22.9396026490066	6.03761589403974	32.565298013245			
78	1780	0.183841059602649	0.258754966887417	-1.06352317880795	32.2333774834437	93.9353642384106	20.9350993377483				1.26495364238411	-0.160211920529801	0.813139072847682	2.11390728476821	18.5078145695364	-5.34596026490066				0.0538278145695364	-0.0172715231788079	-1.01594701986755	-23.232582781457	95.6264900662252	12.3997350993378				0.448529801324503	-0.288529801324503	-1.07772185430464	-0.0370860927152318	12.5035761589404	21.2243708609272				1.17202649006623	0.00349668874172187	0.565933774834437	-9.8482119205298	8.17192052980133	-2.01748344370861				0.399788079470199	-0.478834437086093	-0.980238410596026	10.3803973509934	10.5176158940397	27.245298013245			
79	1800	0.231841059602649	0.258754966887417	-1.06352317880795	34.4733774834437	102.335364238411	19.8150993377483				1.08895364238411	-0.0322119205298013	0.621139072847682	-32.3260927152318	14.3078145695364	-7.86596026490066				0.0698278145695364	0.0947284768211921	-1.04794701986755	-17.352582781457	102.066490066225	11.2797350993378				0.560529801324503	-0.288529801324503	-1.09372185430464	5.28291390728477	25.6635761589404	24.0243708609272				1.22002649006623	0.0994966887417219	0.437933774834437	-21.8882119205298	8.73192052980133	-6.49748344370861				0.319788079470199	-0.430834437086093	-0.932238410596026	11.2203973509934	21.4376158940397	13.245298013245			
80	1820	0.263841059602649	0.242754966887417	-1.03152317880795	36.7133774834437	110.735364238411	19.5350993377483				1.07295364238411	-0.000211920529801304	0.525139072847682	-18.8860927152318	-14.5321854304636	-20.4659602649007				0.0858278145695364	0.0467284768211921	-0.96794701986755	3.92741721854305	108.226490066225	10.9997350993378				0.688529801324503	-0.224529801324503	-1.09372185430464	21.5229139072848	31.5435761589404	25.1443708609272				1.18802649006623	0.115496688741722	0.533933774834437	-10.4082119205298	7.05192052980133	-2.57748344370861				0.287788079470199	-0.478834437086093	-0.964238410596026	20.4603973509934	27.5976158940397	8.20529801324503			
81	1840	0.375841059602649	0.114754966887417	-0.999523178807947	33.9133774834437	114.375364238411	18.4150993377483				1.10495364238411	-0.112211920529801	0.733139072847682	-13.5660927152318	-8.65218543046358	-22.7059602649007				0.149827814569536	-0.0652715231788079	-0.99994701986755	5.32741721854305	113.266490066225	12.1197350993378				0.768529801324503	-0.192529801324503	-1.07772185430464	9.76291390728477	24.5435761589404	14.2243708609272				1.14002649006623	0.115496688741722	0.597933774834437	-17.9682119205298	2.01192052980133	-5.09748344370861				0.255788079470199	-0.574834437086093	-0.932238410596026	-3.61960264900662	42.7176158940397	6.52529801324503			
82	1860	0.455841059602649	0.194754966887417	-0.951523178807947	26.0733774834437	117.455364238411	15.0550993377483				1.07295364238411	-0.0802119205298013	0.797139072847682	-1.24609271523179	16.5478145695364	-12.9059602649007				0.229827814569536	-0.129271523178808	-0.93594701986755	-4.75258278145695	121.106490066225	12.9597350993378				0.768529801324503	-0.272529801324503	-1.01372185430464	-9.83708609271523	22.0235761589404	2.46437086092715				1.10802649006623	0.163496688741722	0.549933774834437	-22.1682119205298	-6.10807947019868	-6.77748344370861				0.271788079470199	-0.510834437086093	-0.948238410596026	-32.1796026490066	60.9176158940397	2.60529801324503			
83	1880	0.487841059602649	0.194754966887417	-0.935523178807947	24.6733774834437	125.295364238411	13.9350993377483				1.12095364238411	0.175788079470199	0.669139072847682	-20.5660927152318	17.6678145695364	-2.26596026490066				0.277827814569536	-0.0492715231788079	-0.91994701986755	-18.472582781457	121.946490066225	12.6797350993378				0.688529801324503	-0.256529801324503	-0.965721854304636	-18.7970860927152	30.7035761589404	-3.13562913907285				1.09202649006623	0.195496688741722	0.485933774834437	-22.1682119205298	-5.26807947019868	-7.05748344370861				0.319788079470199	-0.334834437086093	-0.948238410596026	-51.7796026490066	69.0376158940397	-3.55470198675497			
84	1900	0.599841059602649	0.130754966887417	-0.887523178807947	27.4733774834437	134.815364238411	12.8150993377483				1.08895364238411	0.0797880794701987	0.605139072847682	17.2339072847682	-21.8121854304636	-3.66596026490066				0.421827814569536	0.0627284768211921	-0.83994701986755	-15.112582781457	125.586490066225	12.3997350993378				0.544529801324503	-0.128529801324503	-0.933721854304636	-7.59708609271523	35.7435761589404	-2.01562913907285				1.02802649006623	0.195496688741722	0.453933774834437	-11.8082119205298	-5.26807947019868	-7.05748344370861				0.431788079470199	-0.238834437086093	-0.948238410596026	-37.7796026490066	63.1576158940397	-8.87470198675497			
85	1920	0.695841059602649	0.0667549668874172	-0.807523178807947	17.1133774834437	142.655364238411	9.45509933774835				1.13695364238411	-0.112211920529801	0.621139072847682	51.9539072847682	-42.8121854304636	-9.82596026490066				0.437827814569536	0.0787284768211921	-0.82394701986755	-3.35258278145695	127.826490066225	8.75973509933775				0.480529801324503	-0.128529801324503	-0.853721854304636	9.48291390728477	44.4235761589404	-1.73562913907285				1.01202649006623	0.163496688741722	0.453933774834437	-4.5282119205298	4.53192052980133	-8.17748344370861				0.463788079470199	-0.350834437086093	-0.916238410596027	-16.4996026490066	56.9976158940397	-10.554701986755			
86	1940	0	0	0	0	0	0				0	0	0	0	0	0				0	0	0	0	0	0				0.544529801324503	-0.176529801324503	-0.821721854304636	12.5629139072848	49.7435761589404	-2.01562913907285				1.01202649006623	0.0834966887417219	0.421933774834437	1.0717880794702	10.6919205298013	-9.01748344370861				0.431788079470199	-0.366834437086093	-0.884238410596026	-4.17960264900662	59.5176158940397	-11.394701986755			
87	1960	0	0	0	0	0	0				0	0	0	0	0	0				0	0	0	0	0	0				0.544529801324503	-0.160529801324503	-0.773721854304636	5.56291390728477	48.3435761589404	1.34437086092715				0	0	0	0	0	0				0.335788079470199	-0.318834437086093	-0.772238410596026	-11.7396026490066	67.6376158940397	-13.634701986755			
88	2060	0.487841059602649	0.00275496688741723	-0.567523178807947	8.43337748344371	126.975364238411	15.6150993377483				0.720953642384106	-0.0322119205298013	0.189139072847682	33.4739072847682	-110.292185430464	-11.5059602649007				0.421827814569536	0.0947284768211921	-0.56794701986755	0.847417218543046	147.426490066225	-18.1202649006623				0	0	0	0	0	0				0	0	0	0	0	0				0	0	0	0	0	0			
89	2080	0.519841059602649	0.114754966887417	-0.503523178807947	9.83337748344371	126.135364238411	11.9750993377483				0.624953642384106	-0.000211920529801304	-0.00286092715231785	35.4339072847682	-104.412185430464	-14.8659602649007				0.533827814569536	0.0627284768211921	-0.61594701986755	-3.07258278145695	134.266490066225	-20.0802649006623				0	0	0	0	0	0				0	0	0	0	0	0				0	0	0	0	0	0			
90	2100	0.599841059602649	0.162754966887417	-0.487523178807947	12.3533774834437	127.535364238411	10.2950993377483				0.608953642384106	0.127788079470199	0.109139072847682	26.4739072847682	-76.1321854304636	-14.0259602649007				0.485827814569536	0.0467284768211921	-0.67994701986755	11.207417218543	135.386490066225	-22.6002649006623				0	0	0	0	0	0				0.580026490066225	0.0834966887417219	0.309933774834437	-47.6482119205298	-39.9880794701987	-0.337483443708608				0.351788079470199	-0.0628344370860927	-0.628238410596026	-27.6996026490066	53.6376158940397	-21.194701986755			
91	2120	0.679841059602649	0.146754966887417	-0.407523178807947	10.9533774834437	127.255364238411	11.6950993377483				0.560953642384106	0.0477880794701987	0.0131390728476822	19.7539072847682	-70.5321854304636	-11.5059602649007				0.565827814569536	0.0147284768211921	-0.45594701986755	14.007417218543	143.506490066225	-18.9602649006623				0.320529801324503	-0.224529801324503	-0.453721854304636	28.8029139072848	37.4235761589404	2.74437086092715				0.580026490066225	0.115496688741722	0.101933774834437	-42.3282119205298	-48.6680794701987	3.58251655629139				0.319788079470199	-0.0788344370860927	-0.612238410596026	-33.0196026490066	58.9576158940397	-27.914701986755			
92	2140	0.743841059602649	0.0987549668874172	-0.391523178807947	13.1933774834437	126.975364238411	8.05509933774835				0.624953642384106	-0.0162119205298013	-0.00286092715231785	5.47390728476821	-61.2921854304636	-7.58596026490066				0.613827814569536	-0.0812715231788079	-0.48794701986755	-10.352582781457	133.426490066225	-16.4402649006623				0.272529801324503	-0.128529801324503	-0.501721854304636	41.1229139072848	37.4235761589404	-0.0556291390728476				0.596026490066225	0.0194966887417219	-0.0100662251655629	-24.6882119205298	-39.1480794701987	2.74251655629139				0.287788079470199	-0.0628344370860927	-0.548238410596027	-31.6196026490066	56.7176158940397	-28.754701986755			
93	2160	0.743841059602649	0.114754966887417	-0.407523178807947	11.5133774834437	124.455364238411	8.05509933774835				0.608953642384106	0.0797880794701987	0.0931390728476822	-1.52609271523179	-59.3321854304636	-15.9859602649007				0.565827814569536	-0.145271523178808	-0.34394701986755	-30.792582781457	132.026490066225	-13.9202649006623				0.304529801324503	-0.160529801324503	-0.533721854304636	56.2429139072848	35.7435761589404	3.58437086092715				0.580026490066225	0.0354966887417219	0.101933774834437	-14.3282119205298	-38.3080794701987	0.222516556291392				0.271788079470199	-0.0308344370860927	-0.564238410596026	-40.2996026490066	41.3176158940397	-32.114701986755			
94	2180	0.695841059602649	0.130754966887417	-0.359523178807947	13.7533774834437	115.495364238411	1.61509933774834				0.560953642384106	0.111788079470199	0.0611390728476822	0.993907284768212	-53.1721854304636	-12.9059602649007				0.517827814569536	-0.0332715231788079	-0.34394701986755	-37.792582781457	135.106490066225	-11.4002649006623				0.416529801324503	-0.288529801324503	-0.549721854304636	45.0429139072848	20.0635761589404	1.90437086092715				0.580026490066225	0.0834966887417219	0.133933774834437	-17.9682119205298	-38.8680794701987	1.06251655629139				0.287788079470199	-0.0628344370860927	-0.564238410596026	-43.0996026490066	40.1976158940397	-27.074701986755			
95	2200	0.663841059602649	0.210754966887417	-0.375523178807947	18.2333774834437	105.415364238411	-3.42490066225166				0.464953642384106	0.0797880794701987	0.0131390728476822	12.4739072847682	-62.6921854304636	-5.62596026490066				0.613827814569536	-0.0172715231788079	-0.27994701986755	-48.432582781457	122.506490066225	-2.16026490066225				0.448529801324503	-0.320529801324503	-0.533721854304636	20.1229139072848	10.2635761589404	-3.97562913907285				0.596026490066225	0.0674966887417219	0.0699337748344371	-17.4082119205298	-44.1880794701987	1.62251655629139				0.303788079470199	0.0171655629139073	-0.660238410596027	-53.1796026490066	33.7576158940397	-26.234701986755			
96	2220	0.711841059602649	0.162754966887417	-0.391523178807947	33.6333774834437	94.7753642384106	-6.50490066225166				0.432953642384106	0.0797880794701987	-0.0188609271523178	7.71390728476821	-58.2121854304636	-11.7859602649007				0.773827814569536	-0.00127152317880793	-0.37594701986755	-27.152582781457	109.066490066225	-3.56026490066225				0.320529801324503	-0.240529801324503	-0.469721854304636	5.28291390728477	-0.3764238410596	-0.895629139072848				0.564026490066225	0.0674966887417219	-0.0420662251655629	-10.9682119205298	-44.4680794701987	3.02251655629139				0.271788079470199	0.113165562913907	-0.612238410596026	-17.0596026490066	20.5976158940397	-21.474701986755			
97	2240	0.759841059602649	0.0667549668874172	-0.391523178807947	30.5533774834437	78.5353642384106	-4.82490066225166				0.560953642384106	0.127788079470199	-0.0188609271523178	3.51390728476821	-40.0121854304636	-17.1059602649007				0.421827814569536	-0.00127152317880793	-0.37594701986755	7.84741721854305	93.1064900662252	-5.80026490066225				0.272529801324503	-0.192529801324503	-0.533721854304636	14.5229139072848	-16.6164238410596	1.90437086092715				0.564026490066225	0.00349668874172187	0.00593377483443711	6.3917880794702	-31.0280794701987	3.58251655629139				0.239788079470199	0.0651655629139073	-0.644238410596026	-9.77960264900662	0.997615894039735	-21.754701986755			
98	2260	0.807841059602649	-0.0612450331125828	-0.375523178807947	23.5533774834437	65.6553642384106	-2.02490066225166				0.752953642384106	0.111788079470199	0.0931390728476822	3.79390728476821	-13.4121854304636	-7.86596026490066				0.805827814569536	0.0467284768211921	-0.39194701986755	-1.11258278145695	71.5464900662252	-2.44026490066225				0.320529801324503	-0.272529801324503	-0.565721854304636	19.5629139072848	-15.4964238410596	1.34437086092715				0.644026490066225	0.00349668874172187	0.0859337748344371	8.6317880794702	-34.9480794701987	1.34251655629139				0.303788079470199	-0.0468344370860927	-0.708238410596026	-3.05960264900662	-7.12238410596027	-24.554701986755			
99	2280	0.887841059602649	-0.173245033112583	-0.391523178807947	18.2333774834437	58.3753642384106	3.57509933774835				0.800953642384106	0.0957880794701987	0.0291390728476822	10.7939072847682	-6.41218543046358	-4.22596026490066				0.853827814569536	0.0307284768211921	-0.37594701986755	-2.23258278145695	62.3064900662252	3.15973509933775				0.336529801324503	-0.320529801324503	-0.533721854304636	12.8429139072848	-10.1764238410596	-4.25562913907285				0.692026490066225	0.0514966887417219	-0.0100662251655629	6.9517880794702	-36.9080794701987	1.34251655629139				0.351788079470199	-0.0788344370860927	-0.628238410596026	-10.6196026490066	-4.32238410596027	-20.634701986755			
100	2300	0.903841059602649	-0.205245033112583	-0.343523178807947	1.99337748344371	54.4553642384106	11.1350993377483				0.848953642384106	0.0477880794701987	0.0131390728476822	8.83390728476821	-15.3721854304636	-13.4659602649007				1.02982781456954	-0.0172715231788079	-0.43994701986755	6.72741721854305	39.6264900662252	7.07973509933775				0.320529801324503	-0.256529801324503	-0.581721854304636	12.8429139072848	-11.8564238410596	-5.65562913907285				0.740026490066225	0.0514966887417219	0.0219337748344371	8.9117880794702	-14.7880794701987	0.222516556291392				0.383788079470199	0.00116556291390731	-0.644238410596026	-25.7396026490066	0.997615894039735	-17.554701986755			
101	2320	0.935841059602649	-0.125245033112583	-0.247523178807947	-9.20662251655629	54.7353642384106	12.5350993377483				1.00895364238411	0.0477880794701987	0.0611390728476822	-11.6060927152318	-8.65218543046358	-18.7859602649007				1.09382781456954	-0.0332715231788079	-0.39194701986755	12.327417218543	29.8264900662252	9.31973509933775				0.416529801324503	-0.288529801324503	-0.661721854304636	20.6829139072848	-4.0164238410596	-0.0556291390728476				0.820026490066225	0.0194966887417219	0.197933774834437	11.4317880794702	-7.50807947019868	-1.45748344370861				0.479788079470199	-0.0308344370860927	-0.660238410596027	-24.0596026490066	2.11761589403974	-19.794701986755			
102	2340	0.951841059602649	-0.0612450331125828	-0.199523178807947	-17.0466225165563	51.3753642384106	10.2950993377483				1.00895364238411	0.0477880794701987	0.205139072847682	-29.5260927152318	-9.21218543046358	-18.7859602649007				0.965827814569536	-0.0812715231788079	-0.32794701986755	1.12741721854305	25.3464900662252	7.35973509933775				0.496529801324503	-0.448529801324503	-0.709721854304636	22.3629139072848	7.4635761589404	3.02437086092715				0.916026490066225	0.0194966887417219	0.133933774834437	11.9917880794702	-13.1080794701987	-2.29748344370861				0.591788079470199	-0.0628344370860927	-0.692238410596026	-12.0196026490066	6.03761589403974	-24.834701986755			
103	2360	0.919841059602649	0.0667549668874172	-0.167523178807947	-19.5666225165563	47.1753642384106	6.37509933774834				0.928953642384106	-0.000211920529801304	0.0771390728476822	-27.2860927152318	-4.73218543046358	-10.1059602649007				0.901827814569536	-0.113271523178808	-0.31194701986755	-17.912582781457	13.8664900662252	3.99973509933775				0.528529801324503	-0.432529801324503	-0.773721854304636	13.1229139072848	12.2235761589404	-3.13562913907285				0.948026490066225	0.0354966887417219	0.101933774834437	3.3117880794702	-1.62807947019868	-3.69748344370861				0.639788079470199	-0.0788344370860927	-0.724238410596026	-4.73960264900662	11.0776158940397	-20.914701986755			
104	2380	0.919841059602649	0.0827549668874172	-0.119523178807947	-3.88662251655629	48.2953642384106	0.775099337748344				0.944953642384106	0.0477880794701987	0.0771390728476822	-20.2860927152318	-2.49218543046358	-6.74596026490066				0.917827814569536	-0.0492715231788079	-0.23194701986755	-22.392582781457	4.90649006622517	0.91973509933775				0.544529801324503	-0.304529801324503	-0.725721854304636	6.12291390728477	11.3835761589404	-6.49562913907285				0.948026490066225	0.0354966887417219	0.197933774834437	-2.2882119205298	4.81192052980133	-4.25748344370861				0.623788079470199	-0.0468344370860927	-0.708238410596026	-4.73960264900662	18.9176158940397	-16.994701986755			
105	2400	0.935841059602649	0.0347549668874172	-0.167523178807947	4.23337748344371	43.8153642384106	-1.74490066225166				0.944953642384106	0.127788079470199	-0.00286092715231785	-20.2860927152318	-16.7721854304636	-5.34596026490066				0.901827814569536	-0.00127152317880793	-0.24794701986755	-16.792582781457	0.706490066225167	-3.28026490066225				0.576529801324503	-0.304529801324503	-0.693721854304636	2.76291390728477	4.1035761589404	-0.895629139072848				0.948026490066225	0.0354966887417219	0.181933774834437	-2.8482119205298	-1.62807947019868	-2.29748344370861				0.623788079470199	-0.0148344370860927	-0.724238410596026	-1.09960264900662	17.2376158940397	-16.994701986755			
106	2420	0.951841059602649	-0.0132450331125828	-0.167523178807947	2.27337748344371	39.6153642384106	-5.10490066225166				0.944953642384106	0.143788079470199	-0.0188609271523178	-23.6460927152318	-1.09218543046358	-1.98596026490066				0.917827814569536	0.0467284768211921	-0.24794701986755	-7.55258278145695	3.22649006622517	-5.52026490066225				0.608529801324503	-0.400529801324503	-0.709721854304636	-4.23708609271523	-4.0164238410596	3.02437086092715				0.964026490066225	0.0514966887417219	0.133933774834437	-5.0882119205298	-4.70807947019868	-0.617483443708608				0.671788079470199	-0.0788344370860927	-0.804238410596027	7.58039735099338	7.43761589403974	-18.114701986755			
107	2440	0.935841059602649	-0.0132450331125828	-0.119523178807947	2.83337748344371	35.6953642384106	-3.42490066225166				0.928953642384106	0.127788079470199	-0.00286092715231785	-10.7660927152318	9.26781456953642	1.93403973509934				0.885827814569536	0.0787284768211921	-0.26394701986755	4.76741721854305	6.58649006622517	-3.84026490066225				0.576529801324503	-0.320529801324503	-0.677721854304636	-8.15708609271523	-3.1764238410596	-2.01562913907285				0.996026490066225	0.0674966887417219	0.149933774834437	-9.5682119205298	-4.42807947019868	0.222516556291392				0.639788079470199	-0.190834437086093	-0.772238410596026	1.70039735099338	5.75761589403974	-8.03470198675497			
108	2460	0.935841059602649	0.0187549668874172	-0.167523178807947	6.19337748344371	30.6553642384106	0.775099337748344				0.896953642384106	0.159788079470199	-0.0348609271523178	8.27390728476821	4.22781456953642	1.37403973509934				0.901827814569536	0.0467284768211921	-0.23194701986755	6.16741721854305	9.38649006622517	-1.60026490066225				0.512529801324503	-0.240529801324503	-0.613721854304636	-5.91708609271523	4.1035761589404	-3.13562913907285				0.932026490066225	0.0834966887417219	0.133933774834437	-13.4882119205298	-6.66807947019868	3.58251655629139				0.575788079470199	-0.0948344370860927	-0.756238410596026	-17.6196026490066	9.39761589403974	3.16529801324503			
109	2480	0.951841059602649	0.00275496688741723	-0.135523178807947	3.39337748344371	29.5353642384106	1.05509933774834				0.960953642384106	0.143788079470199	-0.0188609271523178	8.27390728476821	8.42781456953642	-3.66596026490066				0.933827814569536	-0.00127152317880793	-0.26394701986755	16.807417218543	11.3464900662252	-0.76026490066225				0.496529801324503	-0.240529801324503	-0.581721854304636	-1.15708609271523	1.5835761589404	1.62437086092715				0.868026490066225	0.0674966887417219	0.133933774834437	-7.3282119205298	-3.58807947019868	6.94251655629139				0.559788079470199	0.0811655629139073	-0.772238410596026	-12.0196026490066	5.19761589403974	6.24529801324503			
110	2500	0.951841059602649	0.0187549668874172	-0.119523178807947	6.75337748344371	29.5353642384106	1.05509933774834				1.04095364238411	0.207788079470199	0.0131390728476822	6.87390728476821	11.7878145695364	-3.38596026490066				0.949827814569536	-0.0332715231788079	-0.24794701986755	17.087417218543	14.1464900662252	-0.76026490066225				0.592529801324503	-0.272529801324503	-0.629721854304636	13.9629139072848	3.2635761589404	4.14437086092715				0.916026490066225	0.0514966887417219	0.165933774834437	-2.5682119205298	-0.788079470198675	7.78251655629139				0.591788079470199	0.0491655629139073	-0.852238410596026	4.22039735099338	0.157615894039735	4.84529801324503			
111	2520	0.951841059602649	0.0187549668874172	-0.183523178807947	9.83337748344371	24.7753642384106	-2.30490066225166				1.00895364238411	0.143788079470199	0.0771390728476822	15.5539072847682	11.7878145695364	4.73403973509934				0.965827814569536	-0.0332715231788079	-0.26394701986755	12.607417218543	14.7064900662252	0.35973509933775				0.640529801324503	-0.336529801324503	-0.645721854304636	16.2029139072848	14.7435761589404	1.34437086092715				0.996026490066225	0.0834966887417219	0.149933774834437	-2.5682119205298	-1.62807947019868	9.46251655629139				0.591788079470199	-0.0308344370860927	-0.804238410596027	16.2603973509934	-4.88238410596027	1.20529801324503			
112	2540	0.935841059602649	0.0187549668874172	-0.199523178807947	8.15337748344371	19.1753642384106	-3.98490066225166				0.928953642384106	0.127788079470199	0.0291390728476822	18.9139072847682	-0.252185430463576	2.49403973509934				0.917827814569536	-0.0172715231788079	-0.26394701986755	11.207417218543	11.0664900662252	-0.20026490066225				0.624529801324503	-0.336529801324503	-0.629721854304636	15.9229139072848	16.9835761589404	-0.615629139072848				0.964026490066225	0.0994966887417219	0.0859337748344371	1.0717880794702	4.25192052980133	11.1425165562914				0.543788079470199	-0.0308344370860927	-0.724238410596026	8.42039735099338	0.157615894039735	1.48529801324503			
113	2560	0.951841059602649	0.0187549668874172	-0.167523178807947	4.79337748344371	10.2153642384106	-3.14490066225166				0.928953642384106	0.0797880794701987	-0.00286092715231785	9.95390728476821	7.58781456953643	-1.14596026490066				0.885827814569536	-0.00127152317880793	-0.29594701986755	8.40741721854305	10.7864900662252	-0.76026490066225				0.608529801324503	-0.320529801324503	-0.677721854304636	17.3229139072848	11.1035761589404	1.62437086092715				0.916026490066225	0.0514966887417219	0.165933774834437	8.0717880794702	8.45192052980133	11.4225165562914				0.527788079470199	0.0171655629139073	-0.708238410596026	2.54039735099338	3.79761589403974	1.76529801324503			
114	2580	0.951841059602649	-0.0292450331125828	-0.215523178807947	5.63337748344371	10.2153642384106	-2.30490066225166				1.00895364238411	0.0957880794701987	0.109139072847682	-2.64609271523179	13.4678145695364	1.65403973509934				0.917827814569536	0.0147284768211921	-0.29594701986755	3.92741721854305	9.38649006622517	-1.04026490066225				0.624529801324503	-0.400529801324503	-0.709721854304636	15.9229139072848	6.3435761589404	3.58437086092715				0.932026490066225	0.0194966887417219	0.149933774834437	9.1917880794702	1.73192052980133	9.18251655629139				0.559788079470199	-0.0468344370860927	-0.692238410596026	9.82039735099338	2.11761589403974	1.48529801324503			
115	2600	0.967841059602649	-0.0452450331125828	-0.279523178807947	1.43337748344371	8.5353642384106	-2.58490066225166				0.976953642384106	0.111788079470199	0.0931390728476822	-2.92609271523179	6.46781456953642	3.05403973509934				0.949827814569536	0.0307284768211921	-0.31194701986755	-2.51258278145695	7.14649006622517	-1.88026490066225				0.608529801324503	-0.432529801324503	-0.677721854304636	6.40291390728477	3.8235761589404	0.504370860927152				0.932026490066225	0.0194966887417219	0.133933774834437	8.0717880794702	-2.46807947019868	6.38251655629139				0.575788079470199	-0.110834437086093	-0.692238410596026	10.9403973509934	1.55761589403974	2.32529801324503			
116	2620	0.983841059602649	-0.0132450331125828	-0.263523178807947	-3.88662251655629	7.1353642384106	-5.38490066225166				0.976953642384106	0.127788079470199	-0.00286092715231785	-4.88609271523179	-0.812185430463576	2.21403973509934				0.949827814569536	0.0307284768211921	-0.32794701986755	-3.91258278145695	0.986490066225167	-3.28026490066225				0.560529801324503	-0.368529801324503	-0.693721854304636	-1.43708609271523	1.8635761589404	-0.895629139072848				0.948026490066225	0.0194966887417219	0.165933774834437	4.1517880794702	4.25192052980133	3.58251655629139				0.575788079470199	-0.110834437086093	-0.644238410596026	2.82039735099338	3.79761589403974	4.00529801324503			
117	2640	0.935841059602649	0.0667549668874172	-0.231523178807947	-15.0866225165563	0.695364238410596	-4.26490066225166				0.992953642384106	0.127788079470199	0.0131390728476822	-12.1660927152318	0.0278145695364242	3.33403973509934				0.917827814569536	0.0307284768211921	-0.31194701986755	-5.59258278145695	-1.25350993377483	-4.68026490066225				0.528529801324503	-0.368529801324503	-0.661721854304636	-0.597086092715232	1.0235761589404	-2.01562913907285				0.916026490066225	0.00349668874172187	0.165933774834437	-0.888211920529802	4.25192052980133	0.782516556291392				0.591788079470199	-0.0628344370860927	-0.692238410596026	-1.93960264900662	7.15761589403974	2.32529801324503			
118	2660	0.951841059602649	0.0667549668874172	-0.183523178807947	-15.3666225165563	0.415364238410596	-2.30490066225166				1.04095364238411	0.159788079470199	-0.0348609271523178	-10.7660927152318	-1.09218543046358	7.81403973509934				0.933827814569536	0.0467284768211921	-0.32794701986755	-6.99258278145695	0.426490066225167	-5.24026490066225				0.576529801324503	-0.336529801324503	-0.677721854304636	3.88291390728477	1.5835761589404	-3.13562913907285				0.932026490066225	0.0194966887417219	0.181933774834437	-2.0082119205298	3.69192052980133	-1.17748344370861				0.623788079470199	-0.0468344370860927	-0.676238410596026	6.18039735099338	2.67761589403974	-2.71470198675497			
119	2680	0.967841059602649	0.0347549668874172	-0.151523178807947	-11.4466225165563	2.6553642384106	-2.30490066225166				1.02495364238411	0.175788079470199	0.0291390728476822	-5.16609271523179	3.94781456953642	7.81403973509934				0.933827814569536	0.0947284768211921	-0.31194701986755	-8.67258278145695	-1.25350993377483	-4.40026490066225				0.592529801324503	-0.304529801324503	-0.661721854304636	-0.0370860927152318	4.6635761589404	-4.53562913907285				0.964026490066225	0.0514966887417219	0.181933774834437	-5.9282119205298	1.17192052980133	-1.45748344370861				0.639788079470199	-0.0628344370860927	-0.692238410596026	4.22039735099338	1.83761589403974	-7.47470198675497			
120	2700	0.951841059602649	0.0507549668874172	-0.167523178807947	-12.5666225165563	3.4953642384106	-3.14490066225166				0.960953642384106	0.159788079470199	0.0451390728476822	0.153907284768212	-10.0521854304636	1.37403973509934				0.917827814569536	0.110728476821192	-0.34394701986755	-5.03258278145695	-1.53350993377483	-2.72026490066225				0.624529801324503	-0.288529801324503	-0.661721854304636	1.36291390728477	3.5435761589404	-3.97562913907285				0.996026490066225	0.115496688741722	0.133933774834437	-3.9682119205298	-0.228079470198675	0.782516556291392				0.639788079470199	-0.0148344370860927	-0.740238410596026	-1.93960264900662	7.43761589403974	-7.75470198675497			
121	2720	0.967841059602649	0.130754966887417	-0.103523178807947	-12.2866225165563	6.0153642384106	-3.70490066225166				0.976953642384106	0.175788079470199	-0.00286092715231785	-2.64609271523179	-12.5721854304636	-5.62596026490066				0.901827814569536	0.0947284768211921	-0.34394701986755	-4.75258278145695	0.426490066225167	-2.16026490066225				0.656529801324503	-0.304529801324503	-0.693721854304636	5.00291390728477	2.9835761589404	-2.57562913907285				0.980026490066225	0.0834966887417219	0.165933774834437	0.511788079470198	3.13192052980133	1.34251655629139				0.639788079470199	0.00116556291390731	-0.740238410596026	-0.539602649006623	9.39761589403974	-5.23470198675497			
122	2740	0.967841059602649	0.146754966887417	-0.071523178807947	-8.36662251655629	5.4553642384106	-2.30490066225166				1.00895364238411	0.223788079470199	-0.0188609271523178	-2.36609271523179	-10.6121854304636	-3.66596026490066				0.917827814569536	0.0787284768211921	-0.32794701986755	-4.19258278145695	4.06649006622517	-0.76026490066225				0.640529801324503	-0.352529801324503	-0.693721854304636	5.56291390728477	5.7835761589404	-2.57562913907285				0.996026490066225	0.0514966887417219	0.149933774834437	1.6317880794702	-3.86807947019868	0.782516556291392				0.623788079470199	-0.0468344370860927	-0.724238410596026	0.0203973509933773	8.55761589403974	-5.23470198675497			
123	2760	0.983841059602649	0.114754966887417	-0.103523178807947	0.313377483443709	2.6553642384106	-2.30490066225166				1.00895364238411	0.255788079470199	-0.0188609271523178	-2.36609271523179	-2.77218543046358	0.53403973509934				0.933827814569536	0.110728476821192	-0.32794701986755	-3.91258278145695	3.78649006622517	-0.20026490066225				0.608529801324503	-0.352529801324503	-0.677721854304636	5.28291390728477	4.6635761589404	-3.13562913907285				0.996026490066225	0.0674966887417219	0.117933774834437	-2.0082119205298	-8.90807947019868	0.782516556291392				0.639788079470199	-0.0468344370860927	-0.756238410596026	-2.21960264900662	4.07761589403974	-5.51470198675497			
124	2780	0.967841059602649	0.0987549668874172	-0.103523178807947	4.51337748344371	3.4953642384106	-1.18490066225166				0.944953642384106	0.223788079470199	-0.00286092715231785	2.11390728476821	-0.532185430463576	0.25403973509934				0.917827814569536	0.126728476821192	-0.32794701986755	0.287417218543046	2.10649006622517	-0.20026490066225				0.592529801324503	-0.336529801324503	-0.709721854304636	2.20291390728477	-1.2164238410596	-1.45562913907285				0.980026490066225	0.0834966887417219	0.101933774834437	-3.6882119205298	-7.78807947019868	-0.337483443708608				0.623788079470199	-0.0148344370860927	-0.772238410596026	-3.05960264900662	-1.24238410596026	-5.51470198675497			
125	2800	0.951841059602649	0.0827549668874172	-0.087523178807947	7.03337748344371	2.9353642384106	0.215099337748344				0.944953642384106	0.143788079470199	0.0131390728476822	12.4739072847682	-3.61218543046358	-1.98596026490066				0.901827814569536	0.110728476821192	-0.34394701986755	4.48741721854305	2.66649006622517	0.63973509933775				0.624529801324503	-0.352529801324503	-0.709721854304636	2.76291390728477	-4.5764238410596	0.224370860927152				0.964026490066225	0.0674966887417219	0.117933774834437	-1.1682119205298	-4.14807947019868	-0.617483443708608				0.591788079470199	0.00116556291390731	-0.772238410596026	-4.73960264900662	-3.48238410596027	-2.71470198675497			
126	2820	0.951841059602649	0.0667549668874172	-0.135523178807947	7.03337748344371	3.7753642384106	0.215099337748344				0.976953642384106	0.143788079470199	0.0291390728476822	14.9939072847682	-6.41218543046358	-4.50596026490066				0.901827814569536	0.0947284768211921	-0.31194701986755	8.68741721854305	3.50649006622517	0.91973509933775				0.624529801324503	-0.368529801324503	-0.725721854304636	1.36291390728477	-3.4564238410596	-0.895629139072848				0.980026490066225	0.0514966887417219	0.101933774834437	2.1917880794702	-4.14807947019868	-1.17748344370861				0.575788079470199	0.00116556291390731	-0.740238410596026	-3.33960264900662	-2.36238410596027	-0.754701986754968			
127	2840	0.967841059602649	0.0667549668874172	-0.135523178807947	9.83337748344371	6.0153642384106	-0.624900662251656				0.992953642384106	0.207788079470199	-0.0348609271523178	13.0339072847682	-7.25218543046358	-3.66596026490066				0.917827814569536	0.0787284768211921	-0.27994701986755	8.40741721854305	4.06649006622517	0.63973509933775				0.592529801324503	-0.352529801324503	-0.661721854304636	-3.67708609271523	-4.0164238410596	-3.97562913907285				0.964026490066225	0.0674966887417219	0.0859337748344371	1.3517880794702	-6.38807947019868	-3.13748344370861				0.543788079470199	0.0331655629139073	-0.772238410596026	-5.01960264900662	-3.76238410596027	-3.55470198675497			
128	2860	0.967841059602649	0.0507549668874172	-0.167523178807947	9.27337748344371	6.2953642384106	-0.624900662251656				0.976953642384106	0.191788079470199	-0.0508609271523178	7.99390728476821	-3.05218543046358	-0.86596026490066				0.917827814569536	0.0627284768211921	-0.29594701986755	6.16741721854305	2.38649006622517	0.63973509933775				0.560529801324503	-0.320529801324503	-0.677721854304636	-1.43708609271523	-7.0964238410596	-2.85562913907285				0.948026490066225	0.0674966887417219	0.101933774834437	4.7117880794702	-5.54807947019868	-2.85748344370861				0.543788079470199	0.0331655629139073	-0.772238410596026	1.42039735099338	-5.16238410596027	-5.23470198675497			
129	2880	0.951841059602649	0.0507549668874172	-0.167523178807947	6.47337748344371	2.9353642384106	-0.344900662251656				0.944953642384106	0.143788079470199	-0.0508609271523178	9.39390728476821	-1.37218543046358	-2.54596026490066				0.933827814569536	0.0627284768211921	-0.27994701986755	8.12741721854305	1.26649006622517	-0.20026490066225				0.576529801324503	-0.352529801324503	-0.693721854304636	3.60291390728477	-6.2564238410596	-3.41562913907285				0.948026490066225	0.0674966887417219	0.0699337748344371	6.6717880794702	-6.10807947019868	-2.85748344370861				0.559788079470199	0.0171655629139073	-0.756238410596026	-2.77960264900662	-3.48238410596027	-5.23470198675497			
130	2900	0.967841059602649	0.0187549668874172	-0.151523178807947	2.83337748344371	3.2153642384106	-0.0649006622516557				0.992953642384106	0.143788079470199	-0.0188609271523178	11.0739072847682	-3.89218543046358	-2.26596026490066				0.933827814569536	0.0467284768211921	-0.27994701986755	5.04741721854305	1.54649006622517	-0.20026490066225				0.544529801324503	-0.384529801324503	-0.677721854304636	2.76291390728477	-2.0564238410596	-4.81562913907285				0.964026490066225	0.0354966887417219	0.0859337748344371	10.0317880794702	-4.14807947019868	-3.97748344370861				0.559788079470199	0.00116556291390731	-0.740238410596026	-2.49960264900662	-0.682384105960265	-6.35470198675497			
131	2920	0.951841059602649	0.0347549668874172	-0.151523178807947	1.71337748344371	3.2153642384106	0.775099337748344				0.976953642384106	0.143788079470199	-0.0348609271523178	3.51390728476821	-3.33218543046358	-1.70596026490066				0.917827814569536	0.0467284768211921	-0.27994701986755	0.847417218543046	2.10649006622517	1.19973509933775				0.528529801324503	-0.384529801324503	-0.709721854304636	0.802913907284768	-1.4964238410596	-4.53562913907285				0.964026490066225	0.0194966887417219	0.0539337748344371	7.7917880794702	-4.70807947019868	-3.97748344370861				0.559788079470199	-0.0148344370860927	-0.740238410596026	-0.539602649006623	0.717615894039735	-8.31470198675497			
132	2940	0.967841059602649	0.0187549668874172	-0.135523178807947	2.27337748344371	6.0153642384106	-0.0649006622516557				0	0	0	0	0	0				0	0	0	0	0	0				0	0	0	0	0	0				0	0	0	0	0	0				0	0	0	0	0	0			
133	3060	0	0	0	0	0	0				0	0	0	0	0	0				0	0	0	0	0	0				0.544529801324503	-0.336529801324503	-0.709721854304636	0.242913907284768	-1.2164238410596	1.62437086092715				0.964026490066225	0.0674966887417219	0.0859337748344371	-3.6882119205298	-4.42807947019868	-2.01748344370861				0.623788079470199	0.0331655629139073	-0.756238410596026	-3.89960264900662	2.95761589403974	-0.754701986754968			
134	3080	0.983841059602649	0.0187549668874172	-0.087523178807947	-3.32662251655629	7.1353642384106	-1.74490066225166				1.00895364238411	0.159788079470199	-0.0348609271523178	0.713907284768212	-1.37218543046358	-0.30596026490066				0.949827814569536	0.0627284768211921	-0.31194701986755	-5.03258278145695	0.706490066225167	1.19973509933775				0.544529801324503	-0.352529801324503	-0.693721854304636	-1.43708609271523	-0.6564238410596	1.62437086092715				0.964026490066225	0.0674966887417219	0.0859337748344371	-4.2482119205298	-3.02807947019868	-1.17748344370861				0.607788079470199	0.0171655629139073	-0.740238410596026	-0.539602649006623	2.39761589403974	0.645298013245032			
135	3100	0.967841059602649	0.0347549668874172	-0.103523178807947	-3.32662251655629	3.7753642384106	-1.74490066225166				0.992953642384106	0.159788079470199	-0.00286092715231785	-4.60609271523179	-2.77218543046358	-0.0259602649006601				0.917827814569536	0.0467284768211921	-0.31194701986755	-3.35258278145695	1.82649006622517	0.91973509933775				0.544529801324503	-0.352529801324503	-0.709721854304636	-5.35708609271523	0.1835761589404	1.90437086092715				0.948026490066225	0.0514966887417219	0.101933774834437	-4.2482119205298	-0.228079470198675	-0.617483443708608				0.607788079470199	-0.0148344370860927	-0.756238410596026	-0.819602649006623	0.717615894039735	1.20529801324503			
136	3120	0.951841059602649	0.0507549668874172	-0.103523178807947	-3.32662251655629	2.0953642384106	-0.0649006622516557				0.960953642384106	0.143788079470199	-0.0188609271523178	-6.00609271523179	1.42781456953642	-1.14596026490066				0.901827814569536	0.0467284768211921	-0.29594701986755	-3.35258278145695	1.26649006622517	0.63973509933775				0.560529801324503	-0.304529801324503	-0.693721854304636	-4.23708609271523	2.1435761589404	1.06437086092715				0.948026490066225	0.0834966887417219	0.101933774834437	-6.4882119205298	0.891920529801325	-0.337483443708608				0.623788079470199	0.00116556291390731	-0.756238410596026	-0.539602649006623	0.717615894039735	2.32529801324503			
137	3140	0.967841059602649	0.0507549668874172	-0.103523178807947	1.15337748344371	2.6553642384106	-1.18490066225166				0.976953642384106	0.175788079470199	-0.0188609271523178	1.27390728476821	1.98781456953642	-0.86596026490066				0.917827814569536	0.0627284768211921	-0.27994701986755	-2.23258278145695	0.146490066225167	0.63973509933775				0.576529801324503	-0.320529801324503	-0.677721854304636	-1.15708609271523	3.8235761589404	2.18437086092715				0.964026490066225	0.0834966887417219	0.0859337748344371	-4.8082119205298	0.331920529801325	0.222516556291392				0.623788079470199	0.0331655629139073	-0.772238410596026	-2.77960264900662	1.27761589403974	4.00529801324503			
138	3160	0.967841059602649	0.0347549668874172	-0.103523178807947	1.71337748344371	3.7753642384106	-1.46490066225166				0.992953642384106	0.159788079470199	-0.0348609271523178	3.51390728476821	-1.09218543046358	-0.30596026490066				0.917827814569536	0.0467284768211921	-0.27994701986755	1.12741721854305	-0.413509933774833	0.63973509933775				0.592529801324503	-0.320529801324503	-0.677721854304636	1.36291390728477	1.8635761589404	3.30437086092715				0.948026490066225	0.0674966887417219	0.101933774834437	-3.1282119205298	0.331920529801325	1.90251655629139				0.591788079470199	0.0331655629139073	-0.756238410596026	2.26039735099338	-0.682384105960265	3.44529801324503			
139	3180	0.967841059602649	0.0507549668874172	-0.087523178807947	1.71337748344371	1.8153642384106	-1.74490066225166				0.960953642384106	0.143788079470199	-0.0348609271523178	2.11390728476821	-2.77218543046358	0.53403973509934				0.917827814569536	0.0627284768211921	-0.29594701986755	-0.552582781456954	0.706490066225167	0.0797350993377501				0.576529801324503	-0.336529801324503	-0.677721854304636	-3.39708609271523	0.7435761589404	3.02437086092715				0.964026490066225	0.0834966887417219	0.0859337748344371	-2.2882119205298	1.17192052980133	2.46251655629139				0.575788079470199	0.00116556291390731	-0.740238410596026	2.26039735099338	-0.122384105960265	3.44529801324503			
140	3200	0.967841059602649	0.0347549668874172	-0.103523178807947	1.99337748344371	-0.984635761589404	-1.18490066225166				0.960953642384106	0.159788079470199	-0.0188609271523178	1.27390728476821	-0.812185430463576	-0.0259602649006601				0.917827814569536	0.0467284768211921	-0.29594701986755	1.12741721854305	0.146490066225167	-0.76026490066225				0.576529801324503	-0.336529801324503	-0.677721854304636	-2.83708609271523	1.8635761589404	2.46437086092715				0.964026490066225	0.0514966887417219	0.117933774834437	-5.3682119205298	5.37192052980133	1.06251655629139				0.591788079470199	0.0171655629139073	-0.772238410596026	0.860397350993377	-0.682384105960265	4.56529801324503			
