No	Time	12-AccX	12-AccY	12-AccZ	12-GyroX	12-GyroY	12-GyroZ	13-AccX	13-AccY	13-AccZ	13-GyroX	13-GyroY	13-GyroZ	14-AccX	14-AccY	14-AccZ	14-GyroX	14-GyroY	14-GyroZ	15-AccX	15-AccY	15-AccZ	15-GyroX	15-GyroY	15-GyroZ	16-AccX	16-AccY	16-AccZ	16-GyroX	16-GyroY	16-GyroZ	17-AccX	17-AccY	17-AccZ	17-GyroX	17-GyroY	17-GyroZ
0	100	0	0	0	0	0	0				0	0	0	0	0	0				0	0	0	0	0	0				0	0	0	0	0	0				0.964026490066225	0.0354966887417219	0.181933774834437	-0.328211920529802	-2.18807947019868	-0.337483443708608				0	0	0	0	0	0			
1	120	0	0	0	0	0	0				0	0	0	0	0	0				0	0	0	0	0	0				0.560529801324503	-0.272529801324503	-0.725721854304636	-0.597086092715232	-0.9364238410596	-0.335629139072848				0.948026490066225	0.0514966887417219	0.181933774834437	1.3517880794702	-1.06807947019868	0.502516556291392				0.511788079470199	-0.142834437086093	-0.788238410596027	-0.539602649006623	-0.122384105960265	-0.474701986754968			
2	140	-0.200158940397351	0.114754966887417	-0.935523178807947	-0.246622516556291	0.135364238410596	-0.624900662251656				0.944953642384106	0.127788079470199	0.285139072847682	-0.966092715231788	1.14781456953642	-0.86596026490066				-0.186172185430464	-0.0332715231788079	-0.88794701986755	2.52741721854305	1.82649006622517	-1.04026490066225				0.576529801324503	-0.272529801324503	-0.725721854304636	-0.597086092715232	-0.6564238410596	-0.895629139072848				0.948026490066225	0.0354966887417219	0.181933774834437	1.9117880794702	-1.62807947019868	0.222516556291392				0.511788079470199	-0.142834437086093	-0.788238410596027	-0.539602649006623	0.157615894039735	-0.474701986754968			
3	160	-0.184158940397351	0.130754966887417	-0.951523178807947	-0.246622516556291	0.135364238410596	-0.904900662251656				0.944953642384106	0.127788079470199	0.301139072847682	0.433907284768212	0.0278145695364242	-0.0259602649006601				-0.186172185430464	-0.00127152317880793	-0.90394701986755	0.567417218543046	0.706490066225167	-1.60026490066225				0.560529801324503	-0.272529801324503	-0.725721854304636	-0.0370860927152318	-0.0964238410596001	0.224370860927152				0.948026490066225	0.0354966887417219	0.181933774834437	1.0717880794702	-1.34807947019868	0.222516556291392				0.495788079470199	-0.142834437086093	-0.772238410596026	0.300397350993377	0.437615894039735	-0.474701986754968			
4	180	-0.200158940397351	0.130754966887417	-0.935523178807947	0.593377483443709	0.135364238410596	-0.904900662251656				0.960953642384106	0.127788079470199	0.301139072847682	1.83390728476821	0.307814569536424	1.09403973509934				-0.170172185430464	-0.0172715231788079	-0.90394701986755	0.00741721854304636	0.146490066225167	-0.48026490066225				0.560529801324503	-0.272529801324503	-0.741721854304636	-0.597086092715232	-0.6564238410596	-0.0556291390728476				0.948026490066225	0.0514966887417219	0.181933774834437	2.4717880794702	-1.06807947019868	0.222516556291392				0.511788079470199	-0.142834437086093	-0.788238410596027	0.0203973509933773	-0.122384105960265	-1.31470198675497			
5	200	-0.200158940397351	0.130754966887417	-0.935523178807947	0.873377483443709	-0.144635761589404	-1.46490066225166				0.960953642384106	0.127788079470199	0.285139072847682	0.993907284768212	-0.252185430463576	0.25403973509934				-0.170172185430464	-0.0332715231788079	-0.88794701986755	-0.272582781456954	1.26649006622517	0.35973509933775				0.576529801324503	-0.272529801324503	-0.741721854304636	-1.15708609271523	-0.6564238410596	-0.615629139072848				0.948026490066225	0.0514966887417219	0.213933774834437	3.0317880794702	3.69192052980133	-0.337483443708608				0.511788079470199	-0.142834437086093	-0.804238410596027	0.860397350993377	0.157615894039735	-0.754701986754968			
6	220	-0.200158940397351	0.114754966887417	-0.935523178807947	-0.526622516556291	0.415364238410596	-0.624900662251656				0.944953642384106	0.111788079470199	0.349139072847682	0.993907284768212	0.587814569536424	-0.0259602649006601				-0.170172185430464	-0.0332715231788079	-0.88794701986755	0.847417218543046	0.986490066225167	-0.76026490066225				0.560529801324503	-0.272529801324503	-0.725721854304636	-0.877086092715232	0.1835761589404	-0.0556291390728476				0.948026490066225	0.0354966887417219	0.165933774834437	2.1917880794702	-0.508079470198675	-0.0574834437086077				0.511788079470199	-0.142834437086093	-0.788238410596027	0.860397350993377	0.437615894039735	-1.31470198675497			
7	240	-0.200158940397351	0.130754966887417	-0.951523178807947	0.0333774834437086	-0.144635761589404	-1.18490066225166				0.944953642384106	0.127788079470199	0.269139072847682	-0.966092715231788	0.307814569536424	0.25403973509934				-0.170172185430464	-0.0332715231788079	-0.90394701986755	1.68741721854305	0.146490066225167	-1.32026490066225				0.560529801324503	-0.256529801324503	-0.725721854304636	0.802913907284768	0.1835761589404	-1.45562913907285				0.948026490066225	0.0354966887417219	0.197933774834437	-0.608211920529802	0.331920529801325	-1.73748344370861				0.511788079470199	-0.142834437086093	-0.788238410596027	1.42039735099338	-0.962384105960265	-1.87470198675497			
8	260	-0.200158940397351	0.130754966887417	-0.951523178807947	0.313377483443709	0.135364238410596	-1.74490066225166				0.960953642384106	0.127788079470199	0.285139072847682	-2.64609271523179	0.0278145695364242	-0.0259602649006601				-0.186172185430464	-0.0332715231788079	-0.90394701986755	0.567417218543046	-0.133509933774833	-0.20026490066225				0.560529801324503	-0.256529801324503	-0.741721854304636	1.64291390728477	0.1835761589404	-1.17562913907285				0.948026490066225	0.0514966887417219	0.197933774834437	-1.4482119205298	0.891920529801325	-0.897483443708608				0.495788079470199	-0.142834437086093	-0.772238410596026	0.300397350993377	-0.962384105960265	-1.59470198675497			
9	280	-0.200158940397351	0.130754966887417	-0.951523178807947	-0.526622516556291	-0.144635761589404	-1.18490066225166				0.960953642384106	0.127788079470199	0.285139072847682	0.153907284768212	0.307814569536424	0.53403973509934				-0.170172185430464	-0.0332715231788079	-0.91994701986755	1.68741721854305	0.146490066225167	0.0797350993377501				0.576529801324503	-0.272529801324503	-0.741721854304636	0.242913907284768	-1.2164238410596	-0.895629139072848				0.948026490066225	0.0354966887417219	0.197933774834437	4.1517880794702	0.331920529801325	0.782516556291392				0.511788079470199	-0.158834437086093	-0.788238410596027	1.14039735099338	-0.122384105960265	-2.71470198675497			
10	300	-0.200158940397351	0.114754966887417	-0.951523178807947	-1.08662251655629	0.135364238410596	-1.46490066225166				0.976953642384106	0.127788079470199	0.285139072847682	2.11390728476821	-0.532185430463576	0.53403973509934				-0.170172185430464	-0.0172715231788079	-0.90394701986755	1.12741721854305	0.426490066225167	-0.76026490066225				0.592529801324503	-0.272529801324503	-0.725721854304636	-1.71708609271523	-0.3764238410596	-1.17562913907285				0.964026490066225	0.0514966887417219	0.197933774834437	3.0317880794702	0.331920529801325	-0.0574834437086077				0.527788079470199	-0.158834437086093	-0.804238410596027	1.42039735099338	0.717615894039735	-2.71470198675497			
11	320	-0.200158940397351	0.130754966887417	-0.935523178807947	0.0333774834437086	0.135364238410596	-0.904900662251656				0.960953642384106	0.127788079470199	0.301139072847682	1.83390728476821	-1.65218543046358	0.81403973509934				-0.170172185430464	-0.0332715231788079	-0.88794701986755	1.12741721854305	0.146490066225167	-0.20026490066225				0.576529801324503	-0.272529801324503	-0.725721854304636	0.522913907284768	0.7435761589404	0.504370860927152				0.980026490066225	0.0354966887417219	0.197933774834437	1.0717880794702	-0.228079470198675	-0.617483443708608				0.527788079470199	-0.158834437086093	-0.804238410596027	0.300397350993377	1.27761589403974	-2.99470198675497			
12	340	-0.200158940397351	0.130754966887417	-0.951523178807947	0.593377483443709	0.135364238410596	-0.904900662251656				0.944953642384106	0.127788079470199	0.301139072847682	1.55390728476821	-2.49218543046358	0.53403973509934				-0.186172185430464	-0.0332715231788079	-0.88794701986755	-0.272582781456954	0.146490066225167	-0.48026490066225				0.576529801324503	-0.272529801324503	-0.725721854304636	0.802913907284768	-0.0964238410596001	0.784370860927152				0.948026490066225	0.0514966887417219	0.181933774834437	1.3517880794702	-1.06807947019868	-0.0574834437086077				0.511788079470199	-0.158834437086093	-0.804238410596027	0.580397350993377	-0.402384105960265	-1.87470198675497			
13	360	-0.200158940397351	0.130754966887417	-0.951523178807947	-0.246622516556291	0.975364238410596	-1.18490066225166				0.960953642384106	0.127788079470199	0.285139072847682	0.433907284768212	-1.09218543046358	0.25403973509934				-0.170172185430464	-0.0332715231788079	-0.91994701986755	-0.552582781456954	0.146490066225167	-0.20026490066225				0.576529801324503	-0.256529801324503	-0.725721854304636	0.802913907284768	-1.4964238410596	0.784370860927152				0.964026490066225	0.0354966887417219	0.181933774834437	2.7517880794702	-0.788079470198675	-0.337483443708608				0.511788079470199	-0.158834437086093	-0.788238410596027	0.580397350993377	-1.80238410596026	-0.474701986754968			
14	380	-0.200158940397351	0.130754966887417	-0.935523178807947	-0.806622516556291	0.415364238410596	-1.46490066225166				0.960953642384106	0.127788079470199	0.285139072847682	0.993907284768212	-1.93218543046358	0.81403973509934				-0.170172185430464	-0.0332715231788079	-0.90394701986755	0.847417218543046	0.706490066225167	-0.48026490066225				0.576529801324503	-0.272529801324503	-0.725721854304636	-0.597086092715232	-1.7764238410596	-0.335629139072848				0.948026490066225	0.0354966887417219	0.197933774834437	1.9117880794702	-0.788079470198675	-1.17748344370861				0.511788079470199	-0.158834437086093	-0.788238410596027	0.300397350993377	-1.80238410596026	-0.754701986754968			
15	400	-0.200158940397351	0.130754966887417	-0.935523178807947	0.0333774834437086	0.135364238410596	-1.46490066225166				0.960953642384106	0.111788079470199	0.285139072847682	2.11390728476821	-3.33218543046358	-0.0259602649006601				-0.186172185430464	-0.0332715231788079	-0.88794701986755	1.40741721854305	1.26649006622517	-0.48026490066225				0.560529801324503	-0.272529801324503	-0.741721854304636	-1.43708609271523	-1.7764238410596	-0.895629139072848				0.948026490066225	0.0354966887417219	0.181933774834437	0.511788079470198	-0.788079470198675	0.222516556291392				0.511788079470199	-0.158834437086093	-0.788238410596027	0.0203973509933773	-0.682384105960265	-0.474701986754968			
16	420	-0.200158940397351	0.130754966887417	-0.951523178807947	-0.526622516556291	-0.144635761589404	-0.904900662251656				0.960953642384106	0.127788079470199	0.285139072847682	1.55390728476821	-4.17218543046358	-0.86596026490066				-0.154172185430464	-0.0332715231788079	-0.90394701986755	1.12741721854305	0.986490066225167	-0.20026490066225				0.544529801324503	-0.272529801324503	-0.725721854304636	-1.71708609271523	-1.4964238410596	-0.895629139072848				0.964026490066225	0.0514966887417219	0.181933774834437	0.511788079470198	-1.34807947019868	-0.617483443708608				0.511788079470199	-0.142834437086093	-0.788238410596027	0.300397350993377	-0.402384105960265	-0.754701986754968			
17	440	-0.200158940397351	0.114754966887417	-0.951523178807947	-0.526622516556291	0.695364238410596	-1.18490066225166				0.944953642384106	0.127788079470199	0.269139072847682	0.433907284768212	-3.61218543046358	-0.86596026490066				-0.170172185430464	-0.0332715231788079	-0.90394701986755	2.52741721854305	-0.133509933774833	0.0797350993377501				0.544529801324503	-0.256529801324503	-0.709721854304636	-0.597086092715232	-1.2164238410596	-0.895629139072848				0.948026490066225	0.0354966887417219	0.181933774834437	0.791788079470198	0.331920529801325	-0.617483443708608				0.495788079470199	-0.142834437086093	-0.788238410596027	0.300397350993377	-0.962384105960265	-0.754701986754968			
18	460	-0.200158940397351	0.114754966887417	-0.935523178807947	-0.246622516556291	0.415364238410596	-1.18490066225166				0.944953642384106	0.127788079470199	0.269139072847682	-1.24609271523179	0.0278145695364242	-0.30596026490066				-0.170172185430464	-0.0332715231788079	-0.90394701986755	4.48741721854305	0.426490066225167	-0.48026490066225				0.560529801324503	-0.256529801324503	-0.725721854304636	1.92291390728477	-0.6564238410596	-0.335629139072848				0.932026490066225	0.0354966887417219	0.181933774834437	-0.0482119205298018	-2.46807947019868	0.222516556291392				0.511788079470199	-0.142834437086093	-0.788238410596027	0.0203973509933773	-0.402384105960265	-1.03470198675497			
19	480	-0.200158940397351	0.130754966887417	-0.935523178807947	0.593377483443709	-0.144635761589404	-1.46490066225166				0.960953642384106	0.111788079470199	0.269139072847682	-1.24609271523179	3.10781456953642	0.25403973509934				-0.170172185430464	-0.0332715231788079	-0.88794701986755	2.52741721854305	0.986490066225167	0.35973509933775				0.560529801324503	-0.272529801324503	-0.725721854304636	2.48291390728477	-2.0564238410596	-0.615629139072848				0.932026490066225	0.0514966887417219	0.181933774834437	-0.0482119205298018	-1.34807947019868	-0.0574834437086077				0.511788079470199	-0.142834437086093	-0.772238410596026	0.860397350993377	-0.682384105960265	-0.754701986754968			
20	500	-0.200158940397351	0.130754966887417	-0.935523178807947	-0.806622516556291	-0.144635761589404	-1.18490066225166				0.960953642384106	0.111788079470199	0.301139072847682	-1.80609271523179	1.14781456953642	-0.0259602649006601				-0.154172185430464	-0.0332715231788079	-0.90394701986755	0.847417218543046	-0.133509933774833	0.0797350993377501				0.560529801324503	-0.272529801324503	-0.741721854304636	1.92291390728477	-2.6164238410596	-1.17562913907285				0.948026490066225	0.0514966887417219	0.181933774834437	-0.888211920529802	-1.06807947019868	-0.0574834437086077				0.527788079470199	-0.142834437086093	-0.788238410596027	-1.93960264900662	-2.64238410596027	-1.31470198675497			
21	520	-0.200158940397351	0.114754966887417	-0.951523178807947	-0.246622516556291	-0.144635761589404	-1.18490066225166				0.944953642384106	0.111788079470199	0.285139072847682	-3.20609271523179	-0.812185430463576	-0.585960264900661				-0.170172185430464	-0.0332715231788079	-0.90394701986755	1.40741721854305	-1.81350993377483	0.35973509933775				0.560529801324503	-0.272529801324503	-0.725721854304636	-0.877086092715232	-2.0564238410596	-2.29562913907285				0.948026490066225	0.0354966887417219	0.165933774834437	0.231788079470198	-1.90807947019868	0.222516556291392				0.495788079470199	-0.158834437086093	-0.788238410596027	-1.93960264900662	-3.76238410596027	-0.754701986754968			
22	540	-0.200158940397351	0.130754966887417	-0.967523178807947	-0.526622516556291	-0.144635761589404	-0.904900662251656				0.944953642384106	0.127788079470199	0.269139072847682	-1.52609271523179	0.587814569536424	-0.86596026490066				-0.170172185430464	-0.0332715231788079	-0.91994701986755	7.84741721854305	-1.81350993377483	0.0797350993377501				0.560529801324503	-0.256529801324503	-0.709721854304636	0.242913907284768	-2.0564238410596	-1.73562913907285				0.948026490066225	0.0354966887417219	0.181933774834437	-0.328211920529802	-1.34807947019868	-0.337483443708608				0.495788079470199	-0.158834437086093	-0.788238410596027	-4.45960264900662	-4.04238410596027	0.0852980132450323			
23	560	-0.200158940397351	0.130754966887417	-0.935523178807947	-0.526622516556291	0.135364238410596	-0.904900662251656				0.960953642384106	0.143788079470199	0.285139072847682	-2.36609271523179	1.14781456953642	-1.70596026490066				-0.202172185430464	-0.0332715231788079	-0.90394701986755	14.567417218543	0.426490066225167	0.0797350993377501				0.544529801324503	-0.256529801324503	-0.725721854304636	1.08291390728477	-0.6564238410596	-1.45562913907285				0.948026490066225	0.0354966887417219	0.181933774834437	-0.608211920529802	-1.06807947019868	-0.0574834437086077				0.511788079470199	-0.126834437086093	-0.788238410596027	-3.61960264900662	-3.20238410596026	0.365298013245032			
24	580	-0.200158940397351	0.130754966887417	-0.935523178807947	-0.246622516556291	0.135364238410596	-1.46490066225166				0.960953642384106	0.127788079470199	0.269139072847682	-4.32609271523179	1.14781456953642	-1.70596026490066				-0.170172185430464	-0.0652715231788079	-0.88794701986755	13.447417218543	-2.09350993377483	1.19973509933775				0.560529801324503	-0.272529801324503	-0.725721854304636	1.64291390728477	1.0235761589404	-1.45562913907285				0.948026490066225	0.0354966887417219	0.181933774834437	-0.888211920529802	-2.18807947019868	-0.0574834437086077				0.511788079470199	-0.126834437086093	-0.804238410596027	-1.09960264900662	-1.52238410596026	0.365298013245032			
25	600	-0.184158940397351	0.130754966887417	-0.935523178807947	-1.08662251655629	-0.984635761589404	-2.02490066225166				0.960953642384106	0.143788079470199	0.285139072847682	-4.60609271523179	1.98781456953642	-2.26596026490066				-0.186172185430464	-0.0332715231788079	-0.88794701986755	8.96741721854305	-3.21350993377483	0.91973509933775				0.560529801324503	-0.272529801324503	-0.725721854304636	1.36291390728477	0.1835761589404	-0.615629139072848				0.948026490066225	0.0514966887417219	0.165933774834437	-0.888211920529802	-1.62807947019868	0.502516556291392				0.511788079470199	-0.142834437086093	-0.788238410596027	0.580397350993377	-1.80238410596026	-0.474701986754968			
26	620	-0.200158940397351	0.130754966887417	-0.951523178807947	-1.92662251655629	-0.704635761589404	-1.18490066225166				0.960953642384106	0.127788079470199	0.285139072847682	-2.92609271523179	3.66781456953642	-0.30596026490066				-0.170172185430464	-0.0172715231788079	-0.87194701986755	7.28741721854305	-1.81350993377483	1.19973509933775				0.544529801324503	-0.272529801324503	-0.741721854304636	1.08291390728477	0.1835761589404	-0.335629139072848				0.964026490066225	0.0514966887417219	0.165933774834437	-1.4482119205298	-0.508079470198675	-0.337483443708608				0.511788079470199	-0.142834437086093	-0.788238410596027	-0.539602649006623	-2.36238410596027	0.365298013245032			
27	640	-0.200158940397351	0.114754966887417	-0.967523178807947	0.0333774834437086	0.415364238410596	-0.0649006622516557				0.960953642384106	0.111788079470199	0.269139072847682	0.993907284768212	2.26781456953642	1.93403973509934				-0.170172185430464	-0.0332715231788079	-0.91994701986755	12.047417218543	-2.09350993377483	0.63973509933775				0.544529801324503	-0.272529801324503	-0.741721854304636	0.522913907284768	-0.0964238410596001	-0.615629139072848				0.932026490066225	0.0514966887417219	0.165933774834437	-2.0082119205298	0.0519205298013249	-0.897483443708608				0.495788079470199	-0.126834437086093	-0.804238410596027	-4.73960264900662	-4.04238410596027	0.365298013245032			
28	660	-0.184158940397351	0.0987549668874172	-0.951523178807947	-0.246622516556291	0.135364238410596	-0.0649006622516557				0.944953642384106	0.127788079470199	0.269139072847682	-0.406092715231788	-0.532185430463576	-0.0259602649006601				-0.170172185430464	-0.0812715231788079	-0.91994701986755	13.727417218543	-2.93350993377483	1.19973509933775				0.544529801324503	-0.288529801324503	-0.741721854304636	-0.877086092715232	-0.9364238410596	-0.335629139072848				0.916026490066225	0.0354966887417219	0.165933774834437	-0.608211920529802	2.85192052980133	-1.45748344370861				0.495788079470199	-0.110834437086093	-0.820238410596026	-15.6596026490066	-6.84238410596027	-0.754701986754968			
29	680	-0.200158940397351	0.114754966887417	-0.935523178807947	-1.92662251655629	-0.144635761589404	-1.46490066225166				0.944953642384106	0.127788079470199	0.285139072847682	-5.72609271523179	-1.93218543046358	-1.42596026490066				-0.170172185430464	-0.0652715231788079	-0.90394701986755	16.807417218543	-4.05350993377483	0.35973509933775				0.528529801324503	-0.304529801324503	-0.741721854304636	6.12291390728477	-5.4164238410596	-2.85562913907285				0.932026490066225	0.0514966887417219	0.165933774834437	-1.4482119205298	4.81192052980133	-0.337483443708608				0.527788079470199	-0.126834437086093	-0.884238410596026	-36.9396026490066	-24.7623841059603	-5.51470198675497			
30	700	-0.232158940397351	0.114754966887417	-0.935523178807947	-1.08662251655629	-0.424635761589404	-0.904900662251656				0.976953642384106	0.127788079470199	0.301139072847682	-8.52609271523179	-1.37218543046358	-1.14596026490066				-0.186172185430464	-0.0652715231788079	-0.88794701986755	17.927417218543	-4.89350993377483	-1.32026490066225				0.528529801324503	-0.272529801324503	-0.789721854304636	1.64291390728477	-9.6164238410596	-3.13562913907285				0.948026490066225	0.0514966887417219	0.149933774834437	-1.4482119205298	7.61192052980133	-0.337483443708608				0.431788079470199	-0.206834437086093	-0.868238410596026	-41.1396026490066	-43.8023841059603	2.60529801324503			
31	720	-0.232158940397351	0.114754966887417	-0.951523178807947	-0.246622516556291	-0.144635761589404	0.215099337748344				0.992953642384106	0.111788079470199	0.269139072847682	-3.76609271523179	-3.61218543046358	-0.585960264900661				-0.202172185430464	-0.0332715231788079	-0.90394701986755	13.727417218543	-3.77350993377483	-2.16026490066225				0.528529801324503	-0.288529801324503	-0.805721854304636	-4.23708609271523	-11.2964238410596	-2.01562913907285				0.980026490066225	0.0354966887417219	0.133933774834437	-1.4482119205298	7.61192052980133	-1.17748344370861				0.399788079470199	-0.142834437086093	-0.756238410596026	-37.4996026490066	-12.1623841059603	9.60529801324503			
32	740	-0.216158940397351	0.114754966887417	-0.951523178807947	-0.526622516556291	0.135364238410596	1.05509933774834				1.00895364238411	0.159788079470199	0.237139072847682	-3.48609271523179	-10.3321854304636	-0.30596026490066				-0.218172185430464	-0.0332715231788079	-0.91994701986755	14.567417218543	-8.53350993377483	-2.44026490066225				0.496529801324503	-0.336529801324503	-0.821721854304636	-2.83708609271523	-13.2564238410596	-2.57562913907285				0.932026490066225	0.0194966887417219	0.133933774834437	-4.2482119205298	9.29192052980133	-1.73748344370861				0.463788079470199	-0.0468344370860927	-0.900238410596026	-28.8196026490066	-8.80238410596027	12.965298013245			
33	760	-0.216158940397351	0.130754966887417	-0.967523178807947	-1.36662251655629	0.975364238410596	1.89509933774834				0.992953642384106	0.143788079470199	0.221139072847682	-4.04609271523179	-18.1721854304636	-1.14596026490066				-0.234172185430464	-0.0172715231788079	-0.95194701986755	19.327417218543	-14.9735099337748	-2.16026490066225				0.496529801324503	-0.320529801324503	-0.853721854304636	-9.27708609271523	-15.7764238410596	-0.0556291390728476				0.996026490066225	0.0354966887417219	0.117933774834437	-4.2482119205298	12.6519205298013	-2.57748344370861				0.479788079470199	-0.0628344370860927	-0.948238410596026	1.42039735099338	-26.7223841059603	9.32529801324503			
34	780	-0.184158940397351	0.114754966887417	-0.935523178807947	-1.64662251655629	1.8153642384106	3.29509933774834				0.992953642384106	0.159788079470199	0.205139072847682	-4.04609271523179	-17.6121854304636	-1.70596026490066				-0.234172185430464	-0.0172715231788079	-0.95194701986755	16.247417218543	-16.3735099337748	-4.40026490066225				0.480529801324503	-0.368529801324503	-0.885721854304636	-11.2370860927152	-21.0964238410596	2.18437086092715				0.996026490066225	0.0194966887417219	0.133933774834437	-9.5682119205298	16.2919205298013	-3.97748344370861				0.447788079470199	-0.0468344370860927	-0.932238410596026	3.38039735099338	-30.3623841059603	9.32529801324503			
35	800	-0.184158940397351	0.0987549668874172	-0.935523178807947	-2.20662251655629	2.3753642384106	3.01509933774834				1.00895364238411	0.127788079470199	0.189139072847682	-6.00609271523179	-14.8121854304636	-1.14596026490066				-0.234172185430464	-0.0172715231788079	-0.95194701986755	7.56741721854305	-16.6535099337748	-8.88026490066225				0.496529801324503	-0.384529801324503	-0.885721854304636	-19.0770860927152	-24.1764238410596	5.54437086092715				0.996026490066225	0.0354966887417219	0.101933774834437	-8.1682119205298	14.3319205298013	-3.97748344370861				0.399788079470199	-0.0788344370860927	-0.948238410596026	11.2203973509934	-28.4023841059603	10.165298013245			
36	820	-0.200158940397351	0.0987549668874172	-0.935523178807947	-7.80662251655629	0.695364238410596	3.57509933774835				1.00895364238411	0.0797880794701987	0.189139072847682	-13.5660927152318	-22.9321854304636	2.49403973509934				-0.202172185430464	0.0307284768211921	-0.99994701986755	-22.392582781457	-20.2935099337748	-15.8802649006623				0.448529801324503	-0.400529801324503	-0.933721854304636	-16.8370860927152	-24.7364238410596	13.3843708609272				1.01202649006623	0.0354966887417219	0.0699337748344371	-12.9282119205298	17.1319205298013	-4.53748344370861				0.399788079470199	-0.0788344370860927	-1.01223841059603	14.5803973509934	-33.7223841059603	10.165298013245			
37	840	-0.216158940397351	0.114754966887417	-0.935523178807947	-9.76662251655629	0.415364238410596	5.81509933774834				1.02495364238411	0.143788079470199	0.109139072847682	-30.3660927152318	-33.0121854304636	-5.62596026490066				-0.234172185430464	0.110728476821192	-1.06394701986755	-62.152582781457	-34.0135099337748	-26.2402649006623				0.432529801324503	-0.368529801324503	-0.949721854304636	-19.0770860927152	-29.4964238410596	20.6643708609272				1.01202649006623	0.0194966887417219	0.101933774834437	-8.7282119205298	16.5719205298013	-4.25748344370861				0.351788079470199	-0.0948344370860927	-1.02823841059603	12.3403973509934	-42.6823841059603	16.325298013245			
38	860	-0.216158940397351	0.114754966887417	-0.935523178807947	-12.2866225165563	1.5353642384106	8.05509933774835				1.10495364238411	0.271788079470199	0.0131390728476822	-29.8060927152318	-41.1321854304636	-8.14596026490066				-0.234172185430464	0.0307284768211921	-1.01594701986755	-72.232582781457	-49.6935099337748	-33.8002649006623				0.416529801324503	-0.448529801324503	-0.949721854304636	-29.4370860927152	-36.2164238410596	26.2643708609272				1.02802649006623	0.00349668874172187	0.0699337748344371	-7.3282119205298	17.6919205298013	-2.29748344370861				0.351788079470199	-0.110834437086093	-1.07623841059603	-3.33960264900662	-52.4823841059603	24.165298013245			
39	880	-0.232158940397351	0.114754966887417	-0.951523178807947	-13.4066225165563	0.415364238410596	9.45509933774835				1.20095364238411	0.287788079470199	-0.0828609271523179	-16.3660927152318	-52.6121854304636	-0.86596026490066				0.325827814569536	-0.289271523178808	-0.72794701986755	-80.912582781457	-76.2935099337748	-17.5602649006623				0.384529801324503	-0.464529801324503	-0.981721854304636	-36.7170860927152	-45.4564238410596	36.6243708609272				1.06002649006623	0.0354966887417219	0.00593377483443711	-12.9282119205298	16.8519205298013	-2.85748344370861				0.335788079470199	-0.126834437086093	-1.12423841059603	-9.77960264900662	-62.0023841059603	32.565298013245			
40	900	-0.264158940397351	0.114754966887417	-0.919523178807947	-17.3266225165563	2.0953642384106	11.1350993377483				1.05695364238411	0.207788079470199	-0.146860927152318	-6.56609271523179	-45.6121854304636	4.17403973509934				-0.330172185430464	-0.0172715231788079	-0.71194701986755	45.0874172185431	-1.25350993377483	-31.8402649006623				0.320529801324503	-0.464529801324503	-1.02972185430464	-38.6770860927152	-53.8564238410596	48.6643708609272				1.12402649006623	0.0514966887417219	-0.0420662251655629	-12.6482119205298	20.7719205298013	-3.13748344370861				0.319788079470199	-0.0468344370860927	-1.12423841059603	-11.4596026490066	-66.7623841059603	37.605298013245			
41	920	-0.312158940397351	0.146754966887417	-0.951523178807947	-20.9666225165563	6.0153642384106	11.1350993377483				0.720953642384106	0.0317880794701987	0.0771390728476822	-36.8060927152318	-2.77218543046358	16.4940397350993				-0.346172185430464	0.0147284768211921	-0.87194701986755	23.5274172185431	-10.2135099337748	-35.4802649006623				0.304529801324503	-0.384529801324503	-1.09372185430464	-52.9570860927152	-59.7364238410596	52.0243708609272				1.20402649006623	0.00349668874172187	-0.0100662251655629	-7.6082119205298	23.2919205298013	-3.13748344370861				0.255788079470199	-0.0468344370860927	-1.14023841059603	3.38039735099338	-73.2023841059603	42.365298013245			
42	940	-0.296158940397351	0.194754966887417	-0.983523178807947	-23.4866225165563	5.4553642384106	12.2550993377483				0.928953642384106	0.175788079470199	0.0771390728476822	-37.3660927152318	27.1878145695364	24.0540397350993				-0.346172185430464	-0.289271523178808	-0.87194701986755	32.7674172185431	-2.37350993377483	-29.6002649006623				0.240529801324503	-0.416529801324503	-1.12572185430464	-48.7570860927152	-60.2964238410596	59.5843708609272				1.17202649006623	-0.0445033112582781	0.0539337748344371	-7.6082119205298	12.0919205298013	-2.01748344370861				0.223788079470199	-0.0148344370860927	-1.15623841059603	8.14039735099338	-77.1223841059603	45.725298013245			
43	960	0	0	0	0	0	0				0	0	0	0	0	0				0	0	0	0	0	0				0.208529801324503	-0.384529801324503	-1.12572185430464	-70.5970860927152	-75.1364238410596	58.4643708609272				0	0	0	0	0	0				0	0	0	0	0	0			
44	1080	0	0	0	0	0	0				1.61695364238411	-0.0162119205298013	0.765139072847682	-7.40609271523179	76.4678145695364	26.2940397350993				-0.330172185430464	0.254728476821192	-0.99994701986755	-10.072582781457	74.6264900662252	13.5197350993378				0	0	0	0	0	0				1.09202649006623	0.227496688741722	0.645933774834437	52.0317880794702	28.0519205298013	2.74251655629139				0	0	0	0	0	0			
45	1100	-0.168158940397351	0.210754966887417	-1.03152317880795	-8.08662251655629	75.7353642384106	34.9350993377483				1.29695364238411	0.0637880794701987	0.829139072847682	-10.4860927152318	22.4278145695364	18.7340397350993				-0.186172185430464	0.286728476821192	-1.01594701986755	0.00741721854304636	73.2264900662252	1.19973509933775				0.944529801324503	-0.256529801324503	-1.15772185430464	45.8829139072848	23.9835761589404	4.42437086092715				1.30002649006623	0.147496688741722	0.821933774834437	57.3517880794702	37.5719205298013	-5.37748344370861				0.447788079470199	-0.430834437086093	-0.996238410596026	33.3403973509934	7.43761589403974	3.16529801324503			
46	1120	0.039841059602649	0.226754966887417	-1.06352317880795	-11.1666225165563	83.5753642384106	35.7750993377484				0.912953642384106	-0.000211920529801304	0.765139072847682	-4.60609271523179	26.9078145695364	19.0140397350993				-0.154172185430464	0.0947284768211921	-1.06394701986755	24.087417218543	77.4264900662252	-8.32026490066225				0.768529801324503	-0.384529801324503	-1.18972185430464	8.36291390728477	33.7835761589404	-19.6556291390729				1.23602649006623	0.131496688741722	0.661933774834437	35.5117880794702	9.57192052980133	-5.09748344370861				0.655788079470199	-0.526834437086093	-1.01223841059603	17.1003973509934	9.67761589403974	-3.83470198675497			
47	1140	0.151841059602649	0.402754966887417	-1.04752317880795	-3.88662251655629	93.0953642384106	36.6150993377484				1.05695364238411	-0.0322119205298013	0.669139072847682	-3.76609271523179	8.98781456953643	-2.26596026490066				-0.154172185430464	-0.161271523178808	-1.06394701986755	26.0474172185431	88.9064900662252	-11.9602649006623				0.528529801324503	-0.288529801324503	-1.04572185430464	-23.5570860927152	29.5835761589404	-26.6556291390729				1.07602649006623	0.115496688741722	0.565933774834437	35.7917880794702	7.33192052980133	-9.01748344370861				0.703788079470199	-0.654834437086093	-1.02823841059603	-5.85960264900662	0.717615894039735	-13.354701986755			
48	1160	0.167841059602649	0.482754966887417	-1.04752317880795	33.3533774834437	98.1353642384106	32.9750993377484				1.40895364238411	-0.176211920529801	0.333139072847682	-7.12609271523179	-10.0521854304636	-0.30596026490066				-0.0261721854304636	-0.129271523178808	-1.01594701986755	-10.352582781457	97.8664900662252	-8.88026490066225				0.480529801324503	-0.0965298013245033	-1.02972185430464	-10.1170860927152	22.0235761589404	-17.1356291390729				1.14002649006623	-0.0285033112582781	0.677933774834437	35.2317880794702	12.0919205298013	-6.21748344370861				0.607788079470199	-0.638834437086093	-1.04423841059603	-18.7396026490066	7.71761589403974	-10.274701986755			
49	1180	0.215841059602649	0.258754966887417	-1.01552317880795	48.7533774834437	102.055364238411	29.0550993377483				1.36095364238411	0.0957880794701987	0.973139072847682	-2.36609271523179	38.6678145695364	11.4540397350993				0.00582781456953642	-0.0652715231788079	-1.03194701986755	-21.552582781457	105.146490066225	-5.80026490066225				0.528529801324503	-0.0965298013245033	-1.01372185430464	17.8829139072848	17.2635761589404	-3.41562913907285				1.26802649006623	0.0674966887417219	0.661933774834437	-1.7282119205298	-2.46807947019868	-4.81748344370861				0.575788079470199	-0.574834437086093	-1.04423841059603	-21.8196026490066	15.8376158940397	6.24529801324503			
50	1200	0.231841059602649	0.354754966887417	-1.07952317880795	40.9133774834437	108.495364238411	19.2550993377483				0.992953642384106	0.0637880794701987	0.957139072847682	30.6739072847682	23.5478145695364	5.57403973509934				0.0378278145695364	-0.0652715231788079	-1.04794701986755	-22.952582781457	113.266490066225	-6.08026490066225				0.544529801324503	-0.320529801324503	-1.04572185430464	31.6029139072848	35.7435761589404	0.784370860927152				1.22002649006623	0.211496688741722	0.437933774834437	-21.8882119205298	-10.3080794701987	-4.81748344370861				0.479788079470199	-0.526834437086093	-0.964238410596026	-10.8996026490066	21.9976158940397	21.925298013245			
51	1220	0.279841059602649	0.370754966887417	-1.04752317880795	46.5133774834437	111.295364238411	14.2150993377483				0.960953642384106	-0.240211920529801	0.669139072847682	-0.686092715231788	14.0278145695364	-8.42596026490066				0.101827814569536	-0.00127152317880793	-0.98394701986755	-6.43258278145695	119.426490066225	-4.68026490066225				0.608529801324503	-0.368529801324503	-1.12572185430464	21.5229139072848	50.8635761589404	8.34437086092715				1.06002649006623	0.211496688741722	0.469933774834437	0.791788079470198	3.69192052980133	-5.93748344370861				0.399788079470199	-0.318834437086093	-0.964238410596026	-2.21960264900662	29.2776158940397	11.005298013245			
52	1240	0.375841059602649	0.242754966887417	-0.951523178807947	43.9933774834437	120.815364238411	10.0150993377483				1.08895364238411	-0.0802119205298013	0.653139072847682	-23.0860927152318	20.4678145695364	-13.1859602649007				0.197827814569536	-0.0172715231788079	-0.88794701986755	-4.75258278145695	126.146490066225	-4.68026490066225				0.736529801324503	-0.240529801324503	-1.01372185430464	8.36291390728477	52.8235761589404	6.10437086092715				1.09202649006623	0.0674966887417219	0.629933774834437	8.3517880794702	18.5319205298013	-5.37748344370861				0.415788079470199	-0.270834437086093	-0.996238410596026	15.1403973509934	35.1576158940397	-0.754701986754968			
53	1260	0.519841059602649	0.178754966887417	-0.951523178807947	28.0333774834437	136.215364238411	2.73509933774834				1.40895364238411	0.0637880794701987	0.557139072847682	14.9939072847682	17.3878145695364	-3.94596026490066				0.325827814569536	-0.0652715231788079	-0.91994701986755	-3.63258278145695	126.986490066225	-0.48026490066225				0.848529801324503	-0.128529801324503	-0.901721854304636	12.8429139072848	43.8635761589404	-6.49562913907285				1.18802649006623	0.115496688741722	0.565933774834437	-18.8082119205298	8.45192052980133	-4.81748344370861				0.367788079470199	-0.414834437086093	-0.900238410596026	31.3803973509934	46.3576158940397	2.32529801324503			
54	1280	0.599841059602649	0.146754966887417	-0.919523178807947	19.3533774834437	149.095364238411	-2.30490066225166				1.04095364238411	0.239788079470199	0.653139072847682	21.9939072847682	-14.8121854304636	-3.38596026490066				0.405827814569536	-0.0332715231788079	-0.87194701986755	-2.23258278145695	130.346490066225	-0.48026490066225				0.752529801324503	-0.224529801324503	-0.853721854304636	9.48291390728477	41.9035761589404	-12.3756291390728				1.10802649006623	0.195496688741722	0.453933774834437	-19.0882119205298	-3.86807947019868	-4.25748344370861				0.367788079470199	-0.478834437086093	-0.820238410596026	-0.539602649006623	64.8376158940397	2.04529801324503			
55	1300	0.551841059602649	0.130754966887417	-0.823523178807947	20.7533774834437	149.935364238411	-2.86490066225166				0.864953642384106	0.0957880794701987	0.461139072847682	17.7939072847682	-53.7321854304636	-0.30596026490066				0.421827814569536	0.0947284768211921	-0.80794701986755	3.92741721854305	135.106490066225	-2.44026490066225				0.576529801324503	-0.288529801324503	-0.869721854304636	0.522913907284768	49.7435761589404	-14.0556291390728				0.948026490066225	0.147496688741722	0.389933774834437	-8.4482119205298	-0.508079470198675	-5.37748344370861				0.431788079470199	-0.334834437086093	-0.868238410596026	-41.1396026490066	70.7176158940397	-13.074701986755			
56	1320	0.535841059602649	0.0987549668874172	-0.775523178807947	17.9533774834437	147.695364238411	-1.74490066225166				0.992953642384106	-0.000211920529801304	0.461139072847682	7.71390728476821	-61.0121854304636	-3.66596026490066				0.437827814569536	0.110728476821192	-0.75994701986755	10.927417218543	137.346490066225	-0.20026490066225				0.464529801324503	-0.176529801324503	-0.837721854304636	12.2829139072848	58.4235761589404	-13.7756291390728				0.932026490066225	0.147496688741722	0.373933774834437	-4.2482119205298	0.611920529801325	-9.85748344370861				0.415788079470199	-0.174834437086093	-0.836238410596026	-47.8596026490066	72.3976158940397	-23.434701986755			
57	1340	0.583841059602649	0.0347549668874172	-0.727523178807947	12.9133774834437	140.415364238411	1.05509933774834				0.944953642384106	0.0157880794701987	0.461139072847682	48.5939072847682	-54.5721854304636	-4.78596026490066				0.469827814569536	0.0787284768211921	-0.71194701986755	19.607417218543	136.786490066225	-3.84026490066225				0.512529801324503	-0.176529801324503	-0.709721854304636	28.5229139072848	61.5035761589404	-12.3756291390728				0.932026490066225	0.0674966887417219	0.325933774834437	1.0717880794702	0.331920529801325	-7.33748344370861				0.367788079470199	-0.126834437086093	-0.820238410596026	-40.0196026490066	77.1576158940397	-22.874701986755			
58	1360	0.583841059602649	0.0187549668874172	-0.711523178807947	11.5133774834437	131.735364238411	2.73509933774834				0.848953642384106	0.287788079470199	0.317139072847682	78.5539072847682	-60.1721854304636	-8.98596026490066				0.485827814569536	0.0467284768211921	-0.66394701986755	20.447417218543	137.066490066225	-8.88026490066225				0.528529801324503	-0.256529801324503	-0.677721854304636	21.8029139072848	52.5435761589404	-8.73562913907285				0.868026490066225	0.0674966887417219	0.277933774834437	-9.0082119205298	-1.62807947019868	-6.21748344370861				0.335788079470199	-0.158834437086093	-0.772238410596026	-20.9796026490066	72.3976158940397	-20.634701986755			
59	1380	0.519841059602649	0.0347549668874172	-0.679523178807947	3.11337748344371	128.935364238411	3.01509933774834				0.880953642384106	0.0797880794701987	0.285139072847682	48.5939072847682	-73.3321854304636	4.17403973509934				0.469827814569536	0.0467284768211921	-0.64794701986755	17.647417218543	138.466490066225	-11.1202649006623				0.448529801324503	-0.256529801324503	-0.645721854304636	6.68291390728477	44.1435761589404	-7.89562913907285				0.788026490066225	0.115496688741722	0.181933774834437	-20.4882119205298	-10.5880794701987	-10.6974834437086				0.319788079470199	-0.190834437086093	-0.724238410596026	-15.0996026490066	66.2376158940397	-25.674701986755			
60	1400	0.471841059602649	0.0187549668874172	-0.679523178807947	1.15337748344371	126.975364238411	6.09509933774834				0.816953642384106	-0.160211920529801	0.109139072847682	22.5539072847682	-82.8521854304636	6.69403973509934				0.469827814569536	0.0627284768211921	-0.59994701986755	12.047417218543	141.266490066225	-9.72026490066225				0.448529801324503	-0.128529801324503	-0.661721854304636	13.6829139072848	36.0235761589404	-6.77562913907285				0.756026490066225	0.0994966887417219	0.197933774834437	-11.8082119205298	-4.98807947019868	-14.0574834437086				0.287788079470199	-0.174834437086093	-0.644238410596026	-20.6996026490066	63.9976158940397	-25.114701986755			
61	1420	0.439841059602649	-0.0132450331125828	-0.727523178807947	-4.16662251655629	128.655364238411	12.2550993377483				0.656953642384106	-0.0802119205298013	0.141139072847682	31.2339072847682	-82.5721854304636	-1.98596026490066				0.437827814569536	0.0467284768211921	-0.53594701986755	15.687417218543	142.106490066225	-7.76026490066225				0.480529801324503	-0.112529801324503	-0.581721854304636	28.8029139072848	37.9835761589404	-6.21562913907285				0.772026490066225	0.0514966887417219	0.277933774834437	6.9517880794702	-11.7080794701987	-6.21748344370861				0.351788079470199	-0.158834437086093	-0.676238410596026	-38.0596026490066	62.5976158940397	-22.034701986755			
62	1440	0.503841059602649	0.00275496688741723	-0.631523178807947	-6.12662251655629	132.015364238411	14.7750993377483				0.576953642384106	0.175788079470199	0.253139072847682	49.4339072847682	-73.6121854304636	-7.02596026490066				0.437827814569536	0.0147284768211921	-0.55194701986755	9.24741721854305	137.066490066225	-12.8002649006623				0.464529801324503	-0.224529801324503	-0.501721854304636	24.6029139072848	30.1435761589404	-5.65562913907285				0.740026490066225	0.0194966887417219	0.261933774834437	-2.2882119205298	-20.1080794701987	0.222516556291392				0.431788079470199	-0.0948344370860927	-0.740238410596026	-46.7396026490066	57.8376158940397	-25.394701986755			
63	1460	0.535841059602649	0.0507549668874172	-0.567523178807947	-8.92662251655629	133.415364238411	17.5750993377483				0.640953642384106	0.239788079470199	0.237139072847682	42.4339072847682	-48.9721854304636	-8.42596026490066				0.421827814569536	-0.00127152317880793	-0.53594701986755	-3.91258278145695	142.386490066225	-10.2802649006622				0.368529801324503	-0.272529801324503	-0.453721854304636	8.64291390728477	24.5435761589404	-3.13562913907285				0.660026490066225	0.0514966887417219	0.165933774834437	-20.7682119205298	-25.4280794701987	-1.17748344370861				0.415788079470199	-0.110834437086093	-0.644238410596026	-24.8996026490066	57.8376158940397	-26.234701986755			
64	1480	0.551841059602649	0.130754966887417	-0.439523178807947	2.83337748344371	127.815364238411	19.5350993377483				0.784953642384106	-0.176211920529801	0.109139072847682	33.4739072847682	-39.4521854304636	5.29403973509934				0.485827814569536	0.0307284768211921	-0.50394701986755	-10.072582781457	144.906490066225	-8.04026490066225				0.320529801324503	-0.128529801324503	-0.437721854304636	20.6829139072848	25.6635761589404	-5.65562913907285				0.612026490066225	0.0674966887417219	0.117933774834437	-22.4482119205298	-24.8680794701987	-4.81748344370861				0.335788079470199	-0.142834437086093	-0.564238410596026	-19.2996026490066	49.1576158940397	-22.874701986755			
65	1500	0.631841059602649	0.0507549668874172	-0.503523178807947	-0.246622516556291	126.975364238411	17.0150993377483				0.752953642384106	-0.192211920529801	-0.146860927152318	18.3539072847682	-54.5721854304636	-6.46596026490066				0.549827814569536	-0.00127152317880793	-0.50394701986755	0.567417218543046	141.266490066225	-8.60026490066225				0.352529801324503	-0.0485298013245033	-0.469721854304636	40.8429139072848	27.3435761589404	-2.85562913907285				0.628026490066225	0.0194966887417219	0.245933774834437	-6.2082119205298	-25.9880794701987	-2.01748344370861				0.303788079470199	-0.142834437086093	-0.516238410596026	-33.0196026490066	40.7576158940397	-19.234701986755			
66	1520	0.663841059602649	0.114754966887417	-0.487523178807947	0.593377483443709	126.975364238411	13.0950993377483				0.576953642384106	0.127788079470199	0.0291390728476822	13.8739072847682	-71.0921854304636	-14.5859602649007				0.581827814569536	-0.0972715231788079	-0.50394701986755	-11.752582781457	132.586490066225	-11.9602649006623				0.352529801324503	-0.208529801324503	-0.453721854304636	38.0429139072848	22.0235761589404	8.34437086092715				0.628026490066225	-0.0285033112582781	0.277933774834437	-5.3682119205298	-40.5480794701987	3.30251655629139				0.351788079470199	-0.0628344370860927	-0.612238410596026	-43.3796026490066	30.6776158940397	-22.034701986755			
67	1540	0.583841059602649	0.146754966887417	-0.407523178807947	-11.1666225165563	123.055364238411	13.9350993377483				0.416953642384106	0.111788079470199	0.173139072847682	9.11390728476821	-72.2121854304636	-6.46596026490066				0.613827814569536	-0.0812715231788079	-0.51994701986755	-23.232582781457	134.546490066225	-10.2802649006622				0.336529801324503	-0.288529801324503	-0.453721854304636	25.1629139072848	7.7435761589404	11.1443708609272				0.564026490066225	0.0674966887417219	0.101933774834437	-31.9682119205298	-49.2280794701987	4.42251655629139				0.383788079470199	0.00116556291390731	-0.596238410596026	-26.5796026490066	22.2776158940397	-21.474701986755			
68	1560	0.679841059602649	0.178754966887417	-0.423523178807947	2.83337748344371	116.335364238411	8.89509933774834				0.528953642384106	0.0317880794701987	0.237139072847682	13.5939072847682	-34.1321854304636	6.41403973509934				0.565827814569536	-0.113271523178808	-0.42394701986755	-36.112582781457	129.786490066225	-5.24026490066225				0.352529801324503	-0.256529801324503	-0.501721854304636	26.5629139072848	-1.7764238410596	4.42437086092715				0.548026490066225	0.0834966887417219	0.0539337748344371	-26.6482119205298	-43.0680794701987	3.58251655629139				0.319788079470199	-0.0308344370860927	-0.564238410596026	-17.0596026490066	14.1576158940397	-14.474701986755			
69	1580	0.759841059602649	0.258754966887417	-0.391523178807947	17.6733774834437	104.015364238411	1.61509933774834				0.720953642384106	0.0637880794701987	0.0771390728476822	23.9539072847682	-14.5321854304636	-2.54596026490066				0.597827814569536	-0.113271523178808	-0.48794701986755	-36.672582781457	116.906490066225	-13.0802649006623				0.336529801324503	-0.192529801324503	-0.485721854304636	19.5629139072848	-2.0564238410596	-2.29562913907285				0.564026490066225	0.0354966887417219	0.0699337748344371	-2.0082119205298	-31.3080794701987	4.98251655629139				0.271788079470199	0.00116556291390731	-0.532238410596027	-18.1796026490066	8.83761589403974	-15.874701986755			
70	1600	0.759841059602649	0.162754966887417	-0.407523178807947	15.1533774834437	97.0153642384106	4.13509933774834				0.624953642384106	0.143788079470199	-0.00286092715231785	20.8739072847682	-50.6521854304636	-9.54596026490066				0.757827814569536	-0.0332715231788079	-0.43994701986755	-15.672582781457	96.7464900662252	-10.5602649006623				0.336529801324503	-0.208529801324503	-0.453721854304636	8.36291390728477	-9.0564238410596	3.86437086092715				0.596026490066225	0.0514966887417219	0.101933774834437	-4.5282119205298	-28.7880794701987	4.70251655629139				0.319788079470199	0.0331655629139073	-0.596238410596026	-22.0996026490066	2.11761589403974	-24.274701986755			
71	1620	0.743841059602649	0.0667549668874172	-0.359523178807947	20.1933774834437	89.7353642384106	1.89509933774834				0.544953642384106	0.127788079470199	0.109139072847682	9.67390728476821	-58.2121854304636	-15.7059602649007				0.821827814569536	0.0147284768211921	-0.47194701986755	-10.632582781457	89.7464900662252	0.91973509933775				0.448529801324503	-0.176529801324503	-0.485721854304636	20.9629139072848	-12.4164238410596	8.90437086092715				0.660026490066225	0.115496688741722	0.165933774834437	-12.0882119205298	-35.5080794701987	5.54251655629139				0.319788079470199	0.00116556291390731	-0.612238410596026	-5.01960264900662	-9.36238410596027	-21.474701986755			
72	1640	0.775841059602649	0.0987549668874172	-0.407523178807947	29.9933774834437	76.0153642384106	-0.0649006622516557				0.544953642384106	0.0797880794701987	0.189139072847682	4.91390728476821	-40.8521854304636	-14.8659602649007				0.789827814569536	-0.00127152317880793	-0.45594701986755	-18.752582781457	76.8664900662252	6.51973509933775				0.400529801324503	-0.192529801324503	-0.469721854304636	25.1629139072848	-7.6564238410596	3.86437086092715				0.660026490066225	0.0994966887417219	0.101933774834437	-4.5282119205298	-42.5080794701987	7.50251655629139				0.303788079470199	0.00116556291390731	-0.612238410596026	-16.4996026490066	-4.04238410596027	-15.314701986755			
73	1660	0.823841059602649	-0.0132450331125828	-0.391523178807947	23.8333774834437	60.6153642384106	1.05509933774834				0.736953642384106	0.0797880794701987	0.0931390728476822	-1.52609271523179	-1.37218543046358	-14.0259602649007				0.853827814569536	-0.0332715231788079	-0.42394701986755	-23.792582781457	57.8264900662252	10.4397350993378				0.416529801324503	-0.240529801324503	-0.517721854304636	27.6829139072848	-8.4964238410596	1.34437086092715				0.660026490066225	0.0994966887417219	0.0379337748344371	1.3517880794702	-33.2680794701987	6.94251655629139				0.287788079470199	0.0491655629139073	-0.612238410596026	-15.9396026490066	2.11761589403974	-19.234701986755			
74	1680	0.823841059602649	-0.0612450331125828	-0.311523178807947	27.7533774834437	53.6153642384106	7.21509933774835				0.832953642384106	0.127788079470199	0.141139072847682	-4.04609271523179	14.5878145695364	-8.70596026490066				0.949827814569536	-0.0172715231788079	-0.42394701986755	1.96741721854305	41.0264900662252	11.8397350993378				0.496529801324503	-0.304529801324503	-0.581721854304636	24.6029139072848	-10.1764238410596	5.26437086092715				0.708026490066225	0.0994966887417219	0.165933774834437	14.2317880794702	-24.0280794701987	5.82251655629139				0.383788079470199	0.0491655629139073	-0.628238410596026	-8.65960264900662	0.157615894039735	-27.634701986755			
75	1700	0.903841059602649	-0.141245033112583	-0.375523178807947	17.1133774834437	49.1353642384106	10.2950993377483				0.864953642384106	0.191788079470199	0.189139072847682	0.433907284768212	-2.49218543046358	-6.74596026490066				0.933827814569536	0.0307284768211921	-0.37594701986755	5.32741721854305	27.5864900662252	10.9997350993378				0.544529801324503	-0.384529801324503	-0.613721854304636	17.3229139072848	-5.4164238410596	4.98437086092715				0.820026490066225	0.0834966887417219	0.165933774834437	15.6317880794702	-23.4680794701987	2.74251655629139				0.447788079470199	-0.0308344370860927	-0.708238410596026	-2.77960264900662	-8.24238410596027	-28.194701986755			
76	1720	0.951841059602649	-0.109245033112583	-0.359523178807947	8.99337748344371	46.0553642384106	10.0150993377483				0.928953642384106	0.0637880794701987	0.221139072847682	-3.76609271523179	-8.09218543046358	-6.18596026490066				0.901827814569536	0.0307284768211921	-0.29594701986755	-9.23258278145695	19.4664900662252	6.23973509933775				0.512529801324503	-0.368529801324503	-0.661721854304636	14.2429139072848	-3.4564238410596	1.62437086092715				0.852026490066225	0.0834966887417219	0.117933774834437	12.2717880794702	-16.1880794701987	-0.337483443708608				0.479788079470199	-0.0788344370860927	-0.676238410596026	-5.57960264900662	3.51761589403974	-22.034701986755			
77	1740	0.951841059602649	-0.0612450331125828	-0.343523178807947	1.99337748344371	37.6553642384106	5.81509933774834				1.02495364238411	-0.000211920529801304	0.189139072847682	-10.4860927152318	-13.1321854304636	-7.30596026490066				0.901827814569536	0.0467284768211921	-0.27994701986755	-11.472582781457	18.3464900662252	0.0797350993377501				0.528529801324503	-0.320529801324503	-0.677721854304636	12.5629139072848	-3.4564238410596	-0.0556291390728476				0.852026490066225	0.0674966887417219	0.197933774834437	10.0317880794702	-1.90807947019868	-2.29748344370861				0.527788079470199	-0.0628344370860927	-0.660238410596027	-17.8996026490066	14.9976158940397	-13.914701986755			
78	1760	0.903841059602649	0.0347549668874172	-0.247523178807947	-0.246622516556291	35.4153642384106	-0.344900662251656				0.992953642384106	0.0317880794701987	0.173139072847682	-15.2460927152318	-16.7721854304636	-5.34596026490066				0.901827814569536	0.0147284768211921	-0.29594701986755	-6.71258278145695	15.5464900662252	-4.40026490066225				0.544529801324503	-0.384529801324503	-0.693721854304636	5.84291390728477	-2.6164238410596	-0.615629139072848				0.916026490066225	0.0194966887417219	0.245933774834437	12.2717880794702	-4.14807947019868	-3.13748344370861				0.575788079470199	-0.0628344370860927	-0.660238410596027	-13.6996026490066	13.0376158940397	-16.154701986755			
79	1780	0.871841059602649	0.0827549668874172	-0.231523178807947	-2.20662251655629	34.8553642384106	-0.0649006622516557				0.944953642384106	0.0797880794701987	0.173139072847682	-14.9660927152318	-17.8921854304636	-2.82596026490066				0.901827814569536	0.0147284768211921	-0.24794701986755	-5.31258278145695	14.9864900662252	-6.08026490066225				0.560529801324503	-0.432529801324503	-0.661721854304636	-5.91708609271523	-0.3764238410596	-2.85562913907285				0.948026490066225	0.0194966887417219	0.181933774834437	5.2717880794702	-6.10807947019868	-3.69748344370861				0.671788079470199	-0.126834437086093	-0.724238410596026	0.0203973509933773	7.99761589403974	-15.594701986755			
80	1800	0.983841059602649	0.00275496688741723	-0.151523178807947	13.7533774834437	35.9753642384106	-0.344900662251656				0.960953642384106	0.0797880794701987	0.0771390728476822	-16.3660927152318	-31.3321854304636	-5.34596026490066				0.917827814569536	0.0147284768211921	-0.26394701986755	-3.63258278145695	14.7064900662252	-6.64026490066225				0.512529801324503	-0.320529801324503	-0.629721854304636	-6.19708609271523	1.8635761589404	-1.45562913907285				0.948026490066225	0.0194966887417219	0.213933774834437	-2.8482119205298	-4.42807947019868	-1.73748344370861				0.655788079470199	-0.222834437086093	-0.692238410596026	-8.09960264900662	13.5976158940397	-5.23470198675497			
81	1820	0.967841059602649	-0.0132450331125828	-0.135523178807947	9.55337748344371	31.4953642384106	1.33509933774834				0.960953642384106	0.0797880794701987	0.0931390728476822	-17.2060927152318	-32.4521854304636	-8.42596026490066				0.917827814569536	-0.0172715231788079	-0.24794701986755	1.40741721854305	12.1864900662252	-5.52026490066225				0.496529801324503	-0.304529801324503	-0.597721854304636	-3.11708609271523	4.9435761589404	1.90437086092715				0.932026490066225	0.0354966887417219	0.229933774834437	-11.2482119205298	-4.70807947019868	-0.0574834437086077				0.623788079470199	-0.174834437086093	-0.676238410596026	-29.3796026490066	25.9176158940397	2.60529801324503			
82	1840	0.935841059602649	-0.0292450331125828	-0.151523178807947	2.55337748344371	25.8953642384106	2.45509933774835				0.960953642384106	0.0477880794701987	0.0931390728476822	-7.40609271523179	-27.4121854304636	-9.26596026490066				0.917827814569536	-0.0492715231788079	-0.24794701986755	8.40741721854305	10.7864900662252	-1.60026490066225				0.560529801324503	-0.320529801324503	-0.629721854304636	-1.15708609271523	9.9835761589404	8.06437086092715				0.964026490066225	0.0194966887417219	0.229933774834437	-12.9282119205298	-6.66807947019868	1.62251655629139				0.655788079470199	-0.0788344370860927	-0.724238410596026	-27.9796026490066	26.7576158940397	5.40529801324503			
83	1860	0.919841059602649	-0.0292450331125828	-0.103523178807947	-5.56662251655629	29.2553642384106	1.33509933774834				0.976953642384106	0.0637880794701987	0.0611390728476822	-1.80609271523179	-25.7321854304636	-9.26596026490066				0.933827814569536	-0.0492715231788079	-0.23194701986755	3.92741721854305	9.10649006622517	0.91973509933775				0.576529801324503	-0.336529801324503	-0.581721854304636	1.36291390728477	17.5435761589404	8.62437086092715				0.964026490066225	0.0354966887417219	0.165933774834437	-16.5682119205298	-12.5480794701987	3.58251655629139				0.671788079470199	0.00116556291390731	-0.788238410596027	-11.4596026490066	16.1176158940397	3.72529801324503			
84	1880	0.983841059602649	-0.0612450331125828	-0.167523178807947	-8.64662251655629	30.3753642384106	-0.344900662251656				0.944953642384106	0.143788079470199	-0.0348609271523178	-4.88609271523179	-27.6921854304636	-11.5059602649007				0.965827814569536	-0.0812715231788079	-0.26394701986755	1.68741721854305	3.22649006622517	2.31973509933775				0.608529801324503	-0.304529801324503	-0.613721854304636	3.32291390728477	17.2635761589404	11.1443708609272				0.964026490066225	0.0834966887417219	0.181933774834437	-19.6482119205298	-9.18807947019868	4.70251655629139				0.655788079470199	-0.0148344370860927	-0.820238410596026	-8.93960264900662	12.1976158940397	5.12529801324503			
85	1900	0.935841059602649	0.00275496688741723	-0.119523178807947	-6.96662251655629	34.0153642384106	-3.98490066225166				1.00895364238411	0.175788079470199	0.0131390728476822	2.39390728476821	-26.2921854304636	-11.5059602649007				0.949827814569536	-0.0492715231788079	-0.26394701986755	7.28741721854305	4.90649006622517	3.15973509933775				0.624529801324503	-0.304529801324503	-0.613721854304636	10.6029139072848	11.3835761589404	16.1843708609272				0.948026490066225	0.0994966887417219	0.149933774834437	-18.8082119205298	-13.9480794701987	8.62251655629139				0.607788079470199	0.0331655629139073	-0.836238410596026	-15.9396026490066	12.4776158940397	2.88529801324503			
86	1920	0.903841059602649	0.0507549668874172	-0.151523178807947	0.873377483443709	33.7353642384106	-1.46490066225166				0.992953642384106	0.0637880794701987	0.0771390728476822	-0.126092715231788	-25.4521854304636	-8.14596026490066				0.885827814569536	-0.0172715231788079	-0.27994701986755	-2.23258278145695	5.18649006622517	0.91973509933775				0.688529801324503	-0.336529801324503	-0.661721854304636	12.0029139072848	4.9435761589404	15.3443708609272				0.964026490066225	0.0994966887417219	0.165933774834437	-16.2882119205298	-7.78807947019868	10.0225165562914				0.543788079470199	0.0651655629139073	-0.804238410596027	-14.2596026490066	12.1976158940397	4.84529801324503			
87	1940	0.935841059602649	0.0187549668874172	-0.231523178807947	2.55337748344371	30.3753642384106	0.215099337748344				0.928953642384106	0.0477880794701987	0.157139072847682	-6.84609271523179	-14.8121854304636	-7.58596026490066				0.869827814569536	0.0307284768211921	-0.31194701986755	-6.15258278145695	10.5064900662252	-0.48026490066225				0.656529801324503	-0.400529801324503	-0.645721854304636	1.92291390728477	10.2635761589404	5.82437086092715				0.948026490066225	0.0674966887417219	0.133933774834437	-10.9682119205298	-7.22807947019868	9.74251655629139				0.479788079470199	0.0331655629139073	-0.756238410596026	-3.05960264900662	9.67761589403974	5.40529801324503			
88	1960	0.967841059602649	0.00275496688741723	-0.279523178807947	4.23337748344371	26.1753642384106	-2.30490066225166				0	0	0	0	0	0				0	0	0	0	0	0				0.608529801324503	-0.320529801324503	-0.597721854304636	-2.55708609271523	12.5035761589404	-1.17562913907285				0.932026490066225	0.0674966887417219	0.0859337748344371	-7.8882119205298	-8.06807947019868	8.34251655629139				0.495788079470199	0.0491655629139073	-0.788238410596027	-1.65960264900662	4.63761589403974	2.60529801324503			
89	1980	0	0	0	0	0	0				0	0	0	0	0	0				0	0	0	0	0	0				0.560529801324503	-0.304529801324503	-0.629721854304636	12.5629139072848	11.1035761589404	-0.615629139072848				0	0	0	0	0	0				0.479788079470199	0.0491655629139073	-0.772238410596026	1.14039735099338	1.83761589403974	1.48529801324503			
90	2080	0	0	0	0	0	0				0.976953642384106	0.127788079470199	-0.0828609271523179	10.5139072847682	-17.8921854304636	2.77403973509934				0.917827814569536	0.0467284768211921	-0.34394701986755	-5.03258278145695	1.82649006622517	-0.76026490066225				0	0	0	0	0	0				0	0	0	0	0	0				0	0	0	0	0	0			
91	2100	0.951841059602649	0.0827549668874172	-0.135523178807947	-0.246622516556291	4.6153642384106	-3.42490066225166				1.00895364238411	0.0957880794701987	-0.0508609271523178	-2.08609271523179	-11.7321854304636	2.49403973509934				0.917827814569536	0.0947284768211921	-0.31194701986755	-7.27258278145696	2.10649006622517	-1.04026490066225				0	0	0	0	0	0				0	0	0	0	0	0				0	0	0	0	0	0			
92	2120	0.967841059602649	0.0667549668874172	-0.151523178807947	1.15337748344371	5.4553642384106	-3.70490066225166				0.992953642384106	0.191788079470199	-0.0828609271523179	-5.72609271523179	-6.13218543046358	-0.0259602649006601				0.917827814569536	0.0947284768211921	-0.31194701986755	-4.75258278145695	1.26649006622517	-2.44026490066225				0	0	0	0	0	0				1.01202649006623	0.0514966887417219	0.0539337748344371	2.7517880794702	-1.62807947019868	-5.93748344370861				0.575788079470199	0.0171655629139073	-0.772238410596026	-8.93960264900662	6.87761589403974	-14.194701986755			
93	2140	0.967841059602649	0.0667549668874172	-0.167523178807947	4.79337748344371	2.6553642384106	-3.42490066225166				0.912953642384106	0.175788079470199	-0.114860927152318	1.83390728476821	-6.97218543046358	-0.585960264900661				0.885827814569536	0.0947284768211921	-0.31194701986755	1.96741721854305	1.82649006622517	-1.88026490066225				0.544529801324503	-0.368529801324503	-0.709721854304636	-5.35708609271523	-7.6564238410596	-1.73562913907285				0.980026490066225	0.0674966887417219	0.0219337748344371	1.6317880794702	-6.38807947019868	-4.53748344370861				0.591788079470199	0.0331655629139073	-0.788238410596027	-11.4596026490066	8.55761589403974	-13.074701986755			
94	2160	0.951841059602649	0.0667549668874172	-0.167523178807947	3.67337748344371	-2.1046357615894	-2.86490066225166				0.928953642384106	0.143788079470199	-0.162860927152318	5.75390728476821	-3.05218543046358	-3.10596026490066				0.901827814569536	0.0787284768211921	-0.27994701986755	3.08741721854305	2.38649006622517	-0.76026490066225				0.560529801324503	-0.384529801324503	-0.709721854304636	-3.95708609271523	-9.3364238410596	-1.17562913907285				0.948026490066225	0.0514966887417219	0.0699337748344371	1.6317880794702	-3.86807947019868	-3.69748344370861				0.575788079470199	0.0491655629139073	-0.772238410596026	-11.4596026490066	7.99761589403974	-10.834701986755			
95	2180	0.951841059602649	0.0347549668874172	-0.135523178807947	-0.246622516556291	0.975364238410596	-2.02490066225166				0.992953642384106	0.191788079470199	-0.0988609271523179	0.713907284768212	9.26781456953642	-1.14596026490066				0.933827814569536	0.0467284768211921	-0.27994701986755	5.04741721854305	2.38649006622517	-0.76026490066225				0.560529801324503	-0.368529801324503	-0.677721854304636	-7.87708609271523	-7.9364238410596	-2.01562913907285				0.964026490066225	0.0514966887417219	0.0699337748344371	1.3517880794702	-8.06807947019868	-3.97748344370861				0.575788079470199	0.0331655629139073	-0.756238410596026	-10.8996026490066	7.99761589403974	-4.67470198675497			
96	2200	0.967841059602649	0.0187549668874172	-0.119523178807947	4.51337748344371	2.0953642384106	-1.46490066225166				0.976953642384106	0.175788079470199	-0.0188609271523178	2.11390728476821	10.3878145695364	0.25403973509934				0.917827814569536	0.0467284768211921	-0.29594701986755	6.44741721854305	0.146490066225167	-1.32026490066225				0.544529801324503	-0.336529801324503	-0.645721854304636	-7.03708609271523	-5.9764238410596	-2.29562913907285				0.948026490066225	0.0994966887417219	0.0859337748344371	-1.4482119205298	-8.06807947019868	-3.41748344370861				0.591788079470199	0.0491655629139073	-0.772238410596026	-12.5796026490066	6.03761589403974	0.0852980132450323			
97	2220	0.951841059602649	0.0347549668874172	-0.087523178807947	3.67337748344371	3.2153642384106	-2.02490066225166				0.960953642384106	0.175788079470199	-0.0188609271523178	6.31390728476821	5.06781456953642	-1.70596026490066				0.917827814569536	0.0307284768211921	-0.29594701986755	6.16741721854305	-0.133509933774833	-0.76026490066225				0.560529801324503	-0.336529801324503	-0.645721854304636	-0.597086092715232	-3.1764238410596	-0.895629139072848				0.948026490066225	0.115496688741722	0.101933774834437	-0.608211920529802	-3.30807947019868	-2.57748344370861				0.623788079470199	0.113165562913907	-0.788238410596027	-10.8996026490066	4.91761589403974	0.925298013245032			
98	2240	0.951841059602649	0.0507549668874172	-0.087523178807947	4.23337748344371	2.0953642384106	-1.46490066225166				0.992953642384106	0.175788079470199	-0.0188609271523178	10.5139072847682	-1.09218543046358	-4.78596026490066				0.917827814569536	0.0307284768211921	-0.29594701986755	8.12741721854305	0.146490066225167	-1.32026490066225				0.608529801324503	-0.336529801324503	-0.661721854304636	-0.317086092715232	-1.7764238410596	-0.895629139072848				0.932026490066225	0.0834966887417219	0.101933774834437	3.8717880794702	0.891920529801325	-2.57748344370861				0.623788079470199	0.129165562913907	-0.788238410596027	-1.37960264900662	2.95761589403974	-1.03470198675497			
99	2260	0.935841059602649	0.0507549668874172	-0.119523178807947	7.87337748344371	3.4953642384106	-1.46490066225166				0.976953642384106	0.111788079470199	-0.0348609271523178	9.39390728476821	-0.252185430463576	-1.98596026490066				0.949827814569536	0.0307284768211921	-0.29594701986755	7.84741721854305	-0.413509933774833	-1.32026490066225				0.608529801324503	-0.336529801324503	-0.629721854304636	-1.43708609271523	-0.9364238410596	-3.69562913907285				0.948026490066225	0.0834966887417219	0.149933774834437	3.0317880794702	1.17192052980133	-1.73748344370861				0.607788079470199	0.0971655629139073	-0.772238410596026	3.94039735099338	1.27761589403974	-3.55470198675497			
100	2280	0.967841059602649	0.0187549668874172	-0.151523178807947	10.6733774834437	4.3353642384106	-2.02490066225166				0.992953642384106	0.111788079470199	0.0131390728476822	-1.80609271523179	8.42781456953642	-0.86596026490066				0.917827814569536	-0.00127152317880793	-0.27994701986755	8.68741721854305	0.146490066225167	-3.28026490066225				0.592529801324503	-0.336529801324503	-0.645721854304636	-0.597086092715232	-0.6564238410596	-3.69562913907285				0.980026490066225	0.0674966887417219	0.101933774834437	5.5517880794702	2.01192052980133	-0.897483443708608				0.591788079470199	0.0811655629139073	-0.756238410596026	4.22039735099338	-0.682384105960265	-6.91470198675497			
101	2300	0.967841059602649	-0.0132450331125828	-0.167523178807947	5.63337748344371	4.6153642384106	-2.58490066225166				0.976953642384106	0.159788079470199	-0.0188609271523178	-7.40609271523179	6.18781456953642	-1.42596026490066				0.901827814569536	0.0147284768211921	-0.24794701986755	5.88741721854305	-0.413509933774833	-2.72026490066225				0.592529801324503	-0.336529801324503	-0.677721854304636	4.72291390728477	0.7435761589404	-2.57562913907285				0.964026490066225	0.0834966887417219	0.101933774834437	4.4317880794702	0.331920529801325	-1.17748344370861				0.607788079470199	0.0491655629139073	-0.740238410596026	2.26039735099338	-0.402384105960265	-6.35470198675497			
102	2320	0.951841059602649	0.00275496688741723	-0.183523178807947	1.99337748344371	3.2153642384106	-2.86490066225166				0.944953642384106	0.191788079470199	-0.0508609271523178	-6.00609271523179	7.02781456953642	-3.10596026490066				0.933827814569536	0.0147284768211921	-0.24794701986755	-1.11258278145695	0.146490066225167	-2.16026490066225				0.592529801324503	-0.368529801324503	-0.677721854304636	5.84291390728477	-0.3764238410596	-2.57562913907285				0.948026490066225	0.0834966887417219	0.0699337748344371	4.4317880794702	-1.06807947019868	-0.337483443708608				0.623788079470199	0.0651655629139073	-0.756238410596026	1.14039735099338	1.55761589403974	-5.51470198675497			
103	2340	0.951841059602649	0.00275496688741723	-0.151523178807947	1.15337748344371	3.4953642384106	-2.02490066225166				0.976953642384106	0.143788079470199	-0.0668609271523178	1.55390728476821	5.62781456953642	0.25403973509934				0.933827814569536	0.0147284768211921	-0.24794701986755	2.80741721854305	-0.973509933774833	-1.60026490066225				0.576529801324503	-0.416529801324503	-0.677721854304636	0.802913907284768	-2.3364238410596	-2.29562913907285				0.948026490066225	0.0514966887417219	0.0859337748344371	4.1517880794702	1.45192052980132	-1.17748344370861				0.591788079470199	0.0491655629139073	-0.708238410596026	3.38039735099338	1.27761589403974	-5.51470198675497			
104	2360	0.967841059602649	0.0187549668874172	-0.151523178807947	-0.246622516556291	0.135364238410596	-0.904900662251656				0.976953642384106	0.0957880794701987	-0.00286092715231785	-4.32609271523179	10.3878145695364	1.09403973509934				0.901827814569536	0.0147284768211921	-0.24794701986755	2.24741721854305	-0.693509933774834	-1.32026490066225				0.560529801324503	-0.352529801324503	-0.693721854304636	-3.67708609271523	-3.1764238410596	-3.69562913907285				0.948026490066225	0.0514966887417219	0.133933774834437	2.7517880794702	1.73192052980133	-1.73748344370861				0.591788079470199	0.0331655629139073	-0.724238410596026	1.98039735099338	-1.24238410596026	-4.11470198675497			
105	2380	0.951841059602649	0.0187549668874172	-0.151523178807947	-2.20662251655629	-2.3846357615894	-2.30490066225166				0.960953642384106	0.111788079470199	0.0131390728476822	-10.2060927152318	8.70781456953642	1.93403973509934				0.917827814569536	0.0147284768211921	-0.26394701986755	-0.552582781456954	-0.133509933774833	-1.32026490066225				0.576529801324503	-0.336529801324503	-0.677721854304636	-3.11708609271523	-2.0564238410596	-4.81562913907285				0.932026490066225	0.0674966887417219	0.117933774834437	0.231788079470198	2.01192052980133	-1.73748344370861				0.623788079470199	0.0331655629139073	-0.724238410596026	2.82039735099338	-2.92238410596027	-2.99470198675497			
106	2400	0.935841059602649	0.0187549668874172	-0.119523178807947	-2.20662251655629	-1.5446357615894	-1.46490066225166				0.976953642384106	0.191788079470199	-0.0188609271523178	-2.36609271523179	-1.93218543046358	-0.30596026490066				0.933827814569536	-0.00127152317880793	-0.26394701986755	-2.51258278145695	-0.693509933774834	-1.32026490066225				0.608529801324503	-0.320529801324503	-0.661721854304636	-0.877086092715232	-3.4564238410596	-7.05562913907285				0.964026490066225	0.0834966887417219	0.101933774834437	0.231788079470198	3.13192052980133	-1.73748344370861				0.639788079470199	0.0651655629139073	-0.740238410596026	2.26039735099338	-1.80238410596026	-2.43470198675497			
107	2420	0.951841059602649	0.00275496688741723	-0.119523178807947	-2.20662251655629	0.415364238410596	-1.18490066225166				1.02495364238411	0.191788079470199	-0.0668609271523178	7.43390728476821	-9.21218543046358	1.09403973509934				0.933827814569536	0.0147284768211921	-0.27994701986755	-0.552582781456954	-1.53350993377483	-0.76026490066225				0.592529801324503	-0.320529801324503	-0.629721854304636	-3.39708609271523	-2.8964238410596	-7.05562913907285				0.980026490066225	0.0834966887417219	0.117933774834437	-0.0482119205298018	2.29192052980133	-1.73748344370861				0.639788079470199	0.0811655629139073	-0.740238410596026	3.10039735099338	-0.962384105960265	-4.39470198675497			
108	2440	0.967841059602649	0.0187549668874172	-0.151523178807947	-3.04662251655629	1.5353642384106	-2.02490066225166				1.00895364238411	0.159788079470199	-0.0828609271523179	6.59390728476821	-10.8921854304636	0.25403973509934				0.917827814569536	0.0307284768211921	-0.31194701986755	-0.272582781456954	-1.53350993377483	-0.20026490066225				0.576529801324503	-0.352529801324503	-0.629721854304636	0.802913907284768	1.3035761589404	-3.69562913907285				0.980026490066225	0.0994966887417219	0.133933774834437	0.791788079470198	5.09192052980133	-1.17748344370861				0.623788079470199	0.0811655629139073	-0.756238410596026	8.14039735099338	0.997615894039735	-6.07470198675497			
109	2460	0.951841059602649	0.0347549668874172	-0.151523178807947	-4.72662251655629	0.975364238410596	-1.46490066225166				0.944953642384106	0.111788079470199	-0.0348609271523178	-0.686092715231788	-6.97218543046358	-1.14596026490066				0.901827814569536	0.0467284768211921	-0.31194701986755	-1.67258278145695	0.706490066225167	0.0797350993377501				0.592529801324503	-0.352529801324503	-0.661721854304636	3.04291390728477	4.3835761589404	-0.335629139072848				0.964026490066225	0.0834966887417219	0.0859337748344371	1.3517880794702	0.0519205298013249	1.06251655629139				0.607788079470199	0.0491655629139073	-0.724238410596026	4.78039735099338	2.11761589403974	-6.07470198675497			
110	2480	0.967841059602649	0.0507549668874172	-0.167523178807947	-3.88662251655629	-0.144635761589404	-2.02490066225166				0.944953642384106	0.143788079470199	-0.00286092715231785	-10.4860927152318	2.54781456953642	0.53403973509934				0.885827814569536	0.0467284768211921	-0.31194701986755	-3.63258278145695	2.66649006622517	-1.04026490066225				0.592529801324503	-0.368529801324503	-0.693721854304636	5.28291390728477	3.8235761589404	3.30437086092715				0.964026490066225	0.0834966887417219	0.117933774834437	0.791788079470198	0.331920529801325	1.06251655629139				0.607788079470199	0.0171655629139073	-0.756238410596026	-1.09960264900662	2.95761589403974	-2.43470198675497			
111	2500	0.967841059602649	0.0507549668874172	-0.167523178807947	-0.806622516556291	-0.144635761589404	-2.86490066225166				1.02495364238411	0.191788079470199	-0.00286092715231785	-5.72609271523179	1.14781456953642	1.37403973509934				0.933827814569536	0.0627284768211921	-0.31194701986755	-0.552582781456954	2.10649006622517	-0.48026490066225				0.576529801324503	-0.368529801324503	-0.693721854304636	6.40291390728477	2.9835761589404	3.86437086092715				0.964026490066225	0.0514966887417219	0.101933774834437	-2.8482119205298	0.0519205298013249	0.782516556291392				0.591788079470199	0.0331655629139073	-0.756238410596026	-3.33960264900662	2.39761589403974	-1.59470198675497			
112	2520	0.967841059602649	0.0347549668874172	-0.183523178807947	0.873377483443709	-0.144635761589404	-3.14490066225166				0.992953642384106	0.207788079470199	-0.0828609271523179	9.95390728476821	-11.1721854304636	-0.0259602649006601				0.949827814569536	0.0467284768211921	-0.31194701986755	1.68741721854305	0.986490066225167	-0.76026490066225				0.576529801324503	-0.384529801324503	-0.693721854304636	-1.15708609271523	0.7435761589404	1.34437086092715				0.964026490066225	0.0514966887417219	0.0859337748344371	-1.7282119205298	0.0519205298013249	0.502516556291392				0.607788079470199	0.0491655629139073	-0.772238410596026	-0.259602649006623	-0.962384105960265	-1.87470198675497			
113	2540	0.951841059602649	0.0347549668874172	-0.151523178807947	1.15337748344371	-0.984635761589404	-2.02490066225166				0.960953642384106	0.143788079470199	-0.0828609271523179	9.67390728476821	-8.93218543046358	-0.86596026490066				0.917827814569536	0.0307284768211921	-0.34394701986755	3.08741721854305	-0.133509933774833	-1.60026490066225				0.576529801324503	-0.368529801324503	-0.661721854304636	-5.91708609271523	-1.4964238410596	-0.615629139072848				0.964026490066225	0.0834966887417219	0.101933774834437	-1.4482119205298	2.57192052980133	-0.337483443708608				0.607788079470199	0.0491655629139073	-0.772238410596026	4.22039735099338	-3.20238410596026	-0.474701986754968			
114	2560	0.951841059602649	0.0347549668874172	-0.135523178807947	1.43337748344371	-0.704635761589404	-1.18490066225166				0.928953642384106	0.111788079470199	-0.0188609271523178	-0.686092715231788	-1.09218543046358	-1.14596026490066				0.869827814569536	0.0467284768211921	-0.32794701986755	1.12741721854305	0.986490066225167	-1.32026490066225				0.576529801324503	-0.352529801324503	-0.645721854304636	-0.0370860927152318	-0.0964238410596001	0.784370860927152				0.948026490066225	0.0834966887417219	0.101933774834437	-3.4082119205298	2.57192052980133	0.782516556291392				0.591788079470199	0.0331655629139073	-0.756238410596026	5.90039735099338	-4.88238410596027	0.925298013245032			
115	2580	0.951841059602649	0.0187549668874172	-0.151523178807947	-0.806622516556291	-1.8246357615894	-1.74490066225166				0.992953642384106	0.143788079470199	0.0131390728476822	-3.20609271523179	4.50781456953642	-0.585960264900661				0.917827814569536	0.0467284768211921	-0.29594701986755	0.00741721854304636	0.706490066225167	-1.32026490066225				0.592529801324503	-0.352529801324503	-0.661721854304636	2.48291390728477	2.7035761589404	2.74437086092715				0.980026490066225	0.0834966887417219	0.101933774834437	-1.4482119205298	1.17192052980133	-0.0574834437086077				0.591788079470199	0.0491655629139073	-0.756238410596026	4.22039735099338	-4.88238410596027	1.20529801324503			
116	2600	0.967841059602649	0.0187549668874172	-0.167523178807947	-1.64662251655629	-0.144635761589404	-2.02490066225166				1.00895364238411	0.175788079470199	-0.0828609271523179	-0.126092715231788	-5.29218543046358	-1.14596026490066				0.949827814569536	0.0307284768211921	-0.29594701986755	0.567417218543046	-0.133509933774833	-0.76026490066225				0.576529801324503	-0.352529801324503	-0.645721854304636	0.802913907284768	2.1435761589404	1.34437086092715				0.964026490066225	0.0674966887417219	0.0859337748344371	-2.0082119205298	-1.06807947019868	0.502516556291392				0.575788079470199	0.0491655629139073	-0.756238410596026	2.26039735099338	-5.44238410596027	1.76529801324503			
117	2620	0.951841059602649	0.0347549668874172	-0.167523178807947	-2.76662251655629	0.415364238410596	-2.02490066225166				0.960953642384106	0.159788079470199	-0.114860927152318	-2.08609271523179	-8.09218543046358	-0.86596026490066				0.917827814569536	0.0307284768211921	-0.32794701986755	0.847417218543046	-2.65350993377483	-2.16026490066225				0.576529801324503	-0.352529801324503	-0.677721854304636	3.60291390728477	0.7435761589404	0.784370860927152				0.964026490066225	0.0674966887417219	0.0859337748344371	-0.0482119205298018	0.0519205298013249	0.782516556291392				0.575788079470199	0.0651655629139073	-0.756238410596026	1.98039735099338	-4.88238410596027	0.365298013245032			
118	2640	0.951841059602649	0.0347549668874172	-0.167523178807947	-2.20662251655629	0.975364238410596	-2.02490066225166				0.960953642384106	0.159788079470199	-0.0828609271523179	-8.80609271523179	0.0278145695364242	-1.14596026490066				0.917827814569536	0.0147284768211921	-0.29594701986755	-2.51258278145695	-1.81350993377483	-2.16026490066225				0.592529801324503	-0.352529801324503	-0.677721854304636	1.64291390728477	1.3035761589404	-0.335629139072848				0.964026490066225	0.0514966887417219	0.0859337748344371	-0.888211920529802	-0.228079470198675	1.34251655629139				0.591788079470199	0.0651655629139073	-0.772238410596026	3.66039735099338	-4.32238410596027	-0.754701986754968			
119	2660	0.951841059602649	0.0187549668874172	-0.167523178807947	-1.64662251655629	-0.144635761589404	-2.58490066225166				0.992953642384106	0.207788079470199	-0.0348609271523178	-3.48609271523179	3.38781456953642	-1.70596026490066				0.917827814569536	0.0467284768211921	-0.29594701986755	-3.35258278145695	-1.25350993377483	-1.88026490066225				0.592529801324503	-0.384529801324503	-0.677721854304636	2.76291390728477	0.7435761589404	-0.615629139072848				0.964026490066225	0.0674966887417219	0.0859337748344371	-1.7282119205298	-1.62807947019868	0.502516556291392				0.591788079470199	0.0491655629139073	-0.756238410596026	2.26039735099338	-1.80238410596026	-0.754701986754968			
120	2680	0.967841059602649	0.0347549668874172	-0.151523178807947	-1.08662251655629	-1.8246357615894	-2.02490066225166				0.960953642384106	0.191788079470199	-0.0348609271523178	2.11390728476821	1.70781456953642	-1.14596026490066				0.917827814569536	0.0307284768211921	-0.29594701986755	-2.23258278145695	-1.25350993377483	-1.32026490066225				0.576529801324503	-0.384529801324503	-0.661721854304636	2.20291390728477	1.3035761589404	0.784370860927152				0.964026490066225	0.0994966887417219	0.0859337748344371	-1.4482119205298	-1.34807947019868	0.782516556291392				0.591788079470199	0.0491655629139073	-0.724238410596026	1.98039735099338	-0.122384105960265	-0.754701986754968			
121	2700	0.951841059602649	0.0507549668874172	-0.119523178807947	-2.20662251655629	-2.3846357615894	-1.46490066225166				0.960953642384106	0.159788079470199	-0.0668609271523178	3.51390728476821	-2.77218543046358	-0.0259602649006601				0.901827814569536	0.0307284768211921	-0.31194701986755	-0.272582781456954	-2.09350993377483	-1.32026490066225				0.592529801324503	-0.352529801324503	-0.661721854304636	0.522913907284768	0.4635761589404	1.34437086092715				0.948026490066225	0.0834966887417219	0.0859337748344371	-0.0482119205298018	0.0519205298013249	0.502516556291392				0.591788079470199	0.0651655629139073	-0.740238410596026	1.14039735099338	-0.402384105960265	-1.59470198675497			
122	2720	0.967841059602649	0.0187549668874172	-0.119523178807947	0.593377483443709	-0.704635761589404	-0.904900662251656				0.992953642384106	0.143788079470199	-0.0508609271523178	-2.64609271523179	0.867814569536424	-0.86596026490066				0.901827814569536	0.0467284768211921	-0.31194701986755	0.847417218543046	-0.693509933774834	-0.76026490066225				0.592529801324503	-0.336529801324503	-0.677721854304636	1.64291390728477	1.0235761589404	0.784370860927152				0.948026490066225	0.0834966887417219	0.117933774834437	-1.7282119205298	2.57192052980133	-0.337483443708608				0.575788079470199	0.0491655629139073	-0.740238410596026	1.98039735099338	0.157615894039735	-1.87470198675497			
123	2740	0.967841059602649	0.0187549668874172	-0.151523178807947	-0.526622516556291	-0.424635761589404	-2.02490066225166				0.992953642384106	0.191788079470199	-0.00286092715231785	-3.76609271523179	3.94781456953642	-0.585960264900661				0.933827814569536	0.0467284768211921	-0.29594701986755	-1.11258278145695	0.986490066225167	-0.76026490066225				0.624529801324503	-0.352529801324503	-0.677721854304636	2.20291390728477	-0.3764238410596	-0.615629139072848				0.980026490066225	0.0834966887417219	0.0859337748344371	-2.0082119205298	0.0519205298013249	-0.897483443708608				0.591788079470199	0.0651655629139073	-0.756238410596026	2.54039735099338	-0.402384105960265	-4.39470198675497			
124	2760	0.951841059602649	0.0347549668874172	-0.167523178807947	-0.246622516556291	-0.424635761589404	-3.14490066225166				0.976953642384106	0.175788079470199	-0.0348609271523178	0.993907284768212	-0.812185430463576	2.49403973509934				0.933827814569536	0.0307284768211921	-0.29594701986755	0.287417218543046	-0.413509933774833	-1.60026490066225				0.608529801324503	-0.384529801324503	-0.661721854304636	-2.27708609271523	-0.9364238410596	-1.17562913907285				0.980026490066225	0.0834966887417219	0.101933774834437	-0.328211920529802	1.73192052980133	-0.617483443708608				0.591788079470199	0.0331655629139073	-0.756238410596026	2.26039735099338	0.157615894039735	-2.71470198675497			
125	2780	0.951841059602649	0.0347549668874172	-0.135523178807947	-2.20662251655629	-1.8246357615894	-2.02490066225166				0.960953642384106	0.159788079470199	-0.0828609271523179	3.23390728476821	-2.77218543046358	1.37403973509934				0.917827814569536	0.0307284768211921	-0.29594701986755	1.68741721854305	-1.25350993377483	-2.16026490066225				0.592529801324503	-0.368529801324503	-0.661721854304636	-2.55708609271523	0.1835761589404	0.224370860927152				0.964026490066225	0.0834966887417219	0.101933774834437	-0.888211920529802	1.17192052980133	-0.0574834437086077				0.607788079470199	0.0171655629139073	-0.740238410596026	-0.539602649006623	2.11761589403974	-0.474701986754968			
126	2800	0.967841059602649	0.0347549668874172	-0.151523178807947	0.593377483443709	-2.3846357615894	-1.74490066225166				0.976953642384106	0.175788079470199	-0.0988609271523179	5.47390728476821	-6.97218543046358	-0.585960264900661				0.917827814569536	0.0307284768211921	-0.31194701986755	1.96741721854305	-1.53350993377483	-1.60026490066225				0.576529801324503	-0.336529801324503	-0.661721854304636	0.242913907284768	2.1435761589404	2.18437086092715				0.948026490066225	0.0674966887417219	0.117933774834437	-0.328211920529802	1.73192052980133	0.502516556291392				0.591788079470199	0.0651655629139073	-0.756238410596026	-2.21960264900662	2.11761589403974	0.925298013245032			
127	2820	0.951841059602649	0.0347549668874172	-0.167523178807947	0.0333774834437086	-2.1046357615894	-2.58490066225166				0.976953642384106	0.191788079470199	-0.0348609271523178	2.67390728476821	-3.05218543046358	0.25403973509934				0.917827814569536	0.0467284768211921	-0.29594701986755	1.96741721854305	0.426490066225167	-1.04026490066225				0.592529801324503	-0.352529801324503	-0.661721854304636	0.242913907284768	1.8635761589404	2.74437086092715				0.964026490066225	0.0674966887417219	0.101933774834437	0.511788079470198	-0.788079470198675	0.502516556291392				0.591788079470199	0.0811655629139073	-0.772238410596026	1.42039735099338	0.717615894039735	0.0852980132450323			
128	2840	0	0	0	0	0	0				0	0	0	0	0	0				0	0	0	0	0	0				0.608529801324503	-0.368529801324503	-0.693721854304636	0.242913907284768	0.1835761589404	2.46437086092715				0.964026490066225	0.0834966887417219	0.117933774834437	-0.608211920529802	0.331920529801325	0.502516556291392				0.607788079470199	0.0331655629139073	-0.756238410596026	1.98039735099338	-2.08238410596027	0.925298013245032			
